# Time (seconds),Accel_X,Accel_Y,Accel_Z,Gyro_X,Gyro_Y,Gyro_Z
0.0099999,-5.039794445037842,-9.14585018157959,0.49320554733276367,3.9825439453125,-7.4920654296875,30.76171875
0.029999900000000003,-5.173870086669922,-9.038111686706543,0.5219359993934631,4.2877197265625,-6.4544677734375,31.6009521484375
0.0499999,-5.257667064666748,-8.927978515625,0.569819986820221,4.6234130859375,-3.4027099609375,32.3028564453125
0.0699999,-5.305551052093506,-8.81784439086914,0.6224924325942993,5.7830810546875,-2.6397705078125,31.036376953125
0.08999990000000001,-5.341464042663574,-8.724471092224121,0.6631938815116882,5.79833984375,-6.28662109375,30.2886962890625
0.10999990000000001,-5.382165431976318,-8.645462036132812,0.689530074596405,3.936767578125,-11.016845703125,31.768798828125
0.1299999,-5.4228668212890625,-8.595184326171875,0.7158663272857666,1.5411376953125,-11.383056640625,33.75244140625
0.14999990000000002,-5.475539207458496,-8.556877136230469,0.7493851184844971,-0.5035400390625,-5.3558349609375,32.623291015625
0.1699999,-5.559336185455322,-8.506598472595215,0.7757213711738586,-2.227783203125,2.38037109375,27.9998779296875
0.1899999,-5.659893035888672,-8.432378768920898,0.7924807667732239,-3.9825439453125,4.7454833984375,22.7508544921875
0.20999990000000002,-5.738901615142822,-8.358158111572266,0.7948749661445618,-5.7220458984375,4.0283203125,19.1497802734375
0.2299999,-5.772420406341553,-8.283937454223633,0.768538773059845,-6.6375732421875,7.2174072265625,18.768310546875
0.2499999,-5.750872611999512,-8.245630264282227,0.727837324142456,-5.92041015625,10.43701171875,20.6756591796875
0.2699999,-5.7341132164001465,-8.214506149291992,0.6751648783683777,-4.45556640625,8.8043212890625,23.681640625
0.28999990000000003,-5.750872611999512,-8.188169479370117,0.6153098344802856,-2.6702880859375,4.8065185546875,25.5126953125
0.3099999,-5.808333396911621,-8.17141056060791,0.5722141861915588,0.0152587890625,2.8533935546875,26.1077880859375
0.3299999,-5.916072368621826,-8.149862289428711,0.5506663918495178,3.173828125,4.669189453125,29.11376953125
0.34999990000000003,-6.064512729644775,-8.118738174438477,0.5482721924781799,5.8441162109375,5.7525634765625,32.562255859375
0.3699999,-6.2632317543029785,-8.054094314575195,0.545877993106842,8.6822509765625,1.2969970703125,31.7840576171875
0.3899999,-6.452373504638672,-7.953537940979004,0.5626373887062073,10.9405517578125,-6.2713623046875,28.594970703125
0.40999990000000003,-6.641515731811523,-7.826645374298096,0.5937620401382446,10.92529296875,-7.9498291015625,28.2135009765625
0.4299999,-6.782773494720459,-7.661445617675781,0.629675030708313,9.58251953125,-3.8604736328125,28.3050537109375
0.4499999,-6.868964672088623,-7.50582218170166,0.6967126727104187,8.1329345703125,-3.448486328125,24.4598388671875
0.4699999,-6.914454460144043,-7.350199222564697,0.7541735172271729,5.889892578125,-1.8310546875,21.484375
0.4899999,-6.933608055114746,-7.223306655883789,0.8020575642585754,2.9449462890625,2.3345947265625,22.857666015625
0.5099999,-6.936002254486084,-7.113173484802246,0.8212111592292786,-0.091552734375,2.6702880859375,27.2216796875
0.5299999,-6.943184852600098,-7.024587631225586,0.8188169598579407,-1.617431640625,-0.67138671875,29.541015625
0.5499999,-6.971915245056152,-6.931213855743408,0.790086567401886,-2.227783203125,-2.2430419921875,30.9600830078125
0.5699999,-6.993463039398193,-6.835445880889893,0.7637503147125244,-3.814697265625,-0.30517578125,35.0494384765625
0.5899998999999999,-6.993463039398193,-6.737283706665039,0.7469909191131592,-5.8746337890625,4.4708251953125,40.496826171875
0.6099998999999999,-6.993463039398193,-6.63433313369751,0.7422025203704834,-6.5155029296875,11.138916015625,44.9371337890625
0.6299999,-7.0317702293396,-6.524199485778809,0.7326257228851318,-6.134033203125,15.56396484375,49.2706298828125
0.6499999,-7.175422668457031,-6.402095317840576,0.7038952708244324,-5.9051513671875,14.9993896484375,52.5054931640625
0.6699999,-7.412448406219482,-6.279991149902344,0.6584054827690125,-5.2032470703125,9.2926025390625,52.1087646484375
0.6899999,-7.694964408874512,-6.13633918762207,0.6392518281936646,-4.1046142578125,2.8228759765625,47.7294921875
0.7099999,-7.934384346008301,-6.00226354598999,0.646434485912323,-4.21142578125,2.5177001953125,41.7022705078125
0.7299998999999999,-8.044517517089844,-5.8442463874816895,0.7613561153411865,-7.659912109375,4.150390625,40.679931640625
0.7499998999999999,-8.04930591583252,-5.6670756340026855,0.9217676520347595,-16.815185546875,11.688232421875,40.985107421875
0.7699999,-7.987056732177734,-5.499481201171875,1.072602391242981,-28.4881591796875,19.0277099609375,39.7491455078125
0.7899999,-7.908048152923584,-5.293580055236816,1.1803414821624756,-39.154052734375,15.1519775390625,38.9556884765625
0.8099999,-7.934384346008301,-5.274426460266113,1.161187767982483,-46.93603515625,4.8065185546875,40.679931640625
0.8299999,-7.898471355438232,-5.260061264038086,1.0319008827209473,-48.4161376953125,1.1138916015625,42.3583984375
0.8499998999999999,-7.91283655166626,-5.394136428833008,0.8236053586006165,-46.32568359375,5.2642822265625,43.3349609375
0.8699998999999999,-7.920019149780273,-5.530605792999268,0.4836287498474121,-40.1458740234375,2.838134765625,45.7763671875
0.8899999,-8.02536392211914,-5.66228723526001,0.05506663769483566,-30.3192138671875,-8.8958740234375,48.1109619140625
0.9099999,-8.195352554321289,-5.681440830230713,-0.3734954595565796,-16.6168212890625,-22.369384765625,46.3104248046875
0.9299999,-8.453926086425781,-5.762843608856201,-0.7038952708244324,-2.9754638671875,-33.14208984375,42.9229736328125
0.9499999,-8.647856712341309,-5.676652431488037,-0.7757213711738586,5.3253173828125,-40.4510498046875,42.5567626953125
0.9699998999999999,-8.801085472106934,-5.60722017288208,-0.6751648783683777,8.4991455078125,-39.8712158203125,42.449951171875
0.9899998999999999,-8.846575736999512,-5.473145008087158,-0.35913026332855225,8.36181640625,-31.0211181640625,39.7796630859375
1.0099999,-8.89445972442627,-5.264849662780762,0.019153613597154617,5.18798828125,-20.111083984375,35.94970703125
1.0299999,-8.863334655761719,-4.999093055725098,0.3734954595565796,-0.7781982421875,-16.8304443359375,33.4320068359375
1.0499999,-8.87291145324707,-4.726154327392578,0.6703764796257019,-7.6141357421875,-15.9149169921875,34.7747802734375
1.0699999,-8.899248123168945,-4.467580318450928,0.8092401623725891,-12.9241943359375,-11.7340087890625,36.3922119140625
1.0899999,-8.990227699279785,-4.292803764343262,0.8092401623725891,-16.510009765625,-3.265380859375,31.8756103515625
1.1099999,-9.126696586608887,-4.185064792633057,0.706289529800415,-19.561767578125,1.617431640625,27.923583984375
1.1299999,-9.346963882446289,-4.110844135284424,0.5674257874488831,-22.2320556640625,-4.180908203125,30.670166015625
1.1499999,-9.567230224609375,-3.97916316986084,0.4213795065879822,-22.9949951171875,-15.0146484375,32.928466796875
1.1699998999999999,-9.797073364257812,-3.840299606323242,0.28730419278144836,-22.52197265625,-16.2200927734375,30.303955078125
1.1899998999999999,-9.967061996459961,-3.691859006881714,0.1604115068912506,-22.3846435546875,-8.1329345703125,27.252197265625
1.2099999,-10.062829971313477,-3.5386300086975098,0.10055647045373917,-22.15576171875,-5.157470703125,28.13720703125
1.2299999,-10.031704902648926,-3.3638534545898438,0.11013327538967133,-20.99609375,-10.1165771484375,29.3731689453125
1.2499999,-9.9000244140625,-3.205836057662964,0.16519992053508759,-19.53125,-14.7247314453125,30.0445556640625
1.2699999,-9.746794700622559,-3.138798475265503,0.21547815203666687,-18.49365234375,-15.6097412109375,36.1480712890625
1.2899999,-9.59596061706543,-3.045424461364746,0.3208230137825012,-17.6849365234375,-17.7154541015625,45.745849609375
1.3099999,-9.588777542114258,-3.112462282180786,0.3280056416988373,-16.326904296875,-16.4031982421875,43.9300537109375
1.3299999,-9.624691009521484,-3.071760892868042,0.42377370595932007,-15.13671875,-13.6260986328125,34.7900390625
1.3499999,-9.744400978088379,-3.0837318897247314,0.47644615173339844,-15.4266357421875,-13.763427734375,33.1573486328125
1.3699999,-9.835380554199219,-3.064578056335449,0.5650315880775452,-17.303466796875,-19.378662109375,39.1845703125
1.3899999,-9.880870819091797,-3.220201253890991,0.43335050344467163,-15.472412109375,-21.1639404296875,40.374755859375
1.4099999,-9.876082420349121,-3.315969467163086,0.2968810200691223,8.544921875,-27.1759033203125,37.0330810546875
1.4299998999999999,-9.816226959228516,-3.3925838470458984,0.15322890877723694,31.341552734375,-32.28759765625,38.9556884765625
1.4499999,-9.672574996948242,-3.2321722507476807,0.2298433631658554,27.52685546875,-30.0140380859375,39.7491455078125
1.4699999,-9.430760383605957,-2.8610711097717285,0.6344634294509888,10.040283203125,-18.2037353515625,33.4625244140625
1.4899999,-9.14345645904541,-2.3702597618103027,1.2425906658172607,-10.80322265625,-2.685546875,29.1595458984375
1.5099999,-8.877699851989746,-1.8842366933822632,1.845929503440857,-32.2265625,3.47900390625,31.6925048828125
1.5299999,-8.712499618530273,-1.4867992401123047,2.2816741466522217,-50.750732421875,6.9580078125,30.853271484375
1.5499999,-8.664615631103516,-1.2497732639312744,2.4660277366638184,-62.8509521484375,20.0042724609375,22.6287841796875
1.5699999,-8.746018409729004,-1.1635819673538208,2.3989901542663574,-68.7255859375,31.06689453125,17.7459716796875
1.5899999,-8.913613319396973,-1.216254472732544,2.121262788772583,-68.359375,32.7606201171875,18.280029296875
1.6099999,-9.095572471618652,-1.3958195447921753,1.6950948238372803,-60.5010986328125,31.4178466796875,16.143798828125
1.6299999,-9.289502143859863,-1.6112977266311646,1.2042834758758545,-47.088623046875,28.289794921875,14.4805908203125
1.6499999,-9.516951560974121,-1.7956513166427612,0.7493851184844971,-33.4930419921875,19.287109375,19.378662109375
1.6699999,-9.799467086791992,-1.8770540952682495,0.40701428055763245,-22.9339599609375,3.662109375,26.18408203125
1.6899998999999999,-10.11789608001709,-1.8291701078414917,0.24181437492370605,-14.9078369140625,-9.857177734375,26.7486572265625
1.7099999,-10.450690269470215,-1.6400281190872192,0.24899697303771973,-8.3465576171875,-10.92529296875,21.942138671875
1.7299999,-10.776301383972168,-1.0247182846069336,0.5554547905921936,-4.8370361328125,-7.110595703125,16.29638671875
1.7499999,-10.69489860534668,-0.7158663272857666,0.7158663272857666,-6.8511962890625,-7.8125,16.998291015625
1.7699999,-10.515334129333496,-0.4429273009300232,0.8379706144332886,-8.85009765625,-6.195068359375,21.1029052734375
1.7899999,-10.335768699645996,-0.21547815203666687,0.8954314589500427,-11.6424560546875,-2.3040771484375,24.9481201171875
1.8099999,-10.189722061157227,-0.05267243832349777,0.9145850539207458,-15.1519775390625,-1.7852783203125,22.52197265625
1.8299999,-10.096348762512207,0.05506663769483566,0.8882488012313843,-18.3258056640625,-0.79345703125,17.3187255859375
1.8499999,-10.029311180114746,0.090979665517807,0.828393816947937,-20.4620361328125,4.638671875,15.3045654296875
1.8699999,-10.012551307678223,0.05506663769483566,0.7469909191131592,-21.8505859375,8.9874267578125,17.1661376953125
1.8899999,-10.067618370056152,-0.035913024097681046,0.6488286852836609,-22.64404296875,8.8653564453125,14.434814453125
1.9099999,-10.180145263671875,-0.16519992053508759,0.5363011956214905,-22.308349609375,5.6304931640625,5.5084228515625
1.9299998999999999,-10.316615104675293,-0.3064578175544739,0.4165911078453064,-20.0958251953125,3.5552978515625,-0.213623046875
1.9499999,-10.38844108581543,-0.44532153010368347,0.2992752194404602,-16.571044921875,1.2969970703125,0.4119873046875
1.9699999,-10.321403503417969,-0.5722141861915588,0.1843535304069519,-12.2528076171875,-3.3721923828125,3.265380859375
1.9899999,-10.163386344909668,-0.6584054827690125,0.10055647045373917,-7.293701171875,-7.1258544921875,9.1705322265625
2.0099999,-9.99339771270752,-0.6799532771110535,0.05985504388809204,-3.2806396484375,-6.622314453125,15.6707763671875
2.0299999,-9.897629737854004,-0.6009446382522583,0.10055647045373917,-1.5716552734375,-5.126953125,15.899658203125
2.0499999,-9.892841339111328,-0.47644615173339844,0.18914192914962769,-3.1280517578125,-2.593994140625,8.270263671875
2.0699999,-9.986215591430664,-0.2801215946674347,0.3423708379268646,-6.1492919921875,0.91552734375,-0.48828125
2.0899999,-10.093954086303711,-0.12449848651885986,0.47884035110473633,-8.36181640625,9.4146728515625,-5.523681640625
2.1099999,-10.146626472473145,0.021547814831137657,0.689530074596405,-12.3748779296875,15.5029296875,-7.537841796875
2.1299999,-10.153809547424316,0.08379705995321274,0.8188169598579407,-24.6734619140625,23.9715576171875,-8.331298828125
2.1499999,-10.105925559997559,0.13407529890537262,0.9050082564353943,-35.2630615234375,29.1900634765625,-5.9356689453125
2.1699999,-10.036493301391602,0.06703764945268631,0.9026140570640564,-36.8499755859375,26.4739990234375,-0.91552734375
2.1899999,-9.998186111450195,0.021547814831137657,0.6631938815116882,-33.050537109375,21.8505859375,2.7923583984375
2.2099999,-9.976638793945312,-0.20111294090747833,0.31364041566848755,-23.712158203125,15.3045654296875,7.293701171875
2.2299999,-10.053253173828125,-0.33279404044151306,-0.07661445438861847,-8.880615234375,1.40380859375,12.4969482421875
2.2499999,-10.146626472473145,-0.5051765441894531,-0.42377370595932007,6.04248046875,-10.68115234375,10.6964111328125
2.2699999,-10.199298858642578,-0.5746083855628967,-0.5985504388809204,16.5863037109375,-16.0675048828125,5.035400390625
2.2899999,-10.20648193359375,-0.5482721924781799,-0.5626373887062073,22.15576171875,-14.5111083984375,4.150390625
2.3099999,-10.11789608001709,-0.3711012601852417,-0.3519476354122162,22.125244140625,-12.603759765625,6.011962890625
2.3299999,-9.998186111450195,-0.22026655077934265,-0.002394201699644327,16.876220703125,-10.7421875,5.8441162109375
2.3499999,-9.883264541625977,-0.009576806798577309,0.3447650372982025,10.07080078125,-6.2255859375,5.0048828125
2.3699999,-9.780313491821289,0.1364694982767105,0.7015010714530945,3.60107421875,-1.2664794921875,5.37109375
2.3899999,-9.794678688049316,0.14844051003456116,0.8571242094039917,-2.3651123046875,4.150390625,5.0048828125
2.4099999,-9.794678688049316,0.19153612852096558,0.9265560507774353,-6.3934326171875,6.0272216796875,2.2735595703125
2.4299999,-9.909601211547852,0.0454898327589035,0.7852981686592102,-6.77490234375,4.21142578125,0.0457763671875
2.4499999,-9.959878921508789,-0.009576806798577309,0.6847416758537292,-4.6234130859375,2.6092529296875,1.46484375
2.4699999,-10.070012092590332,-0.15801730751991272,0.42856210470199585,-2.197265625,0.6561279296875,3.082275390625
2.4899999,-10.096348762512207,-0.272938996553421,0.2992752194404602,0.335693359375,-4.5166015625,1.312255859375
2.5099999,-10.091560363769531,-0.3232172429561615,0.181959331035614,3.631591796875,-9.2926025390625,-0.1068115234375
2.5299999,-10.067618370056152,-0.3663128614425659,0.08619125932455063,7.1258544921875,-8.3160400390625,1.0833740234375
2.5499999,-9.96945571899414,-0.37828385829925537,0.0933738648891449,9.0484619140625,-3.5858154296875,1.40380859375
2.5699999,-9.919178009033203,-0.3016694188117981,0.17238251864910126,8.0108642578125,-2.5482177734375,1.922607421875
2.5899999,-9.897629737854004,-0.21547815203666687,0.26096799969673157,4.2572021484375,-7.049560546875,3.7078857421875
2.6099999,-9.945513725280762,-0.12928688526153564,0.40940847992897034,0.2288818359375,-7.7972412109375,2.471923828125
2.6299999,-9.964667320251465,-0.040701430290937424,0.49320554733276367,-0.8392333984375,2.13623046875,-2.960205078125
2.6499999,-10.019734382629395,-0.014365210197865963,0.47405192255973816,1.46484375,10.07080078125,-5.279541015625
2.6699999,-10.04846477508545,-0.040701430290937424,0.4357447028160095,4.3487548828125,5.0201416015625,-1.190185546875
2.6899999,-10.086771965026855,-0.07900865375995636,0.31364041566848755,7.080078125,-8.3465576171875,2.9754638671875
2.7099999,-10.089165687561035,-0.16759411990642548,0.17477671802043915,10.467529296875,-13.9007568359375,2.4871826171875
2.7299999,-10.187328338623047,-0.33758243918418884,-0.1149216815829277,27.52685546875,-17.63916015625,0.42724609375
2.7499999,-10.134655952453613,-0.37828385829925537,-0.22026655077934265,52.06298828125,-24.9786376953125,0.5340576171875
2.7699999,-10.091560363769531,-0.37828385829925537,-0.22744916379451752,53.741455078125,-26.092529296875,0.701904296875
2.7899999,-9.919178009033203,-0.17477671802043915,0.10534487664699554,37.2772216796875,-20.263671875,2.5787353515625
2.8099999,-9.68933391571045,0.12210428714752197,0.6703764796257019,16.54052734375,-10.9100341796875,7.568359375
2.8299999,-9.48343276977539,0.4165911078453064,1.2306196689605713,-2.4871826171875,-1.4495849609375,11.3525390625
2.8499999,-9.35893440246582,0.6224924325942993,1.6304513216018677,-16.5863037109375,7.14111328125,9.3536376953125
2.8699999,-9.327810287475586,0.6943184733390808,1.7860745191574097,-25.360107421875,15.167236328125,5.523681640625
2.8899999,-9.404424667358398,0.6416460275650024,1.702277421951294,-31.585693359375,17.1051025390625,7.4920654296875
2.9099999,-9.53849983215332,0.5003881454467773,1.45806884765625,-34.637451171875,13.153076171875,8.941650390625
2.9299999,-9.68694019317627,0.30885201692581177,1.1300631761550903,-33.14208984375,10.6658935546875,5.1116943359375
2.9499999,-9.821015357971191,0.1173158809542656,0.7972691655158997,-28.7933349609375,9.3994140625,2.7618408203125
2.9699999,-9.916783332824707,-0.040701430290937424,0.5147533416748047,-23.406982421875,6.40869140625,4.57763671875
2.9899999,-9.950302124023438,-0.14604631066322327,0.3232172429561615,-17.1356201171875,2.4261474609375,5.55419921875
3.0099999,-9.926360130310059,-0.1867477297782898,0.2346317619085312,-11.505126953125,-1.251220703125,5.1727294921875
3.0299999,-9.873687744140625,-0.15322890877723694,0.24420857429504395,-8.6517333984375,-4.7454833984375,7.7972412109375
3.0499999,-9.818621635437012,-0.0454898327589035,0.3423708379268646,-8.4075927734375,-4.5928955078125,9.5367431640625
3.0699999,-9.765948295593262,0.0933738648891449,0.4812345504760742,-9.552001953125,1.983642578125,4.69970703125
3.0899999,-9.758766174316406,0.22026655077934265,0.6224924325942993,-11.7950439453125,7.6751708984375,0.823974609375
3.1099999,-9.782708168029785,0.304063618183136,0.7158663272857666,-14.09912109375,5.6915283203125,3.875732421875
3.1299999,-9.81143856048584,0.3064578175544739,0.7422025203704834,-14.1448974609375,0.3814697265625,7.4310302734375
3.1499999,-9.873687744140625,0.2585737705230713,0.7110779285430908,-11.5509033203125,2.8839111328125,6.40869140625
3.1699999,-9.959878921508789,0.19393034279346466,0.6536170840263367,-8.697509765625,5.9051513671875,4.45556640625
3.1899999,-10.046070098876953,0.14844051003456116,0.5985504388809204,-8.1939697265625,0.1373291015625,4.94384765625
3.2099999,-10.129867553710938,0.12928688526153564,0.5578489899635315,-8.6669921875,-3.9825439453125,5.5389404296875
3.2299999,-10.165780067443848,0.13168109953403473,0.5219359993934631,-7.7667236328125,0.091552734375,3.41796875
3.2499999,-10.153809547424316,0.14604631066322327,0.4908113479614258,-5.615234375,2.685546875,1.64794921875
3.2699999,-10.139444351196289,0.17477671802043915,0.4572925269603729,-3.9215087890625,2.1514892578125,2.62451171875
3.2899999,-10.11550235748291,0.2059013396501541,0.42377370595932007,-2.8839111328125,1.3885498046875,2.6397705078125
3.3099999,-10.062829971313477,0.23702596127986908,0.4118026793003082,-2.227783203125,-0.518798828125,2.716064453125
3.3299999000000002,-10.014945983886719,0.2753331959247589,0.4213795065879822,-1.7852783203125,0.457763671875,7.049560546875
3.3499999,-9.981427192687988,0.31842881441116333,0.4429273009300232,-1.7547607421875,3.875732421875,10.3302001953125
3.3699999,-9.981427192687988,0.3758896589279175,0.4812345504760742,-1.5716552734375,3.0975341796875,6.9427490234375
3.3899999,-9.988609313964844,0.4357447028160095,0.5147533416748047,-1.4495849609375,-1.007080078125,2.8839111328125
3.4099999,-9.979032516479492,0.4836287498474121,0.545877993106842,-1.6326904296875,-3.204345703125,6.103515625
3.4299999,-9.95748519897461,0.5171475410461426,0.5674257874488831,-1.15966796875,0.762939453125,10.8184814453125
3.4499999,-10.096348762512207,0.5506663918495178,0.5913678407669067,0.3509521484375,2.9449462890625,8.0718994140625
3.4699999,-10.02452278137207,0.5650315880775452,0.5913678407669067,0.6561279296875,-4.2266845703125,-0.762939453125
3.4899999,-10.302249908447266,0.5961562395095825,0.6033388376235962,-0.2288818359375,-5.3863525390625,5.1422119140625
3.5099999,-10.268731117248535,0.6200982332229614,0.5841852426528931,-1.3275146484375,-2.9296875,6.6680908203125
3.5299999,-10.287884712219238,0.6392518281936646,0.5650315880775452,-3.2196044921875,-3.4332275390625,6.927490234375
3.5499999,-10.218452453613281,0.6248866319656372,0.524330198764801,-2.532958984375,-4.1656494140625,6.7291259765625
3.5699999,-10.096348762512207,0.5674257874488831,0.47644615173339844,2.3956298828125,-6.0882568359375,6.622314453125
3.5899999,-9.988609313964844,0.4692635238170624,0.42616790533065796,9.27734375,-8.30078125,7.843017578125
3.6099999,-9.919178009033203,0.3902548849582672,0.4381389021873474,14.373779296875,-10.1776123046875,9.490966796875
3.6299999,-9.8784761428833,0.3758896589279175,0.5291185975074768,13.9007568359375,-9.9029541015625,10.528564453125
3.6499999,-9.859322547912598,0.47644615173339844,0.646434485912323,9.3994140625,-7.7667236328125,10.8795166015625
3.6699999,-9.852140426635742,0.6847416758537292,0.7924807667732239,5.126953125,-6.2408447265625,10.2996826171875
3.6899999,-9.837775230407715,0.9840168952941895,0.9409212470054626,0.823974609375,-5.4779052734375,8.6669921875
3.7099999,-9.825803756713867,1.2761094570159912,1.0199298858642578,-4.82177734375,-3.143310546875,5.2947998046875
3.7299999,-9.81143856048584,1.4484920501708984,1.039083480834961,-8.0108642578125,-1.5106201171875,1.2359619140625
3.7499999,-9.80904483795166,1.4939818382263184,1.0654197931289673,-7.3699951171875,-1.8463134765625,-0.091552734375
3.7699999,-9.801861763000488,1.3910311460494995,1.0797849893569946,-6.16455078125,-0.8697509765625,1.0223388671875
3.7899999,-9.84256362915039,1.1851298809051514,1.1085153818130493,-5.5694580078125,1.9073486328125,0.2593994140625
3.8099999,-9.84256362915039,0.9648633003234863,1.1420341730117798,-6.3629150390625,3.2501220703125,0.91552734375
3.8299999000000002,-9.859322547912598,0.8307880163192749,1.2018892765045166,-10.162353515625,3.84521484375,3.448486328125
3.8499999,-9.765948295593262,0.8379706144332886,1.2713210582733154,-15.106201171875,5.9356689453125,3.4942626953125
3.8699999,-9.787496566772461,0.8619126081466675,1.1994950771331787,-16.9830322265625,8.9569091796875,-0.335693359375
3.8899999,-9.823410034179688,0.8978256583213806,1.1085153818130493,-11.5203857421875,7.6904296875,-3.0670166015625
3.9099999,-9.904812812805176,0.8738836050033569,0.8858546018600464,-6.072998046875,1.220703125,-2.532958984375
3.9299999,-9.86650562286377,0.8906430602073669,0.7326257228851318,-5.79833984375,3.570556640625,-2.0904541015625
3.9499999,-9.967061996459961,0.8930372595787048,0.5913678407669067,-4.3792724609375,12.2528076171875,0.457763671875
3.9699999,-9.93354320526123,0.9002198576927185,0.44771572947502136,0.1220703125,4.94384765625,3.7078857421875
3.9899999,-10.012551307678223,0.8547300100326538,0.40222588181495667,0.1678466796875,-3.4942626953125,6.2103271484375
4.0099999,-9.998186111450195,0.768538773059845,0.33997663855552673,-7.32421875,-5.5999755859375,3.2958984375
4.029999900000001,-10.134655952453613,0.6991068720817566,0.2753331959247589,-3.7689208984375,-6.5155029296875,1.5716552734375
4.0499999,-10.017339706420898,0.7110779285430908,0.2346317619085312,14.3585205078125,-10.6048583984375,-3.5552978515625
4.069999900000001,-10.04846477508545,0.8667010068893433,0.2106897532939911,26.4129638671875,-10.528564453125,-5.92041015625
4.0899999000000005,-9.974244117736816,1.01753568649292,0.3064578175544739,27.52685546875,-10.6964111328125,-2.716064453125
4.1099999,-9.871294021606445,1.3096283674240112,0.7469909191131592,19.3634033203125,-11.5966796875,-0.2288818359375
4.1299999000000005,-9.739612579345703,1.5682021379470825,1.3192051649093628,-4.3792724609375,1.8310546875,-4.119873046875
4.1499999,-9.708487510681152,1.6376339197158813,1.8387469053268433,-22.552490234375,10.9100341796875,-7.2784423828125
4.1699999000000005,-9.627084732055664,1.50355863571167,2.1787235736846924,-19.0887451171875,10.8642578125,-12.3291015625
4.1899999,-9.519346237182617,1.161187767982483,2.1284453868865967,-13.824462890625,19.500732421875,-10.4827880859375
4.209999900000001,-9.682151794433594,0.7038952708244324,1.7573440074920654,-11.41357421875,29.327392578125,-2.1820068359375
4.2299999,-9.775525093078613,0.2753331959247589,1.1013327836990356,4.94384765625,15.8843994140625,4.33349609375
4.249999900000001,-9.998186111450195,0.14604631066322327,0.44532153010368347,26.092529296875,-1.6632080078125,3.4942626953125
4.2699999,-10.177751541137695,0.17717093229293823,-0.033518824726343155,29.5562744140625,-2.685546875,0.091552734375
4.289999900000001,-10.139444351196289,0.3687070608139038,-0.1412578970193863,20.3704833984375,-1.220703125,-2.960205078125
4.3099999,-10.036493301391602,0.6703764796257019,0.06224924325942993,8.6517333984375,1.1138916015625,-5.7525634765625
4.329999900000001,-9.86889934539795,0.9217676520347595,0.3974374830722809,-3.0975341796875,9.5672607421875,-3.021240234375
4.3499999,-9.816226959228516,1.0869675874710083,0.6991068720817566,-11.16943359375,17.242431640625,3.9520263671875
4.369999900000001,-9.677363395690918,1.3024457693099976,0.7924807667732239,-14.5416259765625,12.5732421875,2.7008056640625
4.3899999,-9.730035781860352,1.2952631711959839,0.7398083209991455,-14.1143798828125,7.720947265625,-3.84521484375
4.409999900000001,-9.691728591918945,1.137245774269104,0.40940847992897034,-3.143310546875,0.1678466796875,-6.9122314453125
4.4299999,-9.840168952941895,0.8212111592292786,0.10773907601833344,15.3656005859375,-6.3629150390625,-8.209228515625
4.449999900000001,-10.02452278137207,0.4692635238170624,-0.2106897532939911,19.500732421875,-6.65283203125,-8.270263671875
4.4699999,-10.345345497131348,0.24660277366638184,-0.2825157940387726,11.9476318359375,-5.645751953125,2.7008056640625
4.489999900000001,-10.481815338134766,0.21308395266532898,-0.07182604819536209,8.8653564453125,-12.1307373046875,14.9383544921875
4.5099999,-10.625467300415039,0.3423708379268646,0.27054479718208313,1.220703125,-9.4757080078125,10.80322265625
4.529999900000001,-10.575188636779785,0.6703764796257019,0.6177040338516235,-4.8828125,-8.85009765625,1.6937255859375
4.5499999,-10.302249908447266,1.0773907899856567,0.8858546018600464,0.1983642578125,-13.0615234375,-2.349853515625
4.569999900000001,-9.99339771270752,1.400607943534851,1.0342950820922852,0.762939453125,-6.317138671875,-4.82177734375
4.5899999000000005,-9.567230224609375,1.647210717201233,1.1228805780410767,-5.340576171875,4.547119140625,-14.434814453125
4.609999900000001,-9.306262016296387,1.577778935432434,1.259350061416626,-5.859375,8.85009765625,-10.6964111328125
4.6299999000000005,-9.193734169006348,1.2665326595306396,1.403002142906189,-3.4332275390625,6.40869140625,-1.2969970703125
4.6499999,-9.375694274902344,0.7948749661445618,1.3694833517074585,-3.448486328125,10.0250244140625,-2.44140625
4.6699999000000005,-9.634267807006836,0.35673606395721436,1.1276689767837524,4.1656494140625,4.5623779296875,-5.8441162109375
4.6899999,-9.871294021606445,0.043095629662275314,0.6991068720817566,16.3726806640625,-0.48828125,-6.134033203125
4.709999900000001,-10.046070098876953,0.028730420395731926,0.28730419278144836,17.120361328125,2.5787353515625,-2.3956298828125
4.7299999,-10.18493366241455,0.2585737705230713,-0.06703764945268631,7.110595703125,0.9918212890625,0.4425048828125
4.749999900000001,-10.144232749938965,0.6560112833976746,-0.0933738648891449,1.861572265625,-7.3089599609375,3.0670166015625
4.7699999,-10.170568466186523,0.9672574996948242,-0.090979665517807,-1.2359619140625,-8.6212158203125,0.213623046875
4.789999900000001,-10.093954086303711,1.1180921792984009,0.11252748221158981,3.2196044921875,-13.519287109375,-6.4849853515625
4.8099999,-9.99100399017334,1.0678139925003052,0.33039984107017517,6.5460205078125,-18.6004638671875,-9.9029541015625
4.829999900000001,-9.84495735168457,0.8571242094039917,0.5746083855628967,-0.1983642578125,-9.2620849609375,-6.591796875
4.8499999,-9.792284965515137,0.7326257228851318,0.8259995579719543,-9.8876953125,2.99072265625,-3.4942626953125
4.869999900000001,-9.775525093078613,0.5578489899635315,0.9864110946655273,-11.993408203125,-2.2430419921875,2.3956298828125
4.8899999,-9.835380554199219,0.48602294921875,0.9888052940368652,-7.4005126953125,-12.6190185546875,6.2408447265625
4.909999900000001,-9.976638793945312,0.3256114423274994,0.7948749661445618,3.9825439453125,-12.0391845703125,0.4730224609375
4.9299999,-10.065223693847656,0.23942017555236816,0.6440402865409851,21.1639404296875,-17.5018310546875,-4.6844482421875
4.949999900000001,-10.036493301391602,0.12689268589019775,0.5722141861915588,30.33447265625,-20.5535888671875,-2.4871826171875
4.9699999,-10.019734382629395,0.20111294090747833,0.7015010714530945,27.374267578125,-13.946533203125,1.1749267578125
4.989999900000001,-9.919178009033203,0.42616790533065796,1.0055646896362305,15.1214599609375,-4.913330078125,4.5928955078125
5.0099999,-9.801861763000488,0.7445967197418213,1.5275006294250488,-4.21142578125,-4.608154296875,9.0484619140625
5.029999900000001,-9.660603523254395,1.1348515748977661,1.9704279899597168,-23.1170654296875,1.800537109375,6.1798095703125
5.0499999,-9.591172218322754,1.3934253454208374,2.403778553009033,-33.9813232421875,12.1917724609375,-0.823974609375
5.069999900000001,-9.533711433410645,1.4508862495422363,2.454056739807129,-35.2630615234375,18.4478759765625,-7.2784423828125
5.0899999000000005,-9.5408935546875,1.2952631711959839,2.161964178085327,-27.9541015625,22.1710205078125,-7.5225830078125
5.109999900000001,-9.72285270690918,1.0103530883789062,1.4963760375976562,-14.16015625,20.32470703125,-4.302978515625
5.1299999000000005,-9.890447616577148,0.6919242739677429,0.689530074596405,6.0882568359375,7.3394775390625,0
5.1499999,-10.053253173828125,0.43095630407333374,0.004788403399288654,21.881103515625,-6.8511962890625,-1.0223388671875
5.1699999000000005,-10.189722061157227,0.2801215946674347,-0.3519476354122162,27.3590087890625,-13.6566162109375,-5.43212890625
5.1899999,-10.144232749938965,0.2825157940387726,-0.2777273952960968,26.8402099609375,-16.082763671875,-8.4075927734375
5.209999900000001,-10.06043529510498,0.3998316824436188,0.19153612852096558,17.15087890625,-8.514404296875,-9.2620849609375
5.2299999,-9.938331604003906,0.586579442024231,0.751779317855835,1.9073486328125,3.3111572265625,-7.7056884765625
5.249999900000001,-9.8784761428833,0.7709329724311829,1.2880805730819702,-7.1563720703125,8.8958740234375,-1.739501953125
5.2699999,-9.770736694335938,0.8882488012313843,1.6328455209732056,-11.871337890625,3.90625,1.03759765625
5.289999900000001,-9.828198432922363,0.8595184087753296,1.6065093278884888,-13.5498046875,2.838134765625,-1.953125
5.3099999,-9.782708168029785,0.7134721279144287,1.4772224426269531,-4.1656494140625,1.2664794921875,-6.439208984375
5.329999900000001,-9.77791976928711,0.5267243981361389,1.3407529592514038,2.838134765625,0.2288818359375,-6.4697265625
5.3499999,-9.782708168029785,0.33758243918418884,1.194706678390503,-6.103515625,6.2713623046875,-5.767822265625
5.369999900000001,-9.830592155456543,0.23942017555236816,1.1348515748977661,-16.41845703125,18.6309814453125,1.6021728515625
5.3899999,-10.000580787658691,0.22505496442317963,0.8068459630012512,-7.6141357421875,2.62451171875,5.523681640625
5.409999900000001,-10.096348762512207,0.33039984107017517,0.5650315880775452,5.2490234375,-2.044677734375,2.8839111328125
5.4299999,-10.036493301391602,0.5363011956214905,0.4668693244457245,5.3558349609375,-4.302978515625,-1.6021728515625
5.449999900000001,-9.928754806518555,0.6799532771110535,0.4429273009300232,-3.0059814453125,0.4119873046875,-7.8582763671875
5.4699999,-9.909601211547852,0.7661445140838623,0.4836287498474121,-0.0762939453125,2.044677734375,-5.6915283203125
5.489999900000001,-9.959878921508789,0.7757213711738586,0.49799394607543945,5.7525634765625,1.8463134765625,-0.6103515625
5.5099999,-10.02691650390625,0.6584054827690125,0.35913026332855225,10.43701171875,-10.345458984375,0.6256103515625
5.529999900000001,-10.120290756225586,0.569819986820221,0.31842881441116333,19.4854736328125,-17.730712890625,-3.7841796875
5.5499999,-10.196905136108398,0.5123591423034668,0.42377370595932007,27.008056640625,-17.1051025390625,-4.4403076171875
5.569999900000001,-10.072406768798828,0.47165772318840027,0.6967126727104187,21.6522216796875,-14.7705078125,-6.317138671875
5.5899999000000005,-9.998186111450195,0.5267243981361389,1.0773907899856567,9.0484619140625,-6.5765380859375,-7.4462890625
5.609999900000001,-9.864110946655273,0.47884035110473633,1.3239935636520386,8.1939697265625,1.0223388671875,-6.195068359375
5.6299999000000005,-9.84256362915039,0.5506663918495178,1.3982137441635132,28.0914306640625,-5.615234375,-3.5552978515625
5.6499999,-9.806650161743164,0.5554547905921936,1.4269442558288574,33.5235595703125,-9.490966796875,-5.4473876953125
5.6699999000000005,-9.773131370544434,0.6607996821403503,1.4700398445129395,17.730712890625,-2.8839111328125,-8.4686279296875
5.6899999,-9.739612579345703,0.7757213711738586,1.6759412288665771,0.8544921875,8.8958740234375,-6.439208984375
5.709999900000001,-9.775525093078613,0.7972691655158997,1.886630892753601,-9.4146728515625,13.7786865234375,-0.8087158203125
5.7299999,-10.08198356628418,0.6823474764823914,1.9273324012756348,-12.298583984375,13.5650634765625,-2.044677734375
5.749999900000001,-10.41956615447998,0.5386953949928284,1.721431016921997,-7.0953369140625,16.3421630859375,-6.317138671875
5.7699999,-10.876858711242676,0.4381389021873474,1.2880805730819702,2.3345947265625,16.693115234375,-0.732421875
5.789999900000001,-11.171344757080078,0.45489832758903503,0.7374141216278076,11.688232421875,8.5906982421875,0.18310546875
5.8099999,-11.238382339477539,0.6009446382522583,0.2346317619085312,18.6767578125,-2.2735595703125,-7.3089599609375
5.829999900000001,-11.051634788513184,0.8164227604866028,-0.10055647045373917,22.735595703125,-3.11279296875,-14.2669677734375
5.8499999,-10.596736907958984,0.9864110946655273,-0.2082955539226532,21.91162109375,5.1422119140625,-14.1754150390625
5.869999900000001,-10.012551307678223,1.048660397529602,-0.12449848651885986,15.7928466796875,14.2974853515625,-7.049560546875
5.8899999,-9.478644371032715,0.9672574996948242,0.07422025501728058,9.521484375,15.1824951171875,-2.38037109375
5.909999900000001,-9.07641887664795,0.7398083209991455,0.2944868206977844,6.0272216796875,9.8419189453125,-4.5166015625
5.9299999,-8.829815864562988,0.40701428055763245,0.4644751250743866,4.5013427734375,7.843017578125,-5.0811767578125
5.949999900000001,-8.734047889709473,0.05746084079146385,0.5602431893348694,5.6915283203125,12.542724609375,-0.2899169921875
5.9699999,-8.719682693481445,-0.23942017555236816,0.5770025849342346,9.979248046875,16.0369873046875,1.1138916015625
5.989999900000001,-8.769960403442383,-0.4165911078453064,0.5530605912208557,14.404296875,10.4827880859375,1.3427734375
6.0099999,-8.908824920654297,-0.45250412821769714,0.524330198764801,15.44189453125,1.6632080078125,7.3089599609375
6.029999900000001,-9.064447402954102,-0.35913026332855225,0.5386953949928284,14.3585205078125,-4.5623779296875,11.7340087890625
6.0499999,-9.186552047729492,-0.2106897532939911,0.6320692300796509,12.603759765625,-6.0272216796875,9.7503662109375
6.069999900000001,-9.318233489990234,-0.05027823522686958,0.7757213711738586,8.758544921875,-1.251220703125,10.3607177734375
6.0899999000000005,-9.469067573547363,0.10773907601833344,0.9409212470054626,4.1961669921875,5.3863525390625,12.9547119140625
6.109999900000001,-9.658209800720215,0.24181437492370605,1.0773907899856567,0.3662109375,10.1776123046875,9.1400146484375
6.1299999000000005,-9.885659217834473,0.31842881441116333,1.1324573755264282,-3.47900390625,9.2620849609375,3.35693359375
6.149999900000001,-10.146626472473145,0.3519476354122162,1.1013327836990356,-5.7373046875,0.2899169921875,4.1656494140625
6.1699999000000005,-10.345345497131348,0.3280056416988373,1.015141487121582,-4.8828125,-5.615234375,5.67626953125
6.1899999,-10.462661743164062,0.2801215946674347,0.8786720037460327,-2.9296875,2.44140625,0.579833984375
6.209999900000001,-10.496180534362793,0.2513911724090576,0.7422025203704834,-1.617431640625,10.7574462890625,-4.638671875
6.2299999,-10.47702693939209,0.24899697303771973,0.5961562395095825,-0.42724609375,9.002685546875,-3.4637451171875
6.249999900000001,-10.424354553222656,0.2753331959247589,0.47644615173339844,2.2125244140625,-0.9918212890625,1.1444091796875
6.2699999,-10.347740173339844,0.3064578175544739,0.40222588181495667,4.7454833984375,-7.3394775390625,2.9754638671875
6.289999900000001,-10.273519515991211,0.3256114423274994,0.3974374830722809,5.401611328125,-7.5531005859375,2.0599365234375
6.3099999,-10.287884712219238,0.38067805767059326,0.4812345504760742,4.4097900390625,-7.0648193359375,-1.1138916015625
6.329999900000001,-10.283096313476562,0.4189853072166443,0.6200982332229614,1.800537109375,-7.1258544921875,-10.43701171875
6.3499999,-10.256759643554688,0.45010992884635925,0.7733271718025208,-2.0294189453125,-3.3721923828125,-15.93017578125
6.369999900000001,-10.120290756225586,0.45250412821769714,0.8762778043746948,-4.7607421875,3.7078857421875,-10.43701171875
6.3899999,-9.837775230407715,0.4141969084739685,0.8882488012313843,-4.8675537109375,3.509521484375,-0.9613037109375
6.409999900000001,-9.488221168518066,0.37828385829925537,0.8092401623725891,-3.47900390625,-2.6397705078125,6.1492919921875
6.4299999,-9.2033109664917,0.3902548849582672,0.6991068720817566,-2.13623046875,-2.8533935546875,9.185791015625
6.449999900000001,-9.428366661071777,0.4429273009300232,0.6392518281936646,-2.5787353515625,2.0294189453125,4.8675537109375
6.4699999,-9.703699111938477,0.5626373887062073,0.5410895943641663,-3.9520263671875,-3.6468505859375,-4.21142578125
6.489999900000001,-10.194510459899902,0.6631938815116882,0.49799394607543945,-1.64794921875,-3.1585693359375,4.547119140625
6.5099999,-10.462661743164062,0.7374141216278076,0.42856210470199585,0.3509521484375,-5.126953125,3.1585693359375
6.529999900000001,-10.433931350708008,0.7086837291717529,0.3471592366695404,0.946044921875,-6.9580078125,-1.1444091796875
6.5499999,-10.268731117248535,0.6153098344802856,0.2992752194404602,3.2958984375,-8.3770751953125,-0.1983642578125
6.569999900000001,-10.110713958740234,0.49799394607543945,0.33758243918418884,5.2337646484375,-11.23046875,1.6021728515625
6.5899999000000005,-10.005369186401367,0.4118026793003082,0.43335050344467163,-0.1678466796875,-11.322021484375,2.6092529296875
6.609999900000001,-9.926360130310059,0.4189853072166443,0.5650315880775452,-7.965087890625,-8.8348388671875,3.3721923828125
6.6299999000000005,-9.885659217834473,0.5219359993934631,0.7565677165985107,-10.5133056640625,-8.5296630859375,2.044677734375
6.649999900000001,-9.830592155456543,0.6153098344802856,0.9385270476341248,-12.420654296875,-8.514404296875,0.6561279296875
6.6699999000000005,-9.787496566772461,0.706289529800415,1.1180921792984009,-17.1356201171875,-5.2947998046875,0.9765625
6.6899999,-9.75637149810791,0.7709329724311829,1.2976573705673218,-23.4222412109375,-2.50244140625,1.434326171875
6.709999900000001,-9.794678688049316,0.7038952708244324,1.400607943534851,-29.205322265625,0.6866455078125,0.8544921875
6.7299999,-9.830592155456543,0.730231523513794,1.3694833517074585,-28.25927734375,-0.4119873046875,2.62451171875
6.749999900000001,-9.888052940368652,0.5554547905921936,1.213860273361206,-23.345947265625,-3.7078857421875,1.9073486328125
6.7699999,-10.036493301391602,0.3687070608139038,0.8427590131759644,-9.3841552734375,-9.5672607421875,1.4801025390625
6.789999900000001,-10.046070098876953,0.12928688526153564,0.6105214357376099,10.101318359375,-17.5933837890625,-3.631591796875
6.8099999,-9.995792388916016,-0.038307227194309235,0.33997663855552673,20.4010009765625,-18.2952880859375,-5.9814453125
6.829999900000001,-10.072406768798828,-0.031124621629714966,0.40462008118629456,21.42333984375,-9.4757080078125,1.6021728515625
6.8499999,-9.95748519897461,0.12928688526153564,0.5147533416748047,16.6168212890625,-13.3209228515625,8.056640625
6.869999900000001,-9.806650161743164,0.43095630407333374,0.9169792532920837,5.7220458984375,-18.4173583984375,6.561279296875
6.8899999,-9.931148529052734,0.6200982332229614,1.1444283723831177,1.129150390625,-15.80810546875,3.7384033203125
6.909999900000001,-9.730035781860352,0.7709329724311829,1.5634137392044067,3.23486328125,-13.885498046875,-7.7056884765625
6.9299999,-9.725247383117676,0.9552865028381348,1.800439715385437,2.593994140625,-0.6561279296875,-5.4473876953125
6.949999900000001,-9.794678688049316,0.9481038451194763,2.166752576828003,-3.5247802734375,8.11767578125,5.37109375
6.9699999,-9.560047149658203,0.993593692779541,2.499546527862549,-15.31982421875,10.3302001953125,3.2806396484375
6.989999900000001,-9.691728591918945,0.8164227604866028,2.5929205417633057,-21.2554931640625,14.0228271484375,0.5950927734375
7.0099999,-9.610325813293457,0.5386953949928284,2.765302896499634,-14.4195556640625,21.2554931640625,-2.8839111328125
7.029999900000001,-9.521739959716797,0.43095630407333374,2.7269957065582275,-17.486572265625,34.36279296875,-1.312255859375
7.0499999,-9.718064308166504,0.40940847992897034,2.4803929328918457,-28.50341796875,47.91259765625,10.955810546875
7.069999900000001,-9.552865028381348,0.6584054827690125,2.188300371170044,-32.6995849609375,43.243408203125,5.340576171875
7.0899999000000005,-9.739612579345703,0.9600749015808105,1.5969325304031372,-31.8450927734375,40.8935546875,-1.8768310546875
7.109999900000001,-9.84495735168457,1.0223240852355957,0.7613561153411865,-22.2930908203125,32.5469970703125,-6.683349609375
7.1299999000000005,-9.873687744140625,1.0079588890075684,0.10295066982507706,-6.6070556640625,30.181884765625,-17.6544189453125
7.149999900000001,-10.070012092590332,0.7613561153411865,-0.6631938815116882,4.2266845703125,25.9857177734375,-8.1939697265625
7.1699999000000005,-10.103530883789062,0.4118026793003082,-1.05105459690094,11.29150390625,12.237548828125,0
7.1899999,-10.314221382141113,0.14365209639072418,-1.1635819673538208,14.0533447265625,0.8697509765625,-5.37109375
7.209999900000001,-10.36449909210205,-0.22744916379451752,-1.2449848651885986,13.5040283203125,-5.79833984375,-0.6256103515625
7.2299999,-10.345345497131348,-0.4620809257030487,-0.9433154463768005,18.157958984375,-7.0648193359375,-1.9683837890625
7.249999900000001,-10.295066833496094,-0.507570743560791,-0.7613561153411865,22.7508544921875,-5.7525634765625,5.7220458984375
7.2699999,-10.072406768798828,-0.395043283700943,-0.45489832758903503,23.101806640625,-12.054443359375,15.5487060546875
7.289999900000001,-10.005369186401367,-0.08858546614646912,-0.17238251864910126,22.674560546875,-21.1639404296875,11.962890625
7.3099999,-9.959878921508789,0.24181437492370605,0.12210428714752197,17.9290771484375,-21.0113525390625,10.8642578125
7.329999900000001,-9.854534149169922,0.5363011956214905,0.5961562395095825,8.0413818359375,-17.9290771484375,4.1046142578125
7.3499999,-9.785101890563965,0.8978256583213806,0.9528923034667969,-6.1492919921875,-1.556396484375,5.859375
7.369999900000001,-9.744400978088379,1.1228805780410767,1.3192051649093628,-17.181396484375,7.50732421875,10.9710693359375
7.3899999,-9.655815124511719,1.4053963422775269,1.601720929145813,-20.6146240234375,-2.13623046875,8.0413818359375
7.409999900000001,-9.801861763000488,1.4293384552001953,1.5322890281677246,-21.392822265625,4.2724609375,4.1961669921875
7.4299999,-9.758766174316406,1.316810965538025,1.4700398445129395,-18.157958984375,6.0882568359375,-7.843017578125
7.449999900000001,-9.852140426635742,1.072602391242981,1.0462661981582642,-9.429931640625,7.4920654296875,-7.659912109375
7.4699999,-9.926360130310059,0.730231523513794,0.7589619159698486,-2.3651123046875,12.2528076171875,0.7781982421875
7.489999900000001,-9.950302124023438,0.5003881454467773,0.4620809257030487,-1.2664794921875,-0.5035400390625,4.21142578125
7.5099999,-10.08437728881836,0.24899697303771973,0.30885201692581177,-4.57763671875,-0.0762939453125,6.7901611328125
7.529999900000001,-10.086771965026855,0.1604115068912506,0.27054479718208313,-1.220703125,0.7171630859375,1.800537109375
7.5499999,-10.02452278137207,0.11013327538967133,0.2801215946674347,7.14111328125,-3.7994384765625,-2.3345947265625
7.569999900000001,-9.964667320251465,0.2849099934101105,0.26336219906806946,12.054443359375,4.8828125,6.2408447265625
7.5899999000000005,-9.919178009033203,0.507570743560791,0.3423708379268646,11.260986328125,2.960205078125,8.7738037109375
7.609999900000001,-9.876082420349121,0.9193734526634216,0.5099649429321289,1.1749267578125,-5.37109375,4.3182373046875
7.6299999000000005,-9.880870819091797,1.1659762859344482,0.6129156351089478,-9.613037109375,-0.79345703125,-1.495361328125
7.649999900000001,-9.773131370544434,1.4724340438842773,0.7972691655158997,-9.979248046875,3.9520263671875,-12.0697021484375
7.6699999000000005,-9.739612579345703,1.357512354850769,0.7541735172271729,-8.7432861328125,9.490966796875,-10.9710693359375
7.6899999,-9.701305389404297,1.2473790645599365,0.6440402865409851,-5.2947998046875,11.4593505859375,-3.2806396484375
7.709999900000001,-9.725247383117676,0.8786720037460327,0.6177040338516235,-2.74658203125,-0.274658203125,-0.579833984375
7.7299999,-9.883264541625977,0.5099649429321289,0.5099649429321289,-3.326416015625,-1.617431640625,-0.6103515625
7.749999900000001,-9.981427192687988,0.1364694982767105,0.6248866319656372,-2.5787353515625,3.387451171875,-3.47900390625
7.7699999,-10.098742485046387,-0.06703764945268631,0.5363011956214905,-1.77001953125,7.2479248046875,-0.9918212890625
7.789999900000001,-10.228029251098633,-0.090979665517807,0.3734954595565796,1.800537109375,9.1552734375,8.3465576171875
7.8099999,-10.20648193359375,0.16519992053508759,0.06703764945268631,6.256103515625,-3.814697265625,13.3056640625
7.829999900000001,-10.429142951965332,0.4836287498474121,-0.2849099934101105,5.4779052734375,-14.7857666015625,4.7454833984375
7.8499999,-10.395624160766602,0.9026140570640564,-0.4572925269603729,8.209228515625,-19.744873046875,-5.0048828125
7.869999900000001,-10.529699325561523,1.0582371950149536,-0.4357447028160095,11.16943359375,-20.69091796875,-8.0718994140625
7.8899999,-10.374075889587402,1.2497732639312744,-0.15562310814857483,11.962890625,-15.7012939453125,-6.1187744140625
7.909999900000001,-10.072406768798828,1.2018892765045166,0.22026655077934265,8.7127685546875,-14.22119140625,1.8157958984375
7.9299999,-9.732429504394531,1.0893617868423462,0.7350199222564697,1.0833740234375,-18.707275390625,-0.9765625
7.949999900000001,-9.459490776062012,0.9074024558067322,1.1109095811843872,0.6256103515625,-16.6473388671875,-7.8125
7.9699999,-9.330204010009766,0.5291185975074768,1.4628572463989258,-0.5645751953125,-9.307861328125,-5.0506591796875
7.989999900000001,-9.41639518737793,0.29209262132644653,1.5705963373184204,-1.52587890625,0.5340576171875,-0.8392333984375
8.0099999,-9.672574996948242,0.11971008777618408,1.6663644313812256,-0.2288818359375,5.0506591796875,7.171630859375
8.0299999,-9.744400978088379,0.1412578970193863,1.436521053314209,0.3662109375,-5.523681640625,13.6566162109375
8.049999900000001,-10.086771965026855,0.28730419278144836,1.280897855758667,6.34765625,-6.34765625,5.92041015625
8.069999900000001,-9.99339771270752,0.5530605912208557,1.0247182846069336,6.9427490234375,-7.2174072265625,-2.4871826171875
8.0899999,-9.950302124023438,0.768538773059845,0.8762778043746948,3.6468505859375,-1.434326171875,-1.953125
8.1099999,-9.840168952941895,1.0462661981582642,1.0247182846069336,-0.2593994140625,9.94873046875,0.335693359375
8.129999900000001,-9.744400978088379,1.1683704853057861,1.1755530834197998,-11.3525390625,5.06591796875,6.4544677734375
8.149999900000001,-9.66539192199707,1.3503297567367554,1.558625340461731,-16.4031982421875,7.50732421875,0.30517578125
8.1699999,-9.703699111938477,1.3215993642807007,1.6903064250946045,-16.326904296875,16.0675048828125,-8.270263671875
8.1899999,-9.672574996948242,1.2234370708465576,1.7190368175506592,-21.5301513671875,19.134521484375,-13.031005859375
8.2099999,-9.744400978088379,1.05105459690094,1.4508862495422363,-14.5111083984375,25.9246826171875,-6.3323974609375
8.229999900000001,-9.80904483795166,0.8164227604866028,1.1444283723831177,-13.61083984375,22.796630859375,0.1678466796875
8.2499999,-9.919178009033203,0.5339069962501526,0.5530605912208557,-13.2598876953125,8.3770751953125,-1.89208984375
8.2699999,-10.02691650390625,0.38067805767059326,0.23702596127986908,-1.7852783203125,3.8604736328125,-0.579833984375
8.2899999,-10.08198356628418,0.22744916379451752,-0.181959331035614,-5.31005859375,2.1514892578125,-7.6904296875
8.309999900000001,-9.983820915222168,0.2059013396501541,-0.38546648621559143,-12.0391845703125,3.4332275390625,-6.622314453125
8.3299999,-10.067618370056152,0.3064578175544739,-0.1843535304069519,-10.9405517578125,2.777099609375,4.0435791015625
8.3499999,-9.986215591430664,0.44532153010368347,0.08140286058187485,-18.2952880859375,-0.701904296875,5.5999755859375
8.3699999,-9.952696800231934,0.5841852426528931,0.5171475410461426,-30.21240234375,2.532958984375,3.2196044921875
8.389999900000001,-9.945513725280762,0.7110779285430908,0.9792284965515137,-37.1246337890625,4.39453125,-0.4119873046875
8.4099999,-9.931148529052734,0.6655880808830261,1.0319008827209473,-30.670166015625,8.8653564453125,1.3885498046875
8.4299999,-9.832986831665039,0.667982280254364,1.036689281463623,-25.69580078125,13.9007568359375,-2.44140625
8.4499999,-9.974244117736816,0.4836287498474121,0.4836287498474121,-16.11328125,7.659912109375,1.0223388671875
8.469999900000001,-10.093954086303711,0.4118026793003082,0.17238251864910126,12.1002197265625,-8.1787109375,5.9356689453125
8.4899999,-10.249577522277832,0.33997663855552673,-0.35913026332855225,22.2320556640625,-11.65771484375,3.9825439453125
8.5099999,-10.158597946166992,0.3471592366695404,-0.5171475410461426,31.5704345703125,-26.1688232421875,-4.0130615234375
8.5299999,-10.187328338623047,0.4357447028160095,-0.5003881454467773,45.379638671875,-27.7252197265625,-8.2550048828125
8.549999900000001,-10.017339706420898,0.5482721924781799,-0.21547815203666687,40.0543212890625,-17.364501953125,-6.4849853515625
8.569999900000001,-10.02691650390625,0.7829039692878723,0.2992752194404602,30.1361083984375,-18.5699462890625,-2.1820068359375
8.5899999,-9.962273597717285,0.9983820915222168,0.9074024558067322,15.045166015625,-16.4947509765625,1.28173828125
8.6099999,-9.90241813659668,1.0749965906143188,1.436521053314209,-2.410888671875,-9.979248046875,-5.035400390625
8.629999900000001,-9.787496566772461,1.0989385843276978,1.8148049116134644,0.732421875,-9.94873046875,-15.289306640625
8.649999900000001,-9.646238327026367,0.8427590131759644,1.9297266006469727,3.5400390625,4.730224609375,-11.5509033203125
8.6699999,-9.607931137084961,0.6991068720817566,1.9847931861877441,-0.3204345703125,9.246826171875,-3.84521484375
8.6899999,-9.768342971801758,0.4596867263317108,1.889025092124939,-3.753662109375,6.5765380859375,2.50244140625
8.709999900000001,-9.828198432922363,0.3495534360408783,1.7836803197860718,-10.8642578125,10.7421875,3.143310546875
8.729999900000001,-10.005369186401367,0.2801215946674347,1.5107412338256836,-9.2926025390625,6.5765380859375,-5.096435546875
8.7499999,-9.96945571899414,0.2825157940387726,1.3000515699386597,-2.471923828125,13.1378173828125,-6.1187744140625
8.7699999,-9.99339771270752,0.33279404044151306,0.9840168952941895,-0.4119873046875,20.44677734375,-1.0528564453125
8.7899999,-9.964667320251465,0.42616790533065796,0.8164227604866028,2.2430419921875,12.420654296875,2.38037109375
8.809999900000001,-9.99339771270752,0.5386953949928284,0.6368576288223267,0.18310546875,9.246826171875,3.90625
8.8299999,-10.062829971313477,0.3495534360408783,0.21547815203666687,3.1280517578125,5.3863525390625,-1.2359619140625
8.8499999,-10.077195167541504,0.3878606855869293,-0.17238251864910126,35.46142578125,-9.6588134765625,-6.6070556640625
8.8699999,-10.134655952453613,0.20111294090747833,-0.5099649429321289,61.614990234375,-18.7225341796875,-5.18798828125
8.889999900000001,-10.232817649841309,0.28969839215278625,-0.47884035110473633,60.882568359375,-20.99609375,-3.082275390625
8.9099999,-10.467450141906738,0.5027823448181152,0.0071826050989329815,44.586181640625,-17.76123046875,-2.5787353515625
8.9299999,-10.56800651550293,0.7589619159698486,0.7134721279144287,24.688720703125,-4.5318603515625,-10.6353759765625
8.9499999,-10.699687004089355,1.0247182846069336,1.3646949529647827,7.720947265625,-1.190185546875,-6.77490234375
8.969999900000001,-10.632649421691895,1.1851298809051514,1.7118542194366455,-3.4942626953125,9.1400146484375,-7.1258544921875
8.9899999,-10.553641319274902,1.259350061416626,1.723825216293335,-9.1094970703125,23.8037109375,-0.2899169921875
9.0099999,-10.424354553222656,1.2186486721038818,1.4101848602294922,-10.894775390625,21.0723876953125,3.84521484375
9.0299999,-10.342951774597168,1.1037269830703735,0.9385270476341248,-6.6070556640625,10.711669921875,1.190185546875
9.049999900000001,-10.251971244812012,0.9074024558067322,0.4572925269603729,0.6561279296875,3.6468505859375,-3.692626953125
9.069999900000001,-10.08198356628418,0.6368576288223267,0.10773907601833344,6.3323974609375,1.373291015625,-4.9896240234375
9.0899999,-9.823410034179688,0.33758243918418884,-0.05267243832349777,9.521484375,4.0435791015625,-2.593994140625
9.1099999,-9.220070838928223,-0.24181437492370605,0.12689268589019775,9.8876953125,14.6942138671875,0.7171630859375
9.129999900000001,-9.102754592895508,-0.4189853072166443,0.3256114423274994,7.110595703125,13.12255859375,0.8544921875
9.149999900000001,-9.136273384094238,-0.5171475410461426,0.5003881454467773,4.57763671875,8.6822509765625,-4.852294921875
9.1699999,-9.255983352661133,-0.5602431893348694,0.6105214357376099,4.45556640625,7.171630859375,-11.6119384765625
9.1899999,-9.394847869873047,-0.5626373887062073,0.6416460275650024,5.401611328125,7.2021484375,-12.359619140625
9.209999900000001,-9.488221168518066,-0.5363011956214905,0.6057330369949341,5.2490234375,6.134033203125,-10.345458984375
9.229999900000001,-9.533711433410645,-0.4812345504760742,0.5363011956214905,4.2724609375,5.767822265625,-10.3607177734375
9.2499999,-9.550470352172852,-0.395043283700943,0.4644751250743866,2.777099609375,6.04248046875,-9.552001953125
9.2699999,-9.567230224609375,-0.2825157940387726,0.3974374830722809,-0.1220703125,5.9356689453125,-6.072998046875
9.2899999,-9.583989143371582,-0.15322890877723694,0.33279404044151306,-3.1585693359375,6.6375732421875,-5.157470703125
9.309999900000001,-9.583989143371582,-0.031124621629714966,0.2561795711517334,-4.6844482421875,9.58251953125,-7.843017578125
9.3299999,-9.615114212036133,0.07182604819536209,0.15322890877723694,-4.4403076171875,13.2904052734375,-7.965087890625
9.3499999,-9.66299819946289,0.1388636976480484,0.05027823522686958,-2.471923828125,10.5133056640625,-5.9051513671875
9.3699999,-9.734824180603027,0.15322890877723694,-0.014365210197865963,0.1220703125,3.11279296875,-7.6141357421875
9.389999900000001,-9.813833236694336,0.1364694982767105,-0.011971008032560349,1.7547607421875,0.5340576171875,-12.0849609375
9.4099999,-9.880870819091797,0.08140286058187485,0.047884032130241394,2.7923583984375,1.708984375,-12.0849609375
9.4299999,-9.907206535339355,0.035913024097681046,0.1604115068912506,5.0201416015625,-2.3040771484375,-6.53076171875
9.4499999,-9.90241813659668,0.004788403399288654,0.2849099934101105,7.0343017578125,-8.087158203125,-2.166748046875
9.469999900000001,-9.919178009033203,0.021547814831137657,0.4357447028160095,6.622314453125,-7.4310302734375,-0.457763671875
9.4899999,-9.962273597717285,0.07422025501728058,0.6200982332229614,2.86865234375,-3.84521484375,-0.0457763671875
9.5099999,-10.053253173828125,0.1628057211637497,0.8331822156906128,-3.5552978515625,-1.4801025390625,0.30517578125
9.5299999,-10.170568466186523,0.24420857429504395,1.0462661981582642,-10.589599609375,2.2430419921875,-0.9765625
9.549999900000001,-10.302249908447266,0.3016694188117981,1.2282254695892334,-16.5252685546875,5.5084228515625,-3.5552978515625
9.569999900000001,-10.424354553222656,0.31124621629714966,1.3455413579940796,-20.99609375,4.6539306640625,-4.8370361328125
9.5899999,-10.512939453125,0.2753331959247589,1.3551181554794312,-22.5830078125,0.0457763671875,-4.5166015625
9.6099999,-10.500968933105469,0.17956513166427612,1.2449848651885986,-19.866943359375,-7.2784423828125,-3.41796875
9.629999900000001,-10.38844108581543,0.08858546614646912,1.0223240852355957,-14.5416259765625,-11.5966796875,-0.4119873046875
9.649999900000001,-10.1753568649292,0.016759412363171577,0.7158663272857666,-10.1470947265625,-9.8724365234375,1.9683837890625
9.6699999,-9.892841339111328,-0.011971008032560349,0.40701428055763245,-7.6904296875,-8.4686279296875,3.3721923828125
9.6899999,-9.63187313079834,0.0071826050989329815,0.15562310814857483,-6.500244140625,-6.8817138671875,5.7830810546875
9.709999900000001,-9.476250648498535,0.05506663769483566,-0.014365210197865963,-5.0811767578125,0.274658203125,6.1798095703125
9.729999900000001,-9.44752025604248,0.1173158809542656,-0.10055647045373917,-3.1280517578125,5.7525634765625,3.0364990234375
9.7499999,-9.531316757202148,0.17956513166427612,-0.1149216815829277,-0.9765625,4.241943359375,1.2359619140625
9.7699999,-10.005369186401367,0.2513911724090576,-0.05746084079146385,0.18310546875,1.953125,0.6561279296875
9.7899999,-10.295066833496094,0.2801215946674347,0.0071826050989329815,-0.4730224609375,-2.44140625,-0.48828125
9.809999900000001,-10.57040023803711,0.3256114423274994,0.09576806426048279,0.152587890625,0.0152587890625,7.293701171875
9.8299999,-10.666168212890625,0.3208230137825012,0.16519992053508759,2.5787353515625,9.7503662109375,6.561279296875
9.8499999,-10.359710693359375,0.3016694188117981,0.2346317619085312,2.9296875,6.3629150390625,6.561279296875
9.8699999,-10.24000072479248,0.26096799969673157,0.2992752194404602,0.701904296875,7.3394775390625,7.62939453125
9.889999900000001,-9.99100399017334,0.19393034279346466,0.3687070608139038,-1.03759765625,3.4637451171875,7.9345703125
9.9099999,-9.986215591430664,0.13407529890537262,0.42856210470199585,-3.0975341796875,0.7476806640625,8.72802734375
9.9299999,-9.921571731567383,0.090979665517807,0.44532153010368347,-2.7618408203125,0.3662109375,7.50732421875
9.9499999,-9.926360130310059,0.08619125932455063,0.43095630407333374,-0.396728515625,-2.410888671875,2.227783203125
9.969999900000001,-9.93354320526123,0.0933738648891449,0.3974374830722809,3.96728515625,-3.6773681640625,-1.190185546875
9.9899999,-9.947908401489258,0.09816227108240128,0.3711012601852417,8.0413818359375,-5.126953125,-2.01416015625
10.0099999,-9.971850395202637,0.09576806426048279,0.38067805767059326,8.6669921875,-3.9825439453125,2.1514892578125
10.0299999,-9.981427192687988,0.10773907601833344,0.43095630407333374,6.9427490234375,-2.197265625,3.631591796875
10.049999900000001,-9.959878921508789,0.13407529890537262,0.5434837937355042,4.2572021484375,-1.2969970703125,1.953125
10.069999900000001,-9.921571731567383,0.20111294090747833,0.667982280254364,-0.518798828125,0.54931640625,1.0223388671875
10.0899999,-9.751583099365234,0.2849099934101105,0.7206547260284424,-5.7525634765625,3.753662109375,2.1820068359375
10.1099999,-9.801861763000488,0.3447650372982025,0.7326257228851318,-7.0037841796875,7.232666015625,2.9449462890625
10.129999900000001,-9.80904483795166,0.3687070608139038,0.6344634294509888,-6.195068359375,1.953125,-2.716064453125
10.149999900000001,-9.952696800231934,0.31842881441116333,0.5003881454467773,-5.7830810546875,4.1656494140625,2.0904541015625
10.1699999,-10.072406768798828,0.22026655077934265,0.304063618183136,-5.67626953125,3.265380859375,4.241943359375
10.1899999,-10.11789608001709,0.10534487664699554,0.11252748221158981,-1.52587890625,-0.885009765625,3.90625
10.209999900000001,-10.098742485046387,0.009576806798577309,-0.043095629662275314,5.4473876953125,-4.669189453125,4.5623779296875
10.229999900000001,-10.096348762512207,-0.06703764945268631,-0.14604631066322327,9.918212890625,-7.2174072265625,5.8441162109375
10.2499999,-10.103530883789062,-0.1364694982767105,-0.17717093229293823,11.23046875,-10.1165771484375,7.9193115234375
10.2699999,-10.103530883789062,-0.0933738648891449,-0.12449848651885986,9.6893310546875,-12.7716064453125,11.077880859375
10.2899999,-10.074800491333008,-0.011971008032560349,-0.033518824726343155,6.6070556640625,-13.9617919921875,12.359619140625
10.309999900000001,-10.050858497619629,0.1867477297782898,0.05506663769483566,3.448486328125,-14.5721435546875,10.589599609375
10.3299999,-10.010157585144043,0.3974374830722809,0.1388636976480484,3.4942626953125,-17.3797607421875,9.33837890625
10.3499999,-9.974244117736816,0.6536170840263367,0.3064578175544739,5.584716796875,-20.9808349609375,8.9111328125
10.3699999,-9.890447616577148,0.9026140570640564,0.5506663918495178,-0.4730224609375,-18.585205078125,6.5765380859375
10.389999900000001,-9.813833236694336,1.1683704853057861,0.8667010068893433,-15.44189453125,-11.41357421875,1.3275146484375
10.4099999,-9.710882186889648,1.170764684677124,1.3335703611373901,-28.7628173828125,-6.561279296875,-1.8310546875
10.4299999,-9.588777542114258,1.1516109704971313,1.800439715385437,-39.24560546875,2.9296875,1.1138916015625
10.4499999,-9.550470352172852,0.8930372595787048,2.0614075660705566,-47.9583740234375,17.547607421875,6.9427490234375
10.469999900000001,-9.588777542114258,0.608127236366272,2.075772762298584,-41.8548583984375,17.0745849609375,9.5062255859375
10.4899999,-9.706093788146973,0.24420857429504395,1.577778935432434,-23.773193359375,6.9580078125,13.031005859375
10.5099999,-9.995792388916016,-0.06464344263076782,0.933738648891449,-4.547119140625,-4.0130615234375,12.359619140625
10.5299999,-10.165780067443848,-0.24660277366638184,0.1628057211637497,15.19775390625,-18.6767578125,4.2572021484375
10.549999900000001,-10.225635528564453,-0.2585737705230713,-0.2585737705230713,25.08544921875,-13.946533203125,3.631591796875
10.569999900000001,-10.271124839782715,-0.035913024097681046,-0.3758896589279175,25.5279541015625,-3.875732421875,14.251708984375
10.5899999,-10.005369186401367,0.45010992884635925,0.2753331959247589,13.8702392578125,-16.9525146484375,18.157958984375
10.6099999,-9.816226959228516,1.0055646896362305,0.9026140570640564,-13.885498046875,-4.33349609375,15.7928466796875
10.629999900000001,-9.488221168518066,1.534683346748352,1.8555063009262085,-31.5704345703125,14.3890380859375,3.0059814453125
10.649999900000001,-9.150638580322266,1.9512743949890137,2.296039342880249,-33.538818359375,19.7296142578125,-8.0718994140625
10.6699999,-9.071630477905273,1.9536685943603516,2.3535003662109375,-26.0467529296875,30.70068359375,-4.9591064453125
10.6899999,-9.378087997436523,1.8315643072128296,2.1356279850006104,-16.021728515625,27.7099609375,0.8087158203125
10.709999900000001,-9.907206535339355,1.4197616577148438,1.5634137392044067,-24.688720703125,27.40478515625,-1.0528564453125
10.729999900000001,-10.469843864440918,1.0606313943862915,0.7924807667732239,-29.9224853515625,18.12744140625,-3.0059814453125
10.7499999,-10.790667533874512,0.5722141861915588,-0.016759412363171577,-6.134033203125,4.2572021484375,-4.69970703125
10.7699999,-10.721235275268555,0.22026655077934265,-0.6967126727104187,14.22119140625,3.448486328125,-4.119873046875
10.7899999,-10.484209060668945,-0.011971008032560349,-1.1180921792984009,13.18359375,-2.9754638671875,5.1116943359375
10.809999900000001,-10.182539939880371,0.06703764945268631,-0.9552865028381348,4.7760009765625,-9.94873046875,11.71875
10.8299999,-10.053253173828125,0.3495534360408783,-0.6224924325942993,0.152587890625,-12.5885009765625,3.0975341796875
10.8499999,-9.890447616577148,0.7493851184844971,0.021547814831137657,3.0975341796875,-16.0980224609375,-6.4697265625
10.8699999,-9.765948295593262,1.0247182846069336,0.363918662071228,5.9661865234375,-2.5787353515625,-6.439208984375
10.889999900000001,-9.730035781860352,1.137245774269104,0.8236053586006165,7.7362060546875,-0.1220703125,-4.5318603515625
10.9099999,-9.615114212036133,1.2018892765045166,1.1204863786697388,5.7220458984375,-8.30078125,4.5013427734375
10.9299999,-9.627084732055664,1.0869675874710083,1.534683346748352,-10.467529296875,2.9754638671875,3.5552978515625
10.9499999,-9.605537414550781,1.0773907899856567,1.8483237028121948,-26.2451171875,12.420654296875,-8.087158203125
10.969999900000001,-9.5624418258667,0.9217676520347595,2.011129379272461,-33.5693359375,21.97265625,-6.683349609375
10.9899999,-9.612719535827637,0.9097966551780701,1.8411411046981812,-31.402587890625,31.8450927734375,3.082275390625
11.0099999,-9.648633003234863,0.8379706144332886,1.45806884765625,-33.75244140625,27.0233154296875,3.814697265625
11.0299999,-9.742006301879883,0.9864110946655273,1.0055646896362305,-37.17041015625,24.9481201171875,-0.06103515625
11.049999900000001,-9.854534149169922,1.0247182846069336,0.6392518281936646,-34.1033935546875,24.4140625,-4.0435791015625
11.069999900000001,-9.945513725280762,1.0319008827209473,0.1149216815829277,-33.14208984375,20.0042724609375,-12.5579833984375
11.0899999,-9.96945571899414,0.8547300100326538,-0.42856210470199585,-25.1007080078125,15.869140625,-13.427734375
11.1099999,-10.194510459899902,0.4644751250743866,-1.0749965906143188,-0.701904296875,9.4451904296875,0.06103515625
11.129999900000001,-10.481815338134766,0.05027823522686958,-1.7477672100067139,25.4669189453125,-15.5181884765625,1.64794921875
11.149999900000001,-10.69489860534668,-0.24420857429504395,-2.0829553604125977,47.1343994140625,-42.17529296875,-0.732421875
11.1699999,-10.78348445892334,-0.36152446269989014,-2.1523873805999756,54.1534423828125,-45.3033447265625,1.4495849609375
11.1899999,-10.517727851867676,-0.14844051003456116,-1.656787633895874,48.370361328125,-39.703369140625,-1.2969970703125
11.209999900000001,-10.108319282531738,0.2849099934101105,-0.7709329724311829,36.6363525390625,-37.628173828125,-1.617431640625
11.229999900000001,-9.737217903137207,0.8212111592292786,0.3423708379268646,14.7705078125,-27.5421142578125,6.89697265625
11.2499999,-9.457097053527832,1.2425906658172607,1.6328455209732056,-16.8609619140625,-14.6484375,8.087158203125
11.2699999,-9.349357604980469,1.4413094520568848,2.3582887649536133,-29.8614501953125,-7.415771484375,-4.57763671875
11.2899999,-9.339780807495117,1.3311761617660522,2.87064790725708,-17.0135498046875,0.9765625,-7.8887939453125
11.309999900000001,-9.428366661071777,1.0749965906143188,2.647987127304077,-10.772705078125,9.7198486328125,1.46484375
11.3299999,-9.557653427124023,0.8379706144332886,2.31758713722229,-11.04736328125,7.4615478515625,3.997802734375
11.3499999,-9.907206535339355,0.6512228846549988,1.6160861253738403,-11.4288330078125,6.011962890625,3.8909912109375
11.3699999,-9.967061996459961,0.49559974670410156,1.0965443849563599,-6.6375732421875,-0.9765625,0.6256103515625
11.389999900000001,-10.108319282531738,0.44532153010368347,0.6823474764823914,3.8604736328125,-6.8359375,-6.622314453125
11.4099999,-9.962273597717285,0.4644751250743866,0.5817909836769104,0.640869140625,7.14111328125,-1.7242431640625
11.4299999,-9.904812812805176,0.49320554733276367,0.5051765441894531,-11.1846923828125,15.777587890625,2.0599365234375
11.4499999,-9.78989028930664,0.706289529800415,0.7757213711738586,-9.1400146484375,5.0811767578125,2.838134765625
11.469999900000001,-9.832986831665039,0.7541735172271729,0.9361328482627869,-7.7667236328125,4.241943359375,4.2266845703125
11.4899999,-9.68933391571045,1.0079588890075684,1.2665326595306396,-15.7012939453125,9.46044921875,-6.8817138671875
11.5099999,-9.742006301879883,1.0223240852355957,1.50355863571167,-21.7132568359375,19.5465087890625,-11.322021484375
11.5299999,-9.569623947143555,1.158793568611145,1.534683346748352,-26.5045166015625,32.135009765625,-4.4708251953125
11.549999900000001,-9.600749015808105,0.9911994934082031,1.237802267074585,-32.257080078125,26.5960693359375,0
11.569999900000001,-9.773131370544434,0.667982280254364,0.6009446382522583,-30.6854248046875,8.941650390625,3.021240234375
11.5899999,-9.931148529052734,0.304063618183136,-0.10295066982507706,-14.9383544921875,2.25830078125,-0.244140625
11.6099999,-10.182539939880371,-0.07182604819536209,-0.5889736413955688,1.068115234375,-5.218505859375,-1.5869140625
11.629999900000001,-10.359710693359375,-0.31124621629714966,-1.0678139925003052,10.4522705078125,-7.415771484375,-0.091552734375
11.649999900000001,-10.472238540649414,-0.31364041566848755,-1.094150185585022,26.2298583984375,-15.594482421875,8.7432861328125
11.6699999,-10.493785858154297,-0.1173158809542656,-0.8882488012313843,37.8265380859375,-27.435302734375,11.53564453125
11.6899999,-10.553641319274902,0.24899697303771973,-0.5027823448181152,25.421142578125,-29.9224853515625,7.01904296875
11.709999900000001,-10.429142951965332,0.7445967197418213,0.090979665517807,14.6331787109375,-26.06201171875,-1.495361328125
11.729999900000001,-10.11789608001709,1.137245774269104,0.8475474119186401,10.3912353515625,-16.021728515625,-3.1585693359375
11.7499999,-9.804255485534668,1.3551181554794312,1.2521674633026123,-1.9989013671875,-5.035400390625,0.518798828125
11.7699999,-9.567230224609375,1.3263877630233765,1.7477672100067139,-0.2593994140625,-3.9825439453125,-2.838134765625
11.7899999,-9.5408935546875,1.094150185585022,1.8411411046981812,8.0413818359375,-8.392333984375,2.1209716796875
11.809999900000001,-9.528923034667969,0.7924807667732239,1.778891921043396,13.4735107421875,-10.5133056640625,-1.2054443359375
11.8299999,-9.744400978088379,0.4884171485900879,1.6160861253738403,23.01025390625,-6.2103271484375,-8.6212158203125
11.8499999,-9.672574996948242,0.49559974670410156,1.5825673341751099,19.195556640625,3.021240234375,-1.64794921875
11.8699999,-9.6989107131958,0.6991068720817566,1.6687586307525635,-6.2408447265625,12.63427734375,2.532958984375
11.889999900000001,-9.691728591918945,1.0965443849563599,1.9512743949890137,-33.63037109375,22.125244140625,1.3885498046875
11.9099999,-9.737217903137207,1.359906554222107,2.056619167327881,-48.52294921875,27.8778076171875,-4.425048828125
11.9299999,-9.703699111938477,1.37906014919281,1.6711528301239014,-38.9404296875,24.6124267578125,-13.336181640625
11.9499999,-9.880870819091797,0.9959878921508789,0.8834604024887085,-10.9405517578125,19.1650390625,-12.6190185546875
11.969999900000001,-10.014945983886719,0.49799394607543945,-0.13168109953403473,16.0369873046875,2.7618408203125,-4.7149658203125
11.9899999,-10.27591323852539,-0.023942016065120697,-0.8882488012313843,29.022216796875,-13.3056640625,1.9683837890625
12.0099999,-10.314221382141113,-0.24660277366638184,-1.216254472732544,27.557373046875,-21.3623046875,3.72314453125
12.0299999,-10.271124839782715,-0.31842881441116333,-0.9696516990661621,27.374267578125,-27.9998779296875,-2.2125244140625
12.049999900000001,-10.029311180114746,-0.011971008032560349,-0.19393034279346466,21.6522216796875,-19.134521484375,-1.953125
12.069999900000001,-9.830592155456543,0.33279404044151306,0.8044517636299133,0.48828125,-0.79345703125,5.4931640625
12.0899999,-9.600749015808105,0.849941611289978,1.8339585065841675,-24.383544921875,11.138916015625,6.0882568359375
12.1099999,-9.607931137084961,1.048660397529602,2.298433542251587,-29.84619140625,12.6953125,6.6375732421875
12.129999900000001,-9.622296333312988,1.115697979927063,2.248155355453491,-16.998291015625,4.608154296875,0.640869140625
12.149999900000001,-9.773131370544434,0.871489405632019,1.434126853942871,-0.1373291015625,-0.6103515625,-5.3253173828125
12.1699999,-9.931148529052734,0.6607996821403503,0.7398083209991455,12.969970703125,-0.457763671875,-0.640869140625
12.1899999,-10.043676376342773,0.48602294921875,0.1173158809542656,12.359619140625,-6.591796875,3.9520263671875
12.209999900000001,-10.089165687561035,0.4836287498474121,0.028730420395731926,2.0751953125,-8.1787109375,6.011962890625
12.229999900000001,-10.15141487121582,0.44532153010368347,0.14365209639072418,-1.2664794921875,-11.1083984375,2.349853515625
12.2499999,-10.038887977600098,0.5123591423034668,0.5530605912208557,1.6326904296875,-12.8631591796875,-3.7689208984375
12.2699999,-9.981427192687988,0.5770025849342346,0.9696516990661621,1.77001953125,-2.899169921875,0.152587890625
12.289999900000002,-9.835380554199219,0.7709329724311829,1.5059528350830078,-12.054443359375,8.5296630859375,3.90625
12.309999900000001,-9.734824180603027,0.8643068075180054,1.6711528301239014,-24.71923828125,14.5416259765625,2.5177001953125
12.3299999,-9.749189376831055,1.0055646896362305,1.6927006244659424,-13.5498046875,5.4779052734375,2.1209716796875
12.3499999,-9.876082420349121,0.8259995579719543,1.3215993642807007,4.1656494140625,-5.889892578125,-5.7525634765625
12.3699999,-9.914389610290527,0.8140285611152649,0.9241618514060974,14.2364501953125,-3.7841796875,-8.7432861328125
12.389999900000001,-10.014945983886719,0.6655880808830261,0.7852981686592102,12.481689453125,3.448486328125,-3.4637451171875
12.4099999,-9.945513725280762,0.751779317855835,0.7230489253997803,1.4801025390625,4.730224609375,-1.64794921875
12.4299999,-10.014945983886719,0.6560112833976746,0.849941611289978,-1.8463134765625,1.3580322265625,1.3275146484375
12.4499999,-9.99339771270752,0.6320692300796509,0.8331822156906128,3.021240234375,-5.3253173828125,-2.7313232421875
12.469999900000001,-10.017339706420898,0.4357447028160095,0.768538773059845,10.5438232421875,-7.1258544921875,-7.8125
12.4899999,-9.86889934539795,0.48602294921875,0.8595184087753296,12.87841796875,-1.1444091796875,-3.0670166015625
12.5099999,-9.758766174316406,0.47644615173339844,1.0007762908935547,-3.936767578125,5.0048828125,2.50244140625
12.5299999,-9.591172218322754,0.6775590777397156,1.3239935636520386,-23.8800048828125,13.0767822265625,3.47900390625
12.549999900000001,-9.658209800720215,0.6512228846549988,1.5131354331970215,-24.5819091796875,12.542724609375,1.922607421875
12.569999900000001,-9.703699111938477,0.6320692300796509,1.37906014919281,-12.3291015625,6.8206787109375,-3.875732421875
12.5899999,-9.864110946655273,0.4812345504760742,0.9792284965515137,3.3721923828125,5.8746337890625,-4.21142578125
12.6099999,-9.986215591430664,0.42377370595932007,0.49799394607543945,9.9945068359375,2.777099609375,0.152587890625
12.629999900000001,-10.093954086303711,0.45489832758903503,0.12449848651885986,7.7056884765625,-3.387451171875,1.4190673828125
12.649999900000001,-10.1753568649292,0.5219359993934631,-0.040701430290937424,5.9967041015625,-10.589599609375,1.1749267578125
12.6699999,-10.273519515991211,0.5267243981361389,0.040701430290937424,9.27734375,-16.1590576171875,-4.8675537109375
12.6899999,-10.160991668701172,0.6703764796257019,0.3926490843296051,12.4664306640625,-13.519287109375,-7.7362060546875
12.709999900000001,-10.103530883789062,0.7398083209991455,0.9744400978088379,-0.732421875,1.5106201171875,-2.13623046875
12.729999900000001,-9.904812812805176,0.912190854549408,1.6400281190872192,-26.4739990234375,14.8773193359375,0.06103515625
12.7499999,-9.828198432922363,0.8236053586006165,1.922544002532959,-33.6456298828125,15.8538818359375,2.044677734375
12.7699999,-9.773131370544434,0.6727706789970398,1.7860745191574097,-14.1448974609375,5.096435546875,-1.2054443359375
12.789999900000002,-9.799467086791992,0.2992752194404602,1.1444283723831177,13.7176513671875,-5.8135986328125,-6.134033203125
12.809999900000001,-9.78989028930664,0.17477671802043915,0.6224924325942993,28.80859375,-5.4473876953125,-3.96728515625
12.8299999,-9.840168952941895,0.14365209639072418,0.3256114423274994,21.1029052734375,-2.74658203125,2.197265625
12.8499999,-9.782708168029785,0.4165911078453064,0.5267243981361389,2.5634765625,0.030517578125,4.0283203125
12.8699999,-9.765948295593262,0.7110779285430908,1.01753568649292,-5.584716796875,-1.28173828125,-3.631591796875
12.889999900000001,-9.75637149810791,0.7469909191131592,1.0965443849563599,-0.213623046875,2.7923583984375,-5.7220458984375
12.9099999,-9.732429504394531,0.7781155705451965,1.1851298809051514,-4.6844482421875,9.4757080078125,-1.0528564453125
12.9299999,-9.737217903137207,0.6943184733390808,1.1994950771331787,-14.2669677734375,11.138916015625,1.953125
12.9499999,-9.801861763000488,0.6799532771110535,1.1971008777618408,-17.4102783203125,7.0037841796875,2.197265625
12.969999900000001,-9.950302124023438,0.40462008118629456,1.0079588890075684,-12.6800537109375,1.800537109375,-1.5411376953125
12.9899999,-9.95748519897461,0.2777273952960968,0.7158663272857666,-3.7689208984375,0.518798828125,-2.1514892578125
13.0099999,-10.101137161254883,0.043095629662275314,0.4165911078453064,-0.9613037109375,1.9378662109375,2.716064453125
13.0299999,-10.20887565612793,0.15562310814857483,0.21787235140800476,-0.5340576171875,-0.732421875,6.16455078125
13.049999900000001,-10.302249908447266,0.20111294090747833,0.2298433631658554,3.662109375,-12.0086669921875,8.3160400390625
13.069999900000001,-10.491392135620117,0.42616790533065796,0.23702596127986908,8.9569091796875,-16.8609619140625,1.861572265625
13.0899999,-10.407594680786133,0.629675030708313,0.5363011956214905,13.092041015625,-16.54052734375,-4.3182373046875
13.1099999,-10.196905136108398,0.9097966551780701,0.8451532125473022,6.103515625,-7.6751708984375,-2.960205078125
13.129999900000001,-9.895236015319824,1.170764684677124,1.5729905366897583,-20.01953125,7.6751708984375,0.762939453125
13.149999900000001,-9.545681953430176,1.2689268589019775,2.008735179901123,-44.9066162109375,16.4947509765625,1.1444091796875
13.1699999,-9.397241592407227,1.1348515748977661,2.212242364883423,-46.600341796875,17.6239013671875,0.3509521484375
13.1899999,-9.289502143859863,0.7422025203704834,2.03507137298584,-30.6243896484375,12.725830078125,-0.06103515625
13.209999900000001,-9.44991397857666,0.3711012601852417,1.4939818382263184,-20.0042724609375,11.8865966796875,0.42724609375
13.229999900000001,-9.44991397857666,0.11971008777618408,1.0797849893569946,-22.64404296875,15.4571533203125,2.86865234375
13.2499999,-9.782708168029785,0.09816227108240128,0.8044517636299133,-29.8614501953125,20.9808349609375,4.2572021484375
13.2699999,-9.852140426635742,0.16519992053508759,0.5315127968788147,-30.1971435546875,16.998291015625,6.591796875
13.289999900000002,-10.232817649841309,0.2298433631658554,0.26096799969673157,-16.7694091796875,6.072998046875,3.84521484375
13.309999900000001,-10.359710693359375,0.2298433631658554,-0.19393034279346466,7.87353515625,-5.6304931640625,-4.0283203125
13.3299999,-10.41956615447998,0.2106897532939911,-0.5650315880775452,33.4930419921875,-10.467529296875,-0.4730224609375
13.3499999,-10.453084945678711,0.24899697303771973,-0.933738648891449,50.3082275390625,-18.7225341796875,-0.3814697265625
13.3699999,-10.261548042297363,0.395043283700943,-0.7924807667732239,61.5081787109375,-32.9742431640625,-0.8392333984375
13.389999900000001,-10.141838073730469,0.5434837937355042,-0.4812345504760742,47.6837158203125,-34.912109375,-1.0223388671875
13.4099999,-9.888052940368652,0.8403648138046265,0.44532153010368347,30.4412841796875,-28.0609130859375,-5.0506591796875
13.4299999,-9.701305389404297,0.9959878921508789,1.3910311460494995,12.0086669921875,-10.9710693359375,-8.30078125
13.4499999,-9.548076629638672,1.2018892765045166,2.2816741466522217,-6.16455078125,5.889892578125,-3.1585693359375
13.469999900000001,-9.459490776062012,1.1994950771331787,3.0573954582214355,-17.4560546875,9.9334716796875,1.8463134765625
13.4899999,-9.461885452270508,1.1755530834197998,3.0837318897247314,-40.496826171875,24.3072509765625,2.3193359375
13.5099999,-9.607931137084961,0.8140285611152649,2.6623523235321045,-42.1295166015625,23.681640625,-0.3662109375
13.5299999,-9.68933391571045,0.5099649429321289,1.6280571222305298,-13.153076171875,8.2244873046875,-4.94384765625
13.549999900000001,-9.945513725280762,0.05027823522686958,0.395043283700943,13.2293701171875,-1.1749267578125,-1.8463134765625
13.569999900000001,-10.146626472473145,-0.06464344263076782,-0.4381389021873474,30.8990478515625,-11.3372802734375,2.6092529296875
13.5899999,-10.213664054870605,-0.028730420395731926,-0.6871358752250671,29.815673828125,-17.02880859375,1.8463134765625
13.6099999,-10.228029251098633,0.24420857429504395,-0.33518823981285095,15.2740478515625,-13.0157470703125,-1.953125
13.629999900000001,-9.998186111450195,0.5219359993934631,0.545877993106842,11.90185546875,-11.871337890625,-7.3089599609375
13.649999900000001,-9.81143856048584,0.8140285611152649,1.4293384552001953,-1.9989013671875,5.889892578125,-6.439208984375
13.6699999,-9.672574996948242,0.9169792532920837,2.274491548538208,-17.791748046875,21.697998046875,0.0457763671875
13.6899999,-9.5408935546875,1.05105459690094,2.765302896499634,-27.679443359375,26.458740234375,2.8228759765625
13.709999900000001,-9.710882186889648,0.9409212470054626,2.564189910888672,-38.3453369140625,29.541015625,1.708984375
13.729999900000001,-9.80904483795166,0.8930372595787048,1.8148049116134644,-26.3671875,21.4996337890625,-3.936767578125
13.7499999,-9.995792388916016,0.6248866319656372,0.7422025203704834,6.927490234375,7.0953369140625,-8.4075927734375
13.7699999,-10.156203269958496,0.3878606855869293,-0.3471592366695404,32.318115234375,-2.8533935546875,-9.7808837890625
13.789999900000002,-10.278307914733887,0.22266076505184174,-0.8571242094039917,44.43359375,-10.9405517578125,-4.8370361328125
13.809999900000001,-10.194510459899902,0.0454898327589035,-0.7493851184844971,36.041259765625,-15.1519775390625,1.1749267578125
13.8299999,-10.249577522277832,-0.0694318488240242,-0.42856210470199585,22.674560546875,-4.852294921875,2.25830078125
13.8499999,-9.995792388916016,0.004788403399288654,0.3016694188117981,34.8663330078125,-9.33837890625,-2.838134765625
13.8699999,-9.926360130310059,0.090979665517807,0.8068459630012512,36.1480712890625,-8.9263916015625,-0.885009765625
13.889999900000001,-9.823410034179688,0.3495534360408783,1.280897855758667,19.500732421875,-1.068115234375,2.0599365234375
13.9099999,-9.801861763000488,0.5985504388809204,1.6927006244659424,4.0283203125,5.5084228515625,2.0599365234375
13.9299999,-9.758766174316406,0.7158663272857666,1.8746598958969116,-6.103515625,10.5133056640625,3.3416748046875
13.9499999,-9.737217903137207,0.7015010714530945,1.821987509727478,-5.401611328125,13.3819580078125,3.84521484375
13.969999900000001,-9.720458984375,0.5434837937355042,1.5634137392044067,3.2196044921875,12.7716064453125,1.4190673828125
13.9899999,-9.763554573059082,0.395043283700943,1.1899182796478271,8.453369140625,11.077880859375,3.448486328125
14.0099999,-9.852140426635742,0.33279404044151306,0.8403648138046265,7.8125,10.223388671875,5.7220458984375
14.0299999,-9.923966407775879,0.36152446269989014,0.5793967843055725,5.2947998046875,10.25390625,4.6234130859375
14.049999900000001,-9.952696800231934,0.4692635238170624,0.4118026793003082,5.5389404296875,9.979248046875,1.708984375
14.069999900000001,-9.96945571899414,0.6153098344802856,0.31842881441116333,6.591796875,8.4228515625,0.8392333984375
14.0899999,-9.981427192687988,0.7038952708244324,0.27054479718208313,5.9661865234375,6.40869140625,1.1138916015625
14.1099999,-9.998186111450195,0.7134721279144287,0.24899697303771973,5.5389404296875,4.8828125,1.15966796875
14.129999900000001,-10.010157585144043,0.6631938815116882,0.24899697303771973,5.279541015625,3.7689208984375,1.9073486328125
14.149999900000001,-10.022128105163574,0.5770025849342346,0.2298433631658554,2.593994140625,2.655029296875,3.692626953125
14.1699999,-10.034099578857422,0.4812345504760742,0.19632454216480255,-1.3275146484375,-0.3814697265625,6.04248046875
14.1899999,-10.04846477508545,0.40940847992897034,0.17717093229293823,-2.3193359375,-4.0435791015625,7.9803466796875
14.209999900000001,-10.18493366241455,0.4165911078453064,0.181959331035614,0.9307861328125,-4.8828125,8.3160400390625
14.229999900000001,-10.757147789001465,0.5434837937355042,0.28969839215278625,6.805419921875,-5.584716796875,5.1422119140625
14.2499999,-11.91354751586914,0.7829039692878723,0.3663128614425659,7.9803466796875,-7.0953369140625,-1.5411376953125
14.2699999,-13.211204528808594,1.1492167711257935,0.3232172429561615,6.3323974609375,-16.66259765625,-6.9427490234375
14.289999900000002,-14.355633735656738,1.5394717454910278,0.2753331959247589,10.8489990234375,-23.0865478515625,-12.0697021484375
14.309999900000001,-14.48970890045166,1.8339585065841675,0.1412578970193863,14.22119140625,-29.083251953125,-20.81298828125
14.3299999,-13.64216136932373,2.0015525817871094,0.1388636976480484,11.1236572265625,-15.533447265625,-24.932861328125
14.3499999,-11.990161895751953,1.946485996246338,0.26815059781074524,6.9580078125,-1.220703125,-23.6358642578125
14.3699999,-10.050858497619629,1.7166426181793213,0.5147533416748047,6.805419921875,16.29638671875,-18.5699462890625
14.389999900000001,-8.216899871826172,1.3192051649093628,0.8379706144332886,6.256103515625,34.1644287109375,-10.7574462890625
14.4099999,-6.8378400802612305,0.8882488012313843,1.2258312702178955,0.640869140625,33.843994140625,0.8392333984375
14.4299999,-6.030993938446045,0.47644615173339844,1.6160861253738403,-7.537841796875,22.0947265625,7.6751708984375
14.4499999,-5.779603004455566,0.1388636976480484,1.941697597503662,-11.7340087890625,13.2598876953125,3.875732421875
14.469999900000001,-5.892130374908447,-0.12928688526153564,2.1332337856292725,-11.2762451171875,8.85009765625,-3.173828125
14.4899999,-6.210559368133545,-0.33279404044151306,2.145204782485962,-9.4757080078125,8.7890625,-6.927490234375
14.5099999,-6.617573261260986,-0.4836287498474121,2.006340980529785,-6.8817138671875,7.2021484375,-7.7056884765625
14.5299999,-7.0988078117370605,-0.5626373887062073,1.7908629179000854,-4.7760009765625,-3.0364990234375,-4.39453125
14.549999900000001,-7.6782050132751465,-0.5554547905921936,1.5466543436050415,-5.67626953125,-14.58740234375,1.3885498046875
14.569999900000001,-8.322244644165039,-0.4644751250743866,1.3623007535934448,-7.965087890625,-20.20263671875,2.4261474609375
14.5899999,-8.951920509338379,-0.33039984107017517,1.2449848651885986,-10.6658935546875,-16.2506103515625,-1.1444091796875
14.6099999,-9.526528358459473,-0.17717093229293823,1.1803414821624756,-15.5487060546875,-13.1378173828125,-0.9765625
14.629999900000001,-9.998186111450195,-0.021547814831137657,1.1013327836990356,-21.66748046875,-16.845703125,3.4942626953125
14.649999900000001,-10.316615104675293,0.08619125932455063,0.9864110946655273,-23.590087890625,-21.5606689453125,5.5694580078125
14.6699999,-10.529699325561523,0.1604115068912506,0.8236053586006165,-20.904541015625,-21.6522216796875,7.8582763671875
14.6899999,-10.687716484069824,0.20111294090747833,0.629675030708313,-18.2037353515625,-16.754150390625,11.16943359375
14.709999900000001,-10.831368446350098,0.21787235140800476,0.44532153010368347,-15.7928466796875,-9.3231201171875,7.99560546875
14.729999900000001,-10.967838287353516,0.21787235140800476,0.2849099934101105,-11.53564453125,-5.18798828125,-0.030517578125
14.7499999,-11.068394660949707,0.22266076505184174,0.16759411990642548,-7.6904296875,-5.8135986328125,-2.6702880859375
14.7699999,-11.08994197845459,0.21547815203666687,0.0933738648891449,-6.53076171875,-6.011962890625,0.2899169921875
14.789999900000002,-11.039664268493652,0.2059013396501541,0.07661445438861847,-4.7760009765625,-3.204345703125,0.5035400390625
14.809999900000001,-10.931924819946289,0.17956513166427612,0.0933738648891449,-1.007080078125,-0.518798828125,-4.2877197265625
14.8299999,-10.788272857666016,0.15562310814857483,0.15083470940589905,2.960205078125,-3.021240234375,-7.232666015625
14.8499999,-10.611102104187012,0.14844051003456116,0.23942017555236816,4.058837890625,-4.8370361328125,-5.5999755859375
14.8699999,-10.359710693359375,0.16998831927776337,0.3663128614425659,2.899169921875,-4.241943359375,-3.7994384765625
14.889999900000001,-10.046070098876953,0.2346317619085312,0.5171475410461426,1.251220703125,-1.6326904296875,-1.89208984375
14.9099999,-9.775525093078613,0.33758243918418884,0.6631938815116882,-1.5716552734375,6.0882568359375,3.2196044921875
14.9299999,-9.605537414550781,0.45489832758903503,0.768538773059845,-5.2337646484375,16.17431640625,6.2103271484375
14.9499999,-9.588777542114258,0.5578489899635315,0.8188169598579407,-7.14111328125,19.95849609375,2.044677734375
14.969999900000001,-9.706093788146973,0.6272808313369751,0.8164227604866028,-6.8511962890625,14.739990234375,-3.143310546875
14.9899999,-9.885659217834473,0.6416460275650024,0.7781155705451965,-5.7525634765625,9.27734375,-3.143310546875
15.0099999,-9.998186111450195,0.5985504388809204,0.7469909191131592,-4.180908203125,5.2490234375,-0.8392333984375
15.0299999,-10.02452278137207,0.5410895943641663,0.7541735172271729,-2.197265625,1.8310546875,2.7618408203125
15.049999900000001,-9.986215591430664,0.507570743560791,0.8092401623725891,-1.03759765625,-1.129150390625,8.880615234375
15.069999900000001,-10.062829971313477,0.5506663918495178,0.9050082564353943,-0.9002685546875,-4.852294921875,13.458251953125
15.0899999,-10.103530883789062,0.5602431893348694,0.9576807022094727,-0.0457763671875,-8.30078125,5.0201416015625
15.1099999,-10.26394271850586,0.6440402865409851,1.0582371950149536,0.8087158203125,-1.312255859375,-1.3427734375
15.129999900000001,-10.144232749938965,0.6320692300796509,1.0606313943862915,-2.2125244140625,-1.89208984375,9.765625
15.149999900000001,-10.223240852355957,0.5291185975074768,1.0630255937576294,-5.9967041015625,4.4403076171875,16.0980224609375
15.1699999,-10.022128105163574,0.38307225704193115,0.9600749015808105,-6.500244140625,-1.8463134765625,6.7596435546875
15.1899999,-10.070012092590332,0.12449848651885986,0.8403648138046265,-4.4403076171875,-5.2642822265625,10.5133056640625
15.209999900000001,-10.074800491333008,-0.047884032130241394,0.7158663272857666,-2.044677734375,-7.32421875,16.11328125
15.229999900000001,-10.062829971313477,-0.1604115068912506,0.6368576288223267,-0.06103515625,-8.6517333984375,18.951416015625
15.2499999,-9.988609313964844,-0.1388636976480484,0.6775590777397156,2.6092529296875,-9.7198486328125,18.8751220703125
15.2699999,-9.876082420349121,0.0694318488240242,0.8355764150619507,1.251220703125,-3.875732421875,18.98193359375
15.289999900000002,-9.801861763000488,0.363918662071228,1.0079588890075684,-4.974365234375,-3.9825439453125,22.8424072265625
15.309999900000001,-9.744400978088379,0.706289529800415,1.1468225717544556,-10.2081298828125,-4.913330078125,22.735595703125
15.3299999,-9.727641105651855,1.048660397529602,1.2210428714752197,-12.1917724609375,-5.2337646484375,21.5911865234375
15.3499999,-9.742006301879883,1.4748282432556152,1.3479355573654175,-16.11328125,-4.241943359375,18.1427001953125
15.3699999,-9.708487510681152,1.8555063009262085,1.479616641998291,-23.4832763671875,1.6632080078125,11.8560791015625
15.389999900000001,-9.696516990661621,2.212242364883423,1.6496049165725708,-28.961181640625,7.720947265625,4.21142578125
15.4099999,-9.694122314453125,2.33913516998291,1.721431016921997,-28.3966064453125,8.6212158203125,-1.46484375
15.4299999,-9.720458984375,2.298433542251587,1.7190368175506592,-21.3623046875,8.23974609375,-3.35693359375
15.4499999,-9.749189376831055,1.98958158493042,1.580173134803772,-10.4522705078125,9.6893310546875,-6.378173828125
15.469999900000001,-9.806650161743164,1.6160861253738403,1.3718775510787964,2.9144287109375,9.521484375,-11.3372802734375
15.4899999,-9.84495735168457,1.1827356815338135,1.1013327836990356,17.63916015625,5.1116943359375,-12.5732421875
15.5099999,-9.895236015319824,0.7613561153411865,0.7876923680305481,27.8472900390625,-0.213623046875,-9.246826171875
15.5299999,-9.95748519897461,0.3974374830722809,0.4692635238170624,27.9693603515625,-3.7384033203125,-5.1727294921875
15.549999900000001,-10.014945983886719,0.181959331035614,0.22026655077934265,21.2860107421875,-7.38525390625,-0.79345703125
15.569999900000001,-10.022128105163574,0.17956513166427612,0.19153612852096558,14.6636962890625,-12.6800537109375,3.4637451171875
15.5899999,-9.99339771270752,0.3423708379268646,0.35673606395721436,7.3089599609375,-12.5732421875,5.5084228515625
15.6099999,-9.955090522766113,0.6033388376235962,0.5961562395095825,-0.2593994140625,-7.8582763671875,5.1116943359375
15.629999900000001,-9.885659217834473,0.8643068075180054,0.9050082564353943,-1.3427734375,-10.07080078125,3.997802734375
15.649999900000001,-9.816226959228516,1.1468225717544556,1.2617442607879639,-0.8697509765625,-12.6495361328125,3.7078857421875
15.6699999,-9.718064308166504,1.3407529592514038,1.5849615335464478,-2.3651123046875,-7.904052734375,-0.244140625
15.6899999,-9.658209800720215,1.4628572463989258,1.889025092124939,-3.60107421875,1.739501953125,-6.988525390625
15.709999900000001,-9.643844604492188,1.4197616577148438,2.169146776199341,-6.8206787109375,6.927490234375,-5.06591796875
15.729999900000001,-9.57201862335205,1.3455413579940796,2.3104045391082764,-17.7764892578125,12.0086669921875,1.251220703125
15.7499999,-9.607931137084961,1.3000515699386597,2.255337953567505,-34.11865234375,20.0042724609375,5.31005859375
15.7699999,-9.603142738342285,1.235408067703247,1.9105730056762695,-45.5322265625,20.3399658203125,5.5999755859375
15.789999900000002,-9.682151794433594,1.1827356815338135,1.4053963422775269,-39.093017578125,15.6097412109375,5.7525634765625
15.809999900000001,-9.931148529052734,0.9241618514060974,0.6871358752250671,-14.3890380859375,-1.434326171875,2.227783203125
15.8299999,-10.04846477508545,0.6488286852836609,0.18914192914962769,16.4031982421875,-15.1214599609375,-4.2572021484375
15.8499999,-10.141838073730469,0.4213795065879822,-0.2753331959247589,33.905029296875,-11.474609375,-4.57763671875
15.869999900000002,-10.251971244812012,0.4165911078453064,-0.26575639843940735,38.5589599609375,-10.6353759765625,8.6212158203125
15.889999900000001,-10.041281700134277,0.7805097699165344,0.1867477297782898,28.25927734375,-23.25439453125,5.828857421875
15.9099999,-9.976638793945312,1.259350061416626,0.8786720037460327,3.326416015625,-12.39013671875,1.7852783203125
15.9299999,-9.782708168029785,1.5825673341751099,1.7573440074920654,-12.14599609375,0.9002685546875,-4.8828125
15.9499999,-9.533711433410645,1.8770540952682495,2.5258827209472656,-13.5345458984375,9.735107421875,-12.7105712890625
15.969999900000001,-9.50498104095459,1.778891921043396,2.935291290283203,-18.585205078125,24.0325927734375,-2.410888671875
15.9899999,-9.421183586120605,1.5945383310317993,2.849100112915039,-21.1944580078125,25.787353515625,2.62451171875
16.0099999,-9.531316757202148,1.359906554222107,2.5019407272338867,-15.7928466796875,24.9176025390625,-0.335693359375
16.0299999,-9.672574996948242,1.1324573755264282,1.800439715385437,-6.561279296875,17.669677734375,-6.4849853515625
16.0499999,-9.706093788146973,1.0007762908935547,1.1755530834197998,1.1138916015625,10.4827880859375,-14.4500732421875
16.0699999,-9.852140426635742,0.9193734526634216,0.6536170840263367,-1.0223388671875,21.0723876953125,-8.7432861328125
16.089999900000002,-9.950302124023438,0.8403648138046265,0.3423708379268646,-7.38525390625,23.223876953125,-2.5177001953125
16.109999900000002,-10.005369186401367,0.7613561153411865,0.3232172429561615,-7.049560546875,8.8653564453125,-1.5716552734375
16.1299999,-10.093954086303711,0.6560112833976746,0.3280056416988373,-7.14111328125,6.1798095703125,1.8157958984375
16.1499999,-10.062829971313477,0.5291185975074768,0.40701428055763245,-3.0364990234375,10.7879638671875,-2.2735595703125
16.1699999,-10.041281700134277,0.4620809257030487,0.3064578175544739,6.6680908203125,9.3841552734375,-7.6751708984375
16.1899999,-9.99339771270752,0.545877993106842,0.28730419278144836,15.838623046875,5.0048828125,2.62451171875
16.2099999,-9.931148529052734,0.7661445140838623,0.31124621629714966,13.641357421875,-0.213623046875,6.34765625
16.2299999,-9.950302124023438,1.0654197931289673,0.43335050344467163,1.5869140625,-4.5166015625,-2.197265625
16.249999900000002,-9.892841339111328,1.280897855758667,0.689530074596405,-8.6669921875,2.1209716796875,-7.9803466796875
16.269999900000002,-9.770736694335938,1.4053963422775269,0.8571242094039917,-10.528564453125,8.7432861328125,-10.4522705078125
16.2899999,-9.854534149169922,1.3407529592514038,0.9840168952941895,-10.833740234375,9.8724365234375,-7.781982421875
16.3099999,-9.859322547912598,1.237802267074585,0.9145850539207458,-12.908935546875,12.7105712890625,-2.1514892578125
16.3299999,-9.892841339111328,1.0007762908935547,0.7709329724311829,-14.6484375,7.6751708984375,-1.678466796875
16.3499999,-10.072406768798828,0.5937620401382446,0.4141969084739685,-6.3629150390625,-6.4849853515625,-4.82177734375
16.3699999,-10.02452278137207,0.24420857429504395,0.038307227194309235,8.48388671875,-12.5885009765625,-2.593994140625
16.3899999,-10.098742485046387,-0.11252748221158981,-0.24660277366638184,15.19775390625,-8.6517333984375,1.9989013671875
16.4099999,-10.098742485046387,-0.09576806426048279,-0.45010992884635925,18.4478759765625,-9.765625,8.5296630859375
16.429999900000002,-10.134655952453613,0.1149216815829277,-0.26336219906806946,24.5361328125,-24.7039794921875,12.6495361328125
16.4499999,-10.036493301391602,0.6200982332229614,0.17477671802043915,19.1650390625,-27.40478515625,8.3465576171875
16.4699999,-9.911994934082031,1.2689268589019775,0.933738648891449,4.0435791015625,-13.3514404296875,-3.7078857421875
16.4899999,-9.682151794433594,1.8411411046981812,1.7717092037200928,-12.451171875,5.4168701171875,-14.312744140625
16.5099999,-9.533711433410645,2.2002713680267334,2.293645143508911,-23.1781005859375,18.8751220703125,-13.641357421875
16.5299999,-9.509769439697266,1.9823989868164062,2.363077163696289,-24.8565673828125,16.1285400390625,-5.2032470703125
16.5499999,-9.639056205749512,1.436521053314209,1.8626888990402222,-21.7742919921875,8.5601806640625,-2.105712890625
16.5699999,-9.837775230407715,0.5315127968788147,1.213860273361206,-7.9345703125,1.8157958984375,-3.0975341796875
16.589999900000002,-10.005369186401367,-0.07661445438861847,0.47165772318840027,12.603759765625,-5.92041015625,-3.6468505859375
16.609999900000002,-10.062829971313477,-0.40222588181495667,0.06224924325942993,20.660400390625,-4.6539306640625,3.11279296875
16.6299999,-10.120290756225586,0.2513911724090576,0.0694318488240242,7.2021484375,-7.4920654296875,6.28662109375
16.6499999,-10.046070098876953,0.7038952708244324,0.38067805767059326,0.91552734375,-11.65771484375,2.62451171875
16.6699999,-9.96945571899414,1.1037269830703735,0.646434485912323,6.3934326171875,-12.847900390625,-3.6468505859375
16.6899999,-9.77791976928711,1.2952631711959839,1.0414776802062988,4.8675537109375,-3.4942626953125,-6.744384765625
16.7099999,-9.701305389404297,1.3551181554794312,1.259350061416626,-7.32421875,9.6282958984375,-3.2196044921875
16.7299999,-9.691728591918945,1.3479355573654175,1.5729905366897583,-12.8326416015625,6.4849853515625,1.7242431640625
16.749999900000002,-9.775525093078613,1.1276689767837524,1.5705963373184204,-14.4195556640625,0.518798828125,2.7618408203125
16.769999900000002,-9.909601211547852,0.9672574996948242,1.3335703611373901,-4.119873046875,-0.67138671875,-5.8746337890625
16.7899999,-9.95748519897461,0.7326257228851318,1.094150185585022,11.0626220703125,0.030517578125,-10.955810546875
16.8099999,-9.976638793945312,0.569819986820221,0.7134721279144287,12.9852294921875,0.3814697265625,-4.4097900390625
16.8299999,-9.955090522766113,0.5746083855628967,0.689530074596405,7.5225830078125,-0.1678466796875,2.9144287109375
16.8499999,-9.84495735168457,0.6991068720817566,0.9744400978088379,-6.561279296875,1.15966796875,4.150390625
16.8699999,-9.734824180603027,0.8738836050033569,1.2713210582733154,-21.91162109375,8.5296630859375,-3.6773681640625
16.8899999,-9.583989143371582,1.137245774269104,1.7573440074920654,-28.9459228515625,14.7552490234375,-8.819580078125
16.9099999,-9.497797966003418,1.1444283723831177,1.8339585065841675,-40.6341552734375,24.8870849609375,-5.584716796875
16.929999900000002,-9.409213066101074,1.1037269830703735,1.7357962131500244,-46.3104248046875,30.8685302734375,0.823974609375
16.9499999,-9.619902610778809,0.9050082564353943,1.3934253454208374,-52.3834228515625,27.4505615234375,7.8582763671875
16.9699999,-9.794678688049316,0.5841852426528931,0.8140285611152649,-53.7872314453125,20.599365234375,3.5247802734375
16.9899999,-10.093954086303711,0.21787235140800476,0.014365210197865963,-28.7628173828125,7.781982421875,0.3814697265625
17.0099999,-10.491392135620117,-0.1604115068912506,-0.6488286852836609,15.1519775390625,-4.9285888671875,1.312255859375
17.0299999,-10.589553833007812,-0.395043283700943,-1.3958195447921753,39.5965576171875,-12.63427734375,5.218505859375
17.0499999,-10.668562889099121,-0.395043283700943,-1.8267759084701538,60.2874755859375,-29.0374755859375,8.5906982421875
17.0699999,-10.606313705444336,-0.004788403399288654,-1.7381904125213623,84.5947265625,-51.1932373046875,5.6304931640625
17.089999900000002,-10.342951774597168,0.507570743560791,-1.4197616577148438,77.45361328125,-52.5360107421875,-0.457763671875
17.109999900000002,-10.019734382629395,1.1204863786697388,-0.33758243918418884,65.5059814453125,-47.66845703125,-10.894775390625
17.1299999,-9.557653427124023,1.721431016921997,1.1348515748977661,40.2679443359375,-28.4881591796875,-10.9100341796875
17.1499999,-9.244012832641602,2.099714994430542,2.6599581241607666,-4.1046142578125,0.54931640625,-4.1351318359375
17.1699999,-9.08838939666748,2.166752576828003,3.8738183975219727,-36.5753173828125,18.7225341796875,-2.3040771484375
17.1899999,-9.167398452758789,1.845929503440857,4.230554580688477,-52.642822265625,26.5045166015625,0.5035400390625
17.2099999,-9.35654067993164,1.2042834758758545,3.7469255924224854,-46.1883544921875,22.1099853515625,3.7078857421875
17.2299999,-9.59596061706543,0.6105214357376099,2.580949544906616,-23.7579345703125,17.425537109375,0.54931640625
17.249999900000002,-9.655815124511719,0.09816227108240128,1.1420341730117798,-9.8876953125,14.5111083984375,3.1585693359375
17.269999900000002,-9.988609313964844,0.016759412363171577,0.2346317619085312,-7.9193115234375,3.7384033203125,12.3443603515625
17.2899999,-9.995792388916016,0.1867477297782898,-0.3016694188117981,-22.7203369140625,-3.2806396484375,10.6964111328125
17.3099999,-10.196905136108398,0.42377370595932007,-0.35673606395721436,-27.099609375,-0.640869140625,2.3193359375
17.3299999,-10.266336441040039,0.6584054827690125,-0.2968810200691223,-2.4871826171875,-6.2408447265625,-1.708984375
17.3499999,-10.196905136108398,0.7733271718025208,-0.13407529890537262,26.7333984375,-15.0146484375,-5.5694580078125
17.3699999,-10.14902114868164,0.7996633648872375,0.043095629662275314,36.7889404296875,-16.3116455078125,-0.79345703125
17.3899999,-9.945513725280762,0.9385270476341248,0.7757213711738586,33.5845947265625,-16.5557861328125,3.6163330078125
17.409999900000003,-9.801861763000488,1.0893617868423462,1.577778935432434,-0.06103515625,0.244140625,-0.1373291015625
17.429999900000002,-9.588777542114258,1.2210428714752197,2.229001760482788,-29.7698974609375,11.29150390625,-2.5177001953125
17.4499999,-9.50498104095459,1.2856862545013428,2.542642116546631,-22.0947265625,15.106201171875,-4.730224609375
17.4699999,-9.658209800720215,1.1516109704971313,2.166752576828003,-4.3792724609375,17.9290771484375,-3.662109375
17.4899999,-9.782708168029785,0.9313444495201111,1.414973258972168,15.56396484375,6.7291259765625,-1.9683837890625
17.5099999,-9.96945571899414,0.811634361743927,0.8643068075180054,25.81787109375,-8.0413818359375,-2.3345947265625
17.5299999,-10.165780067443848,0.6272808313369751,0.26336219906806946,14.190673828125,-9.765625,-3.5552978515625
17.5499999,-10.093954086303711,0.689530074596405,0.15322890877723694,10.467529296875,-11.0321044921875,-7.0037841796875
17.5699999,-10.08198356628418,0.6655880808830261,0.3495534360408783,8.056640625,-3.3111572265625,-7.7972412109375
17.589999900000002,-10.029311180114746,0.6512228846549988,0.5770025849342346,-2.2430419921875,1.77001953125,-0.457763671875
17.609999900000002,-9.876082420349121,0.646434485912323,1.1659762859344482,-6.6680908203125,-4.241943359375,7.0343017578125
17.6299999,-9.871294021606445,0.6057330369949341,1.501164436340332,-17.4102783203125,2.7008056640625,6.16455078125
17.6499999,-9.727641105651855,0.5793967843055725,1.6687586307525635,-20.355224609375,5.859375,1.8310546875
17.6699999,-9.739612579345703,0.6320692300796509,1.6041151285171509,-9.5367431640625,6.4849853515625,-2.349853515625
17.6899999,-9.763554573059082,0.8020575642585754,1.2306196689605713,1.03759765625,3.570556640625,-0.5645751953125
17.7099999,-9.813833236694336,0.8954314589500427,0.9385270476341248,4.1351318359375,-0.9765625,1.1444091796875
17.7299999,-9.907206535339355,0.9576807022094727,0.7733271718025208,2.6092529296875,-4.669189453125,-0.48828125
17.749999900000002,-9.962273597717285,0.9050082564353943,0.6560112833976746,1.28173828125,-6.4239501953125,-2.6397705078125
17.769999900000002,-9.952696800231934,0.7254431247711182,0.6919242739677429,9.6588134765625,-9.1094970703125,-3.387451171875
17.7899999,-9.90241813659668,0.6607996821403503,0.8547300100326538,12.39013671875,-4.302978515625,-3.0517578125
17.8099999,-9.837775230407715,0.7086837291717529,1.161187767982483,-0.0457763671875,4.364013671875,0.0762939453125
17.8299999,-9.78989028930664,0.8236053586006165,1.5658079385757446,-13.3514404296875,5.9814453125,1.9378662109375
17.8499999,-9.775525093078613,0.9241618514060974,1.7812861204147339,-19.5159912109375,7.8277587890625,-1.220703125
17.8699999,-9.734824180603027,0.9361328482627869,1.8818424940109253,-18.00537109375,7.4005126953125,-1.190185546875
17.8899999,-9.715670585632324,0.9265560507774353,1.6041151285171509,-20.0042724609375,13.9617919921875,-2.7618408203125
17.909999900000003,-9.576807022094727,0.9409212470054626,1.400607943534851,-25.6805419921875,16.3116455078125,-4.119873046875
17.929999900000002,-9.81143856048584,0.8762778043746948,1.072602391242981,-28.99169921875,15.1824951171875,1.7852783203125
17.9499999,-9.835380554199219,0.7637503147125244,0.7541735172271729,-28.2440185546875,8.72802734375,5.3863525390625
17.9699999,-10.055646896362305,0.33518823981285095,0.3926490843296051,-7.99560546875,-2.6092529296875,-1.15966796875
17.9899999,-10.199298858642578,0.035913024097681046,0.035913024097681046,26.7791748046875,-11.53564453125,-3.6468505859375
18.0099999,-10.165780067443848,-0.14365209639072418,-0.18914192914962769,42.9534912109375,-12.6495361328125,3.9215087890625
18.0299999,-10.268731117248535,0.016759412363171577,-0.14844051003456116,42.4957275390625,-15.8538818359375,6.2713623046875
18.0499999,-10.072406768798828,0.4884171485900879,0.2106897532939911,39.703369140625,-22.9339599609375,2.9296875
18.0699999,-10.134655952453613,0.9696516990661621,0.6703764796257019,17.1661376953125,-15.0909423828125,-1.373291015625
18.089999900000002,-9.840168952941895,1.381454348564148,1.2473790645599365,6.2103271484375,-12.51220703125,-5.218505859375
18.109999900000002,-9.742006301879883,1.5298948287963867,1.8195933103561401,2.01416015625,-4.8828125,-7.8887939453125
18.1299999,-9.607931137084961,1.4628572463989258,2.0254945755004883,-13.031005859375,10.5438232421875,-3.662109375
18.1499999,-9.593565940856934,1.1875240802764893,2.3798365592956543,-14.5111083984375,9.185791015625,2.685546875
18.1699999,-9.550470352172852,0.8451532125473022,2.27209734916687,-18.6614990234375,9.979248046875,4.425048828125
18.1899999,-9.775525093078613,0.45010992884635925,1.9177556037902832,-20.0042724609375,12.9852294921875,4.45556640625
18.2099999,-9.849745750427246,0.3208230137825012,1.3862427473068237,0.5645751953125,4.8828125,0.457763671875
18.2299999,-10.005369186401367,0.3208230137825012,0.608127236366272,16.6168212890625,-0.06103515625,0.3509521484375
18.249999900000002,-10.132261276245117,0.5626373887062073,0.24420857429504395,19.775390625,-7.1868896484375,0.7171630859375
18.269999900000002,-10.108319282531738,0.9002198576927185,0.20350714027881622,10.284423828125,-12.3291015625,-2.197265625
18.2899999,-10.089165687561035,1.0271124839782715,0.38067805767059326,-6.9580078125,-5.584716796875,-5.035400390625
18.3099999,-9.979032516479492,0.9959878921508789,0.811634361743927,-2.3345947265625,-6.5460205078125,-5.4779052734375
18.3299999,-9.782708168029785,0.8738836050033569,1.1252747774124146,12.87841796875,-7.843017578125,-4.4708251953125
18.3499999,-9.758766174316406,0.7110779285430908,1.501164436340332,8.30078125,1.5411376953125,1.0223388671875
18.3699999,-9.600749015808105,0.6967126727104187,1.9129672050476074,-5.3863525390625,6.9732666015625,4.5623779296875
18.3899999,-9.641449928283691,0.7637503147125244,2.0470423698425293,-19.4549560546875,11.7950439453125,2.3651123046875
18.409999900000003,-9.715670585632324,0.7805097699165344,1.9105730056762695,-17.4407958984375,9.6893310546875,0.518798828125
18.429999900000002,-9.739612579345703,0.8355764150619507,1.5490485429763794,-5.615234375,2.044677734375,-0.823974609375
18.4499999,-9.780313491821289,0.8475474119186401,1.0869675874710083,-12.0086669921875,7.232666015625,-0.5645751953125
18.4699999,-9.947908401489258,0.8595184087753296,0.8212111592292786,-15.7318115234375,8.8348388671875,1.9989013671875
18.4899999,-9.923966407775879,0.9481038451194763,0.6560112833976746,-8.1024169921875,-3.0670166015625,3.6773681640625
18.5099999,-9.947908401489258,0.7709329724311829,0.6057330369949341,-5.31005859375,-6.7901611328125,-2.5787353515625
18.5299999,-10.077195167541504,0.6703764796257019,0.5410895943641663,-1.52587890625,-5.7830810546875,-7.0648193359375
18.5499999,-9.914389610290527,0.45250412821769714,0.6967126727104187,2.593994140625,-6.3629150390625,2.01416015625
18.5699999,-9.995792388916016,0.21308395266532898,0.790086567401886,7.232666015625,-3.6773681640625,4.8828125
18.589999900000002,-10.04846477508545,0.19632454216480255,1.0606313943862915,23.773193359375,-6.7291259765625,7.476806640625
18.609999900000002,-9.99100399017334,0.31364041566848755,1.1444283723831177,32.4859619140625,-12.63427734375,6.77490234375
18.6299999,-9.971850395202637,0.6320692300796509,1.290474772453308,29.47998046875,-12.9852294921875,-2.2125244140625
18.6499999,-9.763554573059082,1.1899182796478271,1.6855180263519287,16.5863037109375,-5.584716796875,-8.1787109375
18.6699999,-9.605537414550781,1.6903064250946045,2.0446481704711914,-20.9808349609375,17.730712890625,-7.4615478515625
18.6899999,-9.478644371032715,1.843535304069519,2.4372973442077637,-42.8009033203125,30.33447265625,-4.5928955078125
18.7099999,-9.555258750915527,1.6639702320098877,2.425326347351074,-34.881591796875,22.796630859375,-3.4637451171875
18.7299999,-9.813833236694336,1.0414776802062988,1.6903064250946045,-17.242431640625,13.5650634765625,-3.2958984375
18.749999900000002,-10.050858497619629,0.33279404044151306,0.6775590777397156,17.181396484375,-3.0364990234375,-6.40869140625
18.769999900000002,-10.251971244812012,-0.2059013396501541,-0.42616790533065796,51.1474609375,-19.287109375,-4.33349609375
18.7899999,-10.287884712219238,-0.30885201692581177,-0.9313444495201111,57.9376220703125,-27.64892578125,1.373291015625
18.8099999,-10.139444351196289,0.014365210197865963,-0.28730419278144836,35.4461669921875,-27.6031494140625,6.591796875
18.8299999,-9.895236015319824,0.507570743560791,0.8068459630012512,-20.1416015625,-1.6937255859375,5.6915283203125
18.8499999,-9.66539192199707,1.0319008827209473,2.0614075660705566,-51.6357421875,18.7835693359375,5.6610107421875
18.8699999,-9.497797966003418,1.357512354850769,2.715024709701538,-36.68212890625,19.71435546875,0.335693359375
18.8899999,-9.607931137084961,1.4413094520568848,2.4420857429504395,-12.176513671875,13.702392578125,-1.40380859375
18.909999900000003,-9.658209800720215,1.357512354850769,1.800439715385437,7.598876953125,0.9613037109375,-1.953125
18.929999900000002,-9.885659217834473,0.9864110946655273,1.1492167711257935,9.1552734375,-4.69970703125,-3.2196044921875
18.9499999,-9.971850395202637,0.6200982332229614,0.667982280254364,3.5858154296875,-4.7149658203125,-0.48828125
18.9699999,-9.95748519897461,0.3423708379268646,0.706289529800415,11.2762451171875,-5.55419921875,2.38037109375
18.9899999,-9.895236015319824,0.3878606855869293,0.8044517636299133,11.6119384765625,2.6397705078125,-2.044677734375
19.0099999,-9.873687744140625,0.6224924325942993,1.1109095811843872,5.1422119140625,7.9498291015625,-4.1961669921875
19.0299999,-9.837775230407715,0.9911994934082031,1.4532804489135742,-1.6937255859375,5.7220458984375,-1.03759765625
19.0499999,-9.847352027893066,1.139639973640442,1.5107412338256836,-14.5416259765625,5.1116943359375,-2.3956298828125
19.0699999,-9.95748519897461,1.1061211824417114,1.3239935636520386,-15.07568359375,4.1351318359375,-8.9569091796875
19.089999900000002,-9.871294021606445,0.9074024558067322,1.0079588890075684,-0.396728515625,0.640869140625,-8.9569091796875
19.109999900000002,-9.938331604003906,0.5267243981361389,0.7326257228851318,3.936767578125,-0.7781982421875,-1.77001953125
19.1299999,-9.940725326538086,0.2777273952960968,0.6200982332229614,-2.4566650390625,-1.983642578125,9.613037109375
19.1499999,-9.914389610290527,0.12449848651885986,0.8259995579719543,-6.77490234375,-5.2642822265625,10.1470947265625
19.1699999,-9.962273597717285,0.13168109953403473,0.9097966551780701,-2.960205078125,-4.913330078125,3.47900390625
19.1899999,-9.90241813659668,0.5291185975074768,1.1085153818130493,2.6092529296875,-2.8533935546875,0.3509521484375
19.2099999,-9.806650161743164,0.8068459630012512,1.2330138683319092,-3.2958984375,0.030517578125,-0.91552734375
19.2299999,-9.799467086791992,1.1683704853057861,1.4460978507995605,-14.068603515625,5.767822265625,-1.5106201171875
19.249999900000002,-9.708487510681152,1.2282254695892334,1.7357962131500244,-20.6298828125,11.0931396484375,-0.1678466796875
19.269999900000002,-9.739612579345703,1.194706678390503,1.6328455209732056,-17.5628662109375,8.36181640625,-0.579833984375
19.2899999,-9.797073364257812,1.0031704902648926,1.3934253454208374,-0.9307861328125,0.701904296875,-6.5460205078125
19.3099999,-9.837775230407715,0.8212111592292786,0.9768342971801758,13.7176513671875,-4.638671875,-9.063720703125
19.3299999,-9.823410034179688,0.7134721279144287,0.8236053586006165,7.720947265625,0.0152587890625,-6.4849853515625
19.3499999,-9.967061996459961,0.5985504388809204,0.9816226959228516,-11.5509033203125,7.6751708984375,3.5858154296875
19.3699999,-9.794678688049316,0.5722141861915588,1.3048399686813354,-27.8472900390625,8.7127685546875,6.256103515625
19.3899999,-9.746794700622559,0.5746083855628967,1.525106430053711,-30.8837890625,12.054443359375,-1.373291015625
19.409999900000003,-9.763554573059082,0.8738836050033569,1.4844050407409668,-32.3333740234375,17.608642578125,1.7242431640625
19.429999900000002,-9.62947940826416,0.8906430602073669,1.2521674633026123,-40.83251953125,12.8173828125,2.227783203125
19.4499999,-9.813833236694336,0.7326257228851318,0.7493851184844971,-34.1033935546875,7.8887939453125,-10.8795166015625
19.4699999,-10.153809547424316,0.3998316824436188,0.12928688526153564,-12.237548828125,0.152587890625,4.547119140625
19.4899999,-10.213664054870605,-0.08858546614646912,-0.181959331035614,14.7247314453125,-31.25,16.5557861328125
19.5099999,-10.036493301391602,-0.16759411990642548,0.2537853717803955,28.5186767578125,-31.341552734375,1.434326171875
19.5299999,-9.327810287475586,0.5602431893348694,2.2242133617401123,-8.60595703125,9.9945068359375,2.3040771484375
19.5499999,-8.250418663024902,1.1204863786697388,3.471592426300049,-126.434326171875,94.66552734375,19.1497802734375
19.5699999,-8.35097599029541,1.9991583824157715,3.667917013168335,-141.17431640625,105.1788330078125,15.2740478515625
19.589999900000002,-8.33182144165039,1.886630892753601,1.7741034030914307,-49.835205078125,22.705078125,-9.521484375
19.609999900000002,-9.169792175292969,1.2425906658172607,-1.3886369466781616,44.2962646484375,-41.2445068359375,-10.711669921875
19.6299999,-9.11233139038086,0,-3.667917013168335,124.725341796875,-78.91845703125,-6.500244140625
19.6499999,-9.033323287963867,-1.113303780555725,-3.514688014984131,159.7747802734375,-77.3162841796875,-2.166748046875
19.6699999,-8.643068313598633,-1.3958195447921753,-1.3503297567367554,106.8115234375,-31.2347412109375,12.9547119140625
19.6899999,-9.253589630126953,-0.42616790533065796,1.8148049116134644,3.60107421875,29.9072265625,40.71044921875
19.7099999,-10.271124839782715,1.656787633895874,4.132391929626465,-67.169189453125,61.126708984375,18.798828125
19.7299999,-11.334151268005371,3.732560396194458,4.522646903991699,-95.306396484375,61.492919921875,-5.43212890625
19.749999900000002,-12.174515724182129,4.616020679473877,3.07415509223938,-74.9053955078125,33.75244140625,-42.3583984375
19.769999900000002,-12.500126838684082,3.507505416870117,0.4644751250743866,-12.664794921875,-9.1552734375,-42.6483154296875
19.7899999,-12.267889976501465,1.1492167711257935,-1.824381709098816,67.3675537109375,-44.403076171875,-3.1585693359375
19.8099999,-12.071564674377441,-1.3862427473068237,-2.8107926845550537,112.3809814453125,-74.1119384765625,25.57373046875
19.8299999,-11.504138946533203,-2.22660756111145,-2.3319525718688965,105.95703125,-66.95556640625,29.8004150390625
19.8499999,-10.232817649841309,-1.2689268589019775,0.14365209639072418,57.2662353515625,-28.4881591796875,21.78955078125
19.8699999,-9.66299819946289,1.0678139925003052,2.432508945465088,-42.7093505859375,42.2210693359375,-5.3253173828125
19.8899999,-8.966285705566406,3.043030261993408,4.079719543457031,-87.1734619140625,68.6798095703125,-40.924072265625
19.909999900000003,-9.248801231384277,3.804386615753174,3.9240965843200684,-61.9964599609375,38.39111328125,-8.60595703125
19.929999900000002,-10.47702693939209,3.064578056335449,2.188300371170044,-18.3258056640625,3.936767578125,-9.7503662109375
19.9499999,-11.27190113067627,1.4724340438842773,-0.038307227194309235,38.1317138671875,-34.820556640625,-20.8892822265625
19.9699999,-11.26950740814209,0.2082955539226532,-1.3766659498214722,78.91845703125,-39.306640625,-13.580322265625
19.9899999,-10.050858497619629,-0.5793967843055725,-1.0462661981582642,61.920166015625,-22.7508544921875,12.0849609375
20.0099999,-8.69095230102539,-0.4644751250743866,0.15562310814857483,-13.5345458984375,7.6141357421875,3.4027099609375
20.0299999,-7.608773231506348,0.023942016065120697,1.9943699836730957,-51.544189453125,22.4761962890625,-1.129150390625
20.0499999,-8.003816604614258,0.7781155705451965,2.983175277709961,-45.6390380859375,35.0341796875,-7.781982421875
