# Time (seconds),Accel_X,Accel_Y,Accel_Z,Gyro_X,Gyro_Y,Gyro_Z
0.0099999,-10.527304649353027,-1.4891934394836426,0.6727706789970398,-16.4337158203125,4.7454833984375,10.3302001953125
0.029999900000000003,-10.582371711730957,-1.4772224426269531,0.5793967843055725,-13.9923095703125,4.058837890625,6.103515625
0.0499999,-10.548852920532227,-1.4532804489135742,0.5339069962501526,-11.199951171875,10.1776123046875,1.6937255859375
0.0699999,-10.498574256896973,-1.4101848602294922,0.5171475410461426,-8.392333984375,11.474609375,-1.0833740234375
0.08999990000000001,-10.453084945678711,-1.359906554222107,0.5219359993934631,-6.7596435546875,0.6866455078125,-0.732421875
0.10999990000000001,-10.405200958251953,-1.3311761617660522,0.545877993106842,-6.866455078125,-11.8560791015625,1.40380859375
0.1299999,-10.32858657836914,-1.3192051649093628,0.5746083855628967,-7.354736328125,-14.6331787109375,2.13623046875
0.14999990000000002,-10.20887565612793,-1.3311761617660522,0.629675030708313,-6.9427490234375,-11.6119384765625,0.48828125
0.1699999,-10.077195167541504,-1.357512354850769,0.689530074596405,-5.8746337890625,-12.0391845703125,-1.9073486328125
0.1899999,-9.959878921508789,-1.3694833517074585,0.7398083209991455,-4.2724609375,-18.1427001953125,-3.84521484375
0.20999990000000002,-9.852140426635742,-1.3670891523361206,0.7996633648872375,-2.1820068359375,-22.918701171875,-5.523681640625
0.2299999,-9.742006301879883,-1.3287819623947144,0.8523358106613159,-0.5950927734375,-23.25439453125,-6.4697265625
0.2499999,-9.59596061706543,-1.259350061416626,0.9313444495201111,-0.8087158203125,-25.8636474609375,-5.4473876953125
0.2699999,-9.428366661071777,-1.1683704853057861,0.9983820915222168,-2.44140625,-30.33447265625,-2.7923583984375
0.28999990000000003,-9.258378028869629,-1.0606313943862915,1.048660397529602,-3.2806396484375,-31.707763671875,-0.091552734375
0.3099999,-9.138668060302734,-0.9648633003234863,1.0749965906143188,-3.2501220703125,-25.7415771484375,2.8228759765625
0.3299999,-9.10993766784668,-0.8906430602073669,1.0582371950149536,-3.936767578125,-20.6756591796875,8.3160400390625
0.34999990000000003,-9.169792175292969,-0.8259995579719543,1.0271124839782715,-5.43212890625,-28.50341796875,14.7857666015625
0.3699999,-9.296685218811035,-0.7589619159698486,1.0103530883789062,-6.805419921875,-36.8194580078125,17.7154541015625
0.3899999,-9.442731857299805,-0.6775590777397156,1.0271124839782715,-7.4920654296875,-31.463623046875,15.68603515625
0.40999990000000003,-9.564835548400879,-0.5722141861915588,1.0893617868423462,-8.331298828125,-21.942138671875,12.664794921875
0.4299999,-9.643844604492188,-0.44771572947502136,1.194706678390503,-9.5977783203125,-18.61572265625,10.406494140625
0.4499999,-9.691728591918945,-0.3447650372982025,1.3192051649093628,-11.3372802734375,-16.8609619140625,8.941650390625
0.4699999,-9.749189376831055,-0.26096799969673157,1.4197616577148438,-14.3890380859375,-13.36669921875,9.7503662109375
0.4899999,-9.816226959228516,-0.22026655077934265,1.4676456451416016,-17.6239013671875,-12.054443359375,11.3677978515625
0.5099999,-9.876082420349121,-0.2346317619085312,1.4508862495422363,-19.317626953125,-12.0086669921875,12.3443603515625
0.5299999,-9.938331604003906,-0.2968810200691223,1.3838485479354858,-19.9432373046875,-7.1868896484375,12.6953125
0.5499999,-10.000580787658691,-0.40462008118629456,1.3024457693099976,-20.9808349609375,-1.007080078125,12.6495361328125
0.5699999,-10.077195167541504,-0.5219359993934631,1.2042834758758545,-21.54541015625,0.0457763671875,10.6048583984375
0.5899998999999999,-10.139444351196289,-0.6584054827690125,1.1348515748977661,-19.1192626953125,-0.06103515625,4.57763671875
0.6099998999999999,-10.187328338623047,-0.7805097699165344,1.1013327836990356,-15.5029296875,7.01904296875,-1.8310546875
0.6299999,-10.20648193359375,-0.8858546018600464,1.1061211824417114,-14.0228271484375,14.6942138671875,-4.8370361328125
0.6499999,-10.201693534851074,-0.9481038451194763,1.1252747774124146,-14.2059326171875,13.3514404296875,-4.730224609375
0.6699999,-10.127472877502441,-0.9983820915222168,1.1492167711257935,-14.8773193359375,7.01904296875,-1.5106201171875
0.6899999,-10.038887977600098,-1.0199298858642578,1.113303780555725,-16.082763671875,9.7198486328125,4.9591064453125
0.7099999,-9.916783332824707,-1.0438719987869263,1.015141487121582,-16.3421630859375,17.1051025390625,11.4593505859375
0.7299998999999999,-9.80904483795166,-1.0582371950149536,0.8810662031173706,-15.3350830078125,18.1732177734375,16.4947509765625
0.7499998999999999,-9.761159896850586,-1.0630255937576294,0.7254431247711182,-14.6484375,14.0533447265625,19.073486328125
0.7699999,-9.81143856048584,-1.039083480834961,0.5841852426528931,-13.1072998046875,9.429931640625,17.8375244140625
0.7899999,-9.892841339111328,-0.993593692779541,0.4836287498474121,-9.1094970703125,5.4168701171875,11.7034912109375
0.8099999,-9.981427192687988,-0.9313444495201111,0.4405331015586853,-4.5623779296875,2.349853515625,5.035400390625
0.8299999,-10.067618370056152,-0.8307880163192749,0.4405331015586853,-1.8463134765625,2.8228759765625,0.5645751953125
0.8499998999999999,-10.070012092590332,-0.7158663272857666,0.4908113479614258,-0.9918212890625,2.593994140625,-2.13623046875
0.8699998999999999,-9.99100399017334,-0.5889736413955688,0.5722141861915588,-2.8076171875,4.8065185546875,-0.9613037109375
0.8899999,-9.832986831665039,-0.4644751250743866,0.6655880808830261,-6.439208984375,12.75634765625,5.31005859375
0.9099999,-9.68694019317627,-0.3471592366695404,0.7326257228851318,-10.406494140625,21.2554931640625,11.77978515625
0.9299999,-9.600749015808105,-0.2298433631658554,0.7422025203704834,-11.138916015625,24.810791015625,11.505126953125
0.9499999,-10.053253173828125,-0.06703764945268631,0.7781155705451965,-7.904052734375,15.44189453125,3.631591796875
0.9699998999999999,-10.319009780883789,-0.038307227194309235,0.7493851184844971,-6.134033203125,-2.01416015625,-3.0059814453125
0.9899998999999999,-10.72602367401123,0.11971008777618408,0.7781155705451965,-5.7373046875,4.2724609375,3.5858154296875
1.0099999,-10.742782592773438,0.13168109953403473,0.8140285611152649,-5.6610107421875,11.016845703125,5.5084228515625
1.0299999,-10.532093048095703,0.20111294090747833,0.8068459630012512,-7.8277587890625,18.3868408203125,9.09423828125
1.0499999,-10.24000072479248,0.2059013396501541,0.7541735172271729,-8.0718994140625,15.106201171875,13.2598876953125
1.0699999,-10.146626472473145,0.08379705995321274,0.6320692300796509,-5.7525634765625,-0.06103515625,9.5062255859375
1.0899999,-9.974244117736816,-0.0933738648891449,0.47884035110473633,-1.434326171875,-5.1116943359375,-5.3253173828125
1.1099999,-9.983820915222168,-0.3902548849582672,0.36152446269989014,3.7841796875,-5.706787109375,-14.739990234375
1.1299999,-9.90241813659668,-0.6392518281936646,0.31603461503982544,8.30078125,-7.8887939453125,-14.312744140625
1.1499999,-9.859322547912598,-0.8523358106613159,0.3878606855869293,11.29150390625,-9.4757080078125,-10.9710693359375
1.1699998999999999,-9.909601211547852,-1.0055646896362305,0.5291185975074768,12.2528076171875,-8.6669921875,-6.072998046875
1.1899998999999999,-9.892841339111328,-1.0606313943862915,0.7158663272857666,12.054443359375,-9.27734375,-6.1187744140625
1.2099999,-9.96945571899414,-1.0342950820922852,0.912190854549408,10.955810546875,-8.880615234375,-0.3662109375
1.2299999,-9.943120002746582,-0.9361328482627869,1.070208191871643,8.4228515625,-4.730224609375,4.3487548828125
1.2499999,-9.923966407775879,-0.7589619159698486,1.1683704853057861,2.6092529296875,-1.5869140625,6.2408447265625
1.2699999,-9.864110946655273,-0.5530605912208557,1.216254472732544,-3.3111572265625,0.7781982421875,5.4473876953125
1.2899999,-9.821015357971191,-0.3495534360408783,1.2042834758758545,-7.659912109375,1.46484375,4.08935546875
1.3099999,-9.818621635437012,-0.2322375625371933,1.1444283723831177,-11.23046875,1.953125,4.6234130859375
1.3299999,-9.835380554199219,-0.17477671802043915,1.0845733880996704,-14.3280029296875,2.716064453125,5.7373046875
1.3499999,-9.871294021606445,-0.22026655077934265,1.048660397529602,-17.9443359375,4.0130615234375,6.6986083984375
1.3699999,-9.883264541625977,-0.33758243918418884,0.9792284965515137,-21.4080810546875,5.2032470703125,7.7667236328125
1.3899999,-9.909601211547852,-0.44771572947502136,0.8547300100326538,-21.5911865234375,3.90625,8.48388671875
1.4099999,-9.95748519897461,-0.507570743560791,0.7541735172271729,-19.71435546875,0.9002685546875,9.8724365234375
1.4299998999999999,-9.983820915222168,-0.47644615173339844,0.6392518281936646,-21.3623046875,-0.3204345703125,12.3291015625
1.4499999,-10.041281700134277,-0.40940847992897034,0.545877993106842,-20.6451416015625,-1.2969970703125,11.65771484375
1.4699999,-10.070012092590332,-0.3447650372982025,0.5195417404174805,-12.9241943359375,-4.791259765625,8.9874267578125
1.4899999,-10.062829971313477,-0.3016694188117981,0.524330198764801,-5.6915283203125,-6.8511962890625,10.3912353515625
1.5099999,-10.043676376342773,-0.24660277366638184,0.5482721924781799,-0.5950927734375,-7.3089599609375,8.97216796875
1.5299999,-10.022128105163574,-0.16759411990642548,0.5913678407669067,7.0648193359375,-8.758544921875,4.39453125
1.5499999,-9.988609313964844,-0.05027823522686958,0.6991068720817566,15.5029296875,-11.1236572265625,2.532958984375
1.5699999,-9.938331604003906,0.12928688526153564,0.9744400978088379,14.7705078125,-9.7808837890625,2.8076171875
1.5899999,-9.854534149169922,0.30885201692581177,1.3503297567367554,-0.5340576171875,-0.640869140625,1.617431640625
1.6099999,-9.75637149810791,0.4620809257030487,1.7597382068634033,-18.768310546875,10.955810546875,-1.190185546875
1.6299999,-9.691728591918945,0.5315127968788147,2.0015525817871094,-28.961181640625,17.1661376953125,-2.227783203125
1.6499999,-9.682151794433594,0.5410895943641663,1.9823989868164062,-30.8685302734375,18.310546875,-2.8228759765625
1.6699999,-9.751583099365234,0.42856210470199585,1.680729627609253,-28.9764404296875,18.280029296875,-4.608154296875
1.6899998999999999,-9.861717224121094,0.26096799969673157,1.1971008777618408,-24.4140625,16.876220703125,-6.8511962890625
1.7099999,-9.99339771270752,0.004788403399288654,0.6512228846549988,-16.4794921875,10.7421875,-6.40869140625
1.7299999,-10.113107681274414,-0.3064578175544739,0.10295066982507706,-6.591796875,2.5482177734375,-3.997802734375
1.7499999,-10.230423927307129,-0.6871358752250671,-0.3711012601852417,5.92041015625,-5.67626953125,-2.0599365234375
1.7699999,-10.278307914733887,-0.9624691009521484,-0.6177040338516235,19.95849609375,-14.3890380859375,0.946044921875
1.7899999,-10.283096313476562,-1.0869675874710083,-0.6033388376235962,27.2369384765625,-21.5606689453125,4.94384765625
1.8099999,-10.204087257385254,-0.9911994934082031,-0.31842881441116333,25.1617431640625,-23.0255126953125,6.4697265625
1.8299999,-10.089165687561035,-0.7661445140838623,0.1364694982767105,21.026611328125,-21.636962890625,8.0718994140625
1.8499999,-9.947908401489258,-0.45010992884635925,0.6847416758537292,15.594482421875,-19.1802978515625,8.5296630859375
1.8699999,-9.816226959228516,-0.10534487664699554,1.2330138683319092,7.3394775390625,-15.5792236328125,9.4146728515625
1.8899999,-9.734824180603027,0.2059013396501541,1.644816517829895,-2.4566650390625,-9.5672607421875,8.544921875
1.9099999,-9.706093788146973,0.4381389021873474,1.8770540952682495,-7.049560546875,-5.79833984375,5.950927734375
1.9299998999999999,-9.715670585632324,0.5554547905921936,1.965639591217041,-6.072998046875,-5.0201416015625,4.39453125
1.9499999,-9.75397777557373,0.5554547905921936,1.9321208000183105,-6.4239501953125,-3.2806396484375,4.180908203125
1.9699999,-9.768342971801758,0.4572925269603729,1.843535304069519,-7.781982421875,0.8544921875,1.8157958984375
1.9899999,-9.799467086791992,0.3208230137825012,1.6927006244659424,-6.4544677734375,5.2642822265625,-1.0528564453125
2.0099999,-9.837775230407715,0.1388636976480484,1.50355863571167,1.007080078125,5.8441162109375,-1.617431640625
2.0299999,-9.9000244140625,-0.026336219161748886,1.2832920551300049,8.575439453125,0.3204345703125,-0.823974609375
2.0499999,-9.931148529052734,-0.21547815203666687,1.0534487962722778,10.284423828125,-1.0528564453125,1.708984375
2.0699999,-9.962273597717285,-0.3998316824436188,0.9050082564353943,9.4451904296875,0.0762939453125,5.4779052734375
2.0899999,-9.955090522766113,-0.4381389021873474,0.7829039692878723,7.1258544921875,-3.23486328125,8.2550048828125
2.1099999,-9.959878921508789,-0.3423708379268646,0.790086567401886,2.6397705078125,-7.0953369140625,9.8114013671875
2.1299999,-9.945513725280762,-0.031124621629714966,0.9145850539207458,-0.9307861328125,-6.439208984375,7.568359375
2.1499999,-9.943120002746582,0.33997663855552673,1.0869675874710083,-4.57763671875,-1.03759765625,1.983642578125
2.1699999,-9.90241813659668,0.6919242739677429,1.3287819623947144,-3.814697265625,1.0986328125,-2.2430419921875
2.1899999,-9.86650562286377,0.8164227604866028,1.4389152526855469,2.9296875,-0.5035400390625,-4.974365234375
2.2099999,-9.852140426635742,0.689530074596405,1.4987702369689941,11.0626220703125,0.2288818359375,-5.9814453125
2.2299999,-9.830592155456543,0.4572925269603729,1.4748282432556152,12.908935546875,0.030517578125,-6.317138671875
2.2499999,-9.852140426635742,0.2322375625371933,1.5514427423477173,6.6070556640625,-0.4425048828125,-5.3863525390625
2.2699999,-9.792284965515137,0.17956513166427612,1.7142484188079834,-8.11767578125,6.28662109375,-1.5869140625
2.2899999,-9.737217903137207,0.17956513166427612,1.8626888990402222,-22.552490234375,15.7623291015625,-1.678466796875
2.3099999,-9.730035781860352,0.14604631066322327,1.886630892753601,-27.130126953125,19.8516845703125,-2.13623046875
2.3299999,-9.720458984375,0.040701430290937424,1.6208745241165161,-18.524169921875,16.7694091796875,0.244140625
2.3499999,-9.86650562286377,-0.19393034279346466,1.1635819673538208,-1.373291015625,9.1552734375,1.3885498046875
2.3699999,-10.022128105163574,-0.3998316824436188,0.5841852426528931,14.6636962890625,1.5716552734375,1.52587890625
2.3899999,-10.11789608001709,-0.49320554733276367,0.1412578970193863,26.30615234375,-6.7596435546875,0.8087158203125
2.4099999,-10.170568466186523,-0.3447650372982025,0.038307227194309235,27.03857421875,-11.7950439453125,1.4190673828125
2.4299999,-10.096348762512207,-0.031124621629714966,0.2753331959247589,14.312744140625,-7.99560546875,0.701904296875
2.4499999,-9.998186111450195,0.3663128614425659,0.7781155705451965,-5.5389404296875,-0.30517578125,-1.373291015625
2.4699999,-9.907206535339355,0.6871358752250671,1.2665326595306396,-20.6451416015625,3.8604736328125,-3.3721923828125
2.4899999,-9.84256362915039,0.7733271718025208,1.5729905366897583,-20.01953125,4.241943359375,-5.096435546875
2.5099999,-9.871294021606445,0.646434485912323,1.5610195398330688,-8.6212158203125,2.5634765625,-4.7760009765625
2.5299999,-9.871294021606445,0.2992752194404602,1.3263877630233765,4.5623779296875,-0.518798828125,-4.119873046875
2.5499999,-9.919178009033203,-0.07422025501728058,1.039083480834961,13.5345458984375,-4.57763671875,-5.7830810546875
2.5699999,-9.921571731567383,-0.3232172429561615,0.9552865028381348,15.6097412109375,-7.9345703125,-2.288818359375
2.5899999,-9.876082420349121,-0.44532153010368347,1.0271124839782715,4.8065185546875,-3.5400390625,3.570556640625
2.6099999,-9.885659217834473,-0.3471592366695404,1.280897855758667,-10.498046875,5.157470703125,3.4027099609375
2.6299999,-9.871294021606445,0.1364694982767105,1.5466543436050415,-10.5743408203125,6.9427490234375,3.143310546875
2.6499999,-9.926360130310059,0.43095630407333374,1.5155296325683594,-5.0201416015625,6.9427490234375,-1.1749267578125
2.6699999,-9.911994934082031,0.6919242739677429,1.4197616577148438,-7.14111328125,9.1094970703125,-9.8876953125
2.6899999,-9.921571731567383,0.8523358106613159,1.4077905416488647,-13.9617919921875,11.1541748046875,-12.3291015625
2.7099999,-9.885659217834473,0.7613561153411865,1.3910311460494995,-24.9481201171875,15.716552734375,-9.979248046875
2.7299999,-9.9000244140625,0.4165911078453064,1.1827356815338135,-30.792236328125,18.9666748046875,-7.01904296875
2.7499999,-9.950302124023438,-0.10773907601833344,0.8068459630012512,-19.6533203125,8.026123046875,-4.150390625
2.7699999,-10.077195167541504,-0.7398083209991455,0.2537853717803955,5.9814453125,-5.4779052734375,-0.9765625
2.7899999,-10.158597946166992,-1.1875240802764893,-0.35673606395721436,36.4990234375,-17.63916015625,1.46484375
2.8099999,-10.268731117248535,-1.436521053314209,-0.7565677165985107,59.600830078125,-28.25927734375,-1.190185546875
2.8299999,-10.237606048583984,-1.2832920551300049,-0.7589619159698486,72.296142578125,-39.9932861328125,0.6561279296875
2.8499999,-10.098742485046387,-0.7924807667732239,-0.26575639843940735,65.2923583984375,-39.3829345703125,1.9989013671875
2.8699999,-9.907206535339355,-0.13407529890537262,0.6272808313369751,40.3289794921875,-29.0069580078125,0.79345703125
2.8899999,-9.619902610778809,0.5482721924781799,1.7262194156646729,14.0228271484375,-15.13671875,-2.6092529296875
2.9099999,-9.437943458557129,0.9696516990661621,2.7485435009002686,-9.09423828125,-0.0762939453125,-3.0517578125
2.9299999,-9.282320022583008,1.1659762859344482,3.4404678344726562,-31.3720703125,14.0228271484375,-2.8839111328125
2.9499999,-9.299078941345215,1.05105459690094,3.579331636428833,-43.304443359375,21.5606689453125,-0.5340576171875
2.9699999,-9.411606788635254,0.7158663272857666,3.246537446975708,-37.384033203125,25.5584716796875,-3.204345703125
2.9899999,-9.619902610778809,0.2561795711517334,2.4396915435791016,-19.8974609375,18.37158203125,-4.21142578125
3.0099999,-9.888052940368652,-0.22505496442317963,1.4437036514282227,-3.1890869140625,10.589599609375,-0.701904296875
3.0299999,-10.08437728881836,-0.5889736413955688,0.6009446382522583,11.932373046875,0.9918212890625,-0.9613037109375
3.0499999,-10.230423927307129,-0.811634361743927,0.031124621629714966,20.3857421875,-6.65283203125,-0.732421875
3.0699999,-10.271124839782715,-0.8738836050033569,-0.09576806426048279,18.6004638671875,-8.9111328125,4.180908203125
3.0899999,-10.170568466186523,-0.7230489253997803,0.10055647045373917,7.6904296875,-10.6201171875,8.3465576171875
3.1099999,-10.086771965026855,-0.5554547905921936,0.5147533416748047,-3.8299560546875,-8.9569091796875,11.8865966796875
3.1299999,-9.907206535339355,-0.26575639843940735,0.933738648891449,-9.4757080078125,-5.1727294921875,11.16943359375
3.1499999,-9.792284965515137,0.031124621629714966,1.4987702369689941,-9.033203125,-5.645751953125,11.1083984375
3.1699999,-9.670180320739746,0.24181437492370605,1.8171991109848022,-15.899658203125,3.3721923828125,12.176513671875
3.1899999,-9.653421401977539,0.4165911078453064,2.0422539710998535,-13.0767822265625,8.7890625,8.056640625
3.2099999,-9.701305389404297,0.48602294921875,2.054224967956543,-0.3814697265625,6.1492919921875,3.265380859375
3.2299999,-9.737217903137207,0.524330198764801,1.941697597503662,3.2196044921875,6.2103271484375,1.9683837890625
3.2499999,-9.840168952941895,0.5051765441894531,1.8052281141281128,-2.9144287109375,6.9580078125,0.79345703125
3.2699999,-9.799467086791992,0.45250412821769714,1.721431016921997,-10.92529296875,13.702392578125,3.60107421875
3.2899999,-9.84495735168457,0.33758243918418884,1.6424223184585571,-13.7176513671875,16.4642333984375,4.57763671875
3.3099999,-9.864110946655273,0.272938996553421,1.434126853942871,-13.336181640625,14.2822265625,2.197265625
3.3299999000000002,-9.923966407775879,0.21787235140800476,1.213860273361206,-10.223388671875,12.3443603515625,1.434326171875
3.3499999,-9.971850395202637,0.15562310814857483,0.9433154463768005,-4.33349609375,8.11767578125,1.28173828125
3.3699999,-10.02691650390625,0.10055647045373917,0.6775590777397156,-0.213623046875,5.6610107421875,-0.457763671875
3.3899999,-10.06043529510498,-0.040701430290937424,0.5267243981361389,5.2032470703125,0.213623046875,4.241943359375
3.4099999,-10.02691650390625,-0.12928688526153564,0.45489832758903503,4.82177734375,-2.0294189453125,10.0250244140625
3.4299999,-10.007762908935547,-0.040701430290937424,0.5937620401382446,1.28173828125,-1.6632080078125,6.011962890625
3.4499999,-9.907206535339355,0.06224924325942993,0.8810662031173706,-4.8980712890625,0.3814697265625,3.1585693359375
3.4699999,-9.765948295593262,0.3471592366695404,1.2761094570159912,-10.1470947265625,6.9427490234375,2.685546875
3.4899999,-9.813833236694336,0.5099649429321289,1.580173134803772,-14.7552490234375,12.2528076171875,5.9814453125
3.5099999,-9.737217903137207,0.6919242739677429,1.8171991109848022,-16.2506103515625,15.8233642578125,0.4425048828125
3.5299999,-9.780313491821289,0.7469909191131592,1.7980455160140991,-14.1448974609375,19.6380615234375,-5.8441162109375
3.5499999,-9.861717224121094,0.7086837291717529,1.599326729774475,-10.31494140625,21.7437744140625,-7.049560546875
3.5699999,-9.90241813659668,0.5674257874488831,1.139639973640442,-3.90625,16.6473388671875,-3.90625
3.5899999,-10.050858497619629,0.36152446269989014,0.586579442024231,1.7242431640625,7.9803466796875,-2.74658203125
3.6099999,-10.125079154968262,0.11013327538967133,0.033518824726343155,11.627197265625,0.1068115234375,-6.988525390625
3.6299999,-10.168174743652344,-0.11971008777618408,-0.3998316824436188,21.54541015625,-5.828857421875,-6.0577392578125
3.6499999,-10.170568466186523,-0.24660277366638184,-0.47644615173339844,35.6903076171875,-13.97705078125,-4.9896240234375
3.6699999,-10.091560363769531,-0.1173158809542656,-0.08858546614646912,37.3992919921875,-14.251708984375,-5.340576171875
3.6899999,-9.95748519897461,0.11013327538967133,0.6057330369949341,14.6484375,-1.2359619140625,-9.4451904296875
3.7099999,-9.765948295593262,0.4429273009300232,1.414973258972168,-9.9639892578125,13.0462646484375,-11.71875
3.7299999,-9.62947940826416,0.6320692300796509,2.027888774871826,-19.744873046875,19.2413330078125,-8.1939697265625
3.7499999,-9.607931137084961,0.47165772318840027,2.0805611610412598,-16.8914794921875,21.942138671875,-3.0517578125
3.7699999,-9.775525093078613,0.16759411990642548,1.6519991159439087,-7.415771484375,18.707275390625,0.7476806640625
3.7899999,-9.959878921508789,-0.24420857429504395,0.8403648138046265,7.965087890625,6.5460205078125,0.3814697265625
3.8099999,-10.163386344909668,-0.5315127968788147,-0.0071826050989329815,21.6217041015625,-7.8277587890625,-0.1373291015625
3.8299999000000002,-10.15141487121582,-0.569819986820221,-0.5051765441894531,28.594970703125,-14.373779296875,1.4801025390625
3.8499999,-10.139444351196289,-0.4429273009300232,-0.5841852426528931,16.6168212890625,-10.7421875,4.730224609375
3.8699999,-10.038887977600098,-0.12210428714752197,-0.2322375625371933,-4.2877197265625,-8.0108642578125,4.69970703125
3.8899999,-9.974244117736816,0.1628057211637497,0.3471592366695404,-16.845703125,-6.561279296875,4.8828125
3.9099999,-9.861717224121094,0.33039984107017517,0.8212111592292786,-17.2882080078125,-5.8135986328125,1.6021728515625
3.9299999,-9.825803756713867,0.3447650372982025,1.158793568611145,-10.2996826171875,-0.244140625,0.5340576171875
3.9499999,-9.821015357971191,0.304063618183136,1.316810965538025,-8.636474609375,0.946044921875,5.55419921875
3.9699999,-9.859322547912598,0.24660277366638184,1.434126853942871,-13.7786865234375,0,7.4005126953125
3.9899999,-9.974244117736816,0.22505496442317963,1.3503297567367554,-19.256591796875,4.791259765625,6.103515625
4.0099999,-10.031704902648926,0.15562310814857483,1.158793568611145,-11.0321044921875,5.7830810546875,1.7852783203125
4.029999900000001,-10.055646896362305,0.11013327538967133,0.8690952062606812,11.2152099609375,-1.068115234375,0
4.0499999,-10.074800491333008,0.16759411990642548,0.6320692300796509,21.453857421875,-5.859375,1.3885498046875
4.069999900000001,-9.998186111450195,0.2992752194404602,0.6823474764823914,11.53564453125,-3.23486328125,-2.288818359375
4.0899999000000005,-9.959878921508789,0.4668693244457245,0.8978256583213806,-9.979248046875,5.1727294921875,-6.195068359375
4.1099999,-9.859322547912598,0.507570743560791,1.0630255937576294,-21.8658447265625,14.312744140625,-3.1585693359375
4.1299999000000005,-9.880870819091797,0.31364041566848755,1.0223240852355957,-14.6484375,9.2010498046875,5.1116943359375
4.1499999,-9.971850395202637,0.06703764945268631,0.6560112833976746,-2.532958984375,-1.52587890625,6.1798095703125
4.1699999000000005,-10.096348762512207,-0.16519992053508759,0.24181437492370605,10.650634765625,-10.345458984375,2.7313232421875
4.1899999,-10.156203269958496,-0.24899697303771973,-0.07900865375995636,19.9127197265625,-17.6239013671875,2.655029296875
4.209999900000001,-10.108319282531738,-0.21547815203666687,-0.031124621629714966,24.017333984375,-18.768310546875,4.3182373046875
4.2299999,-10.022128105163574,0.05027823522686958,0.33518823981285095,14.0228271484375,-14.3585205078125,5.523681640625
4.249999900000001,-9.859322547912598,0.4405331015586853,1.01753568649292,-8.97216796875,-3.173828125,1.5716552734375
4.2699999,-9.75637149810791,0.7781155705451965,1.6735470294952393,-29.693603515625,8.6822509765625,-2.044677734375
4.289999900000001,-9.6989107131958,0.9648633003234863,2.075772762298584,-36.2548828125,16.9677734375,-1.3580322265625
4.3099999,-9.66299819946289,0.768538773059845,1.9560627937316895,-24.749755859375,15.7318115234375,-0.1678466796875
4.329999900000001,-9.780313491821289,0.3902548849582672,1.41257905960083,-7.110595703125,8.636474609375,1.7852783203125
4.3499999,-9.938331604003906,-0.026336219161748886,0.6057330369949341,10.31494140625,-2.8228759765625,3.9520263671875
4.369999900000001,-10.02452278137207,-0.2753331959247589,0.06703764945268631,23.8189697265625,-17.2576904296875,1.15966796875
4.3899999,-10.170568466186523,-0.28730419278144836,-0.12210428714752197,26.0009765625,-15.7928466796875,-4.547119140625
4.409999900000001,-10.098742485046387,-0.12689268589019775,0.1364694982767105,16.1285400390625,-7.080078125,0.091552734375
4.4299999,-10.029311180114746,0.1173158809542656,0.6631938815116882,6.134033203125,-3.1890869140625,3.5400390625
4.449999900000001,-9.923966407775879,0.38546648621559143,1.1635819673538208,-0.1373291015625,-2.9754638671875,3.0517578125
4.4699999,-9.813833236694336,0.5770025849342346,1.501164436340332,-3.814697265625,2.1820068359375,-0.030517578125
4.489999900000001,-9.794678688049316,0.7326257228851318,1.6615760326385498,-1.0833740234375,6.3934326171875,-4.6234130859375
4.5099999,-9.782708168029785,0.7398083209991455,1.6208745241165161,-3.9825439453125,8.3770751953125,-2.532958984375
4.529999900000001,-9.856928825378418,0.6344634294509888,1.3982137441635132,-10.162353515625,7.9498291015625,-0.91552734375
4.5499999,-9.916783332824707,0.38307225704193115,1.0821791887283325,-8.819580078125,1.5411376953125,-0.79345703125
4.569999900000001,-9.947908401489258,0.06224924325942993,0.7709329724311829,2.2735595703125,-1.5869140625,-0.79345703125
4.5899999000000005,-10.005369186401367,-0.15562310814857483,0.5985504388809204,12.420654296875,-2.0751953125,2.9754638671875
4.609999900000001,-10.005369186401367,-0.24181437492370605,0.5339069962501526,13.0157470703125,-2.86865234375,5.2490234375
4.6299999000000005,-9.981427192687988,-0.08379705995321274,0.6224924325942993,9.58251953125,-3.1280517578125,3.2196044921875
4.6499999,-9.971850395202637,0.2825157940387726,0.790086567401886,3.35693359375,0.1373291015625,0.6103515625
4.6699999000000005,-9.914389610290527,0.5961562395095825,0.9433154463768005,-8.48388671875,0.91552734375,0.5950927734375
4.6899999,-9.923966407775879,0.8547300100326538,1.01753568649292,-14.6331787109375,1.1444091796875,-1.5869140625
4.709999900000001,-9.909601211547852,0.8020575642585754,1.0606313943862915,-7.3089599609375,-1.0528564453125,-1.495361328125
4.7299999,-9.943120002746582,0.5410895943641663,1.0319008827209473,2.044677734375,-2.655029296875,-2.8839111328125
4.749999900000001,-9.923966407775879,0.26815059781074524,1.0582371950149536,10.43701171875,-2.0599365234375,-1.0528564453125
4.7699999,-9.86650562286377,0.09576806426048279,1.2737152576446533,7.3394775390625,1.2969970703125,-0.3509521484375
4.789999900000001,-9.801861763000488,0.1867477297782898,1.5418659448623657,-7.4005126953125,11.65771484375,-1.1444091796875
4.8099999,-9.677363395690918,0.31364041566848755,1.6400281190872192,-26.3214111328125,22.7203369140625,-0.1373291015625
4.829999900000001,-9.730035781860352,0.6129156351089478,1.5538369417190552,-29.632568359375,22.2625732421875,0.335693359375
4.8499999,-9.718064308166504,0.6536170840263367,1.0630255937576294,-25.2227783203125,10.4217529296875,-2.0751953125
4.869999900000001,-10.029311180114746,0.5817909836769104,0.2537853717803955,-17.2576904296875,5.4931640625,-7.720947265625
4.8899999,-10.180145263671875,0.24899697303771973,-0.507570743560791,9.8724365234375,-13.702392578125,-2.3345947265625
4.909999900000001,-10.319009780883789,-0.2561795711517334,-0.9552865028381348,32.684326171875,-36.4532470703125,-2.197265625
4.9299999,-10.323798179626465,-0.5578489899635315,-0.7134721279144287,40.34423828125,-36.1175537109375,0.9918212890625
4.949999900000001,-10.074800491333008,-0.6536170840263367,0.20111294090747833,24.078369140625,-19.7296142578125,11.29150390625
4.9699999,-9.873687744140625,-0.29209262132644653,1.4676456451416016,-8.8348388671875,2.655029296875,10.8642578125
4.989999900000001,-9.636661529541016,0.35434186458587646,2.4612393379211426,-34.5001220703125,18.2952880859375,10.8489990234375
5.0099999,-9.564835548400879,0.9433154463768005,2.7293899059295654,-36.5142822265625,22.9644775390625,8.30078125
5.029999900000001,-9.619902610778809,1.41257905960083,2.3535003662109375,-14.251708984375,11.65771484375,-4.791259765625
5.0499999,-9.725247383117676,1.4317326545715332,1.4748282432556152,4.8980712890625,2.166748046875,-16.998291015625
5.069999900000001,-9.988609313964844,1.113303780555725,0.6631938815116882,14.923095703125,-4.058837890625,-17.2271728515625
5.0899999000000005,-10.105925559997559,0.4908113479614258,0.15322890877723694,21.05712890625,-8.7738037109375,-6.4544677734375
5.109999900000001,-10.18493366241455,-0.1412578970193863,0.05506663769483566,26.3671875,-9.979248046875,-3.6163330078125
5.1299999000000005,-10.18493366241455,-0.5003881454467773,0.33758243918418884,23.6358642578125,-8.48388671875,1.6021728515625
5.1499999,-10.031704902648926,-0.4692635238170624,0.8403648138046265,5.7525634765625,-0.8697509765625,4.058837890625
5.1699999000000005,-9.923966407775879,-0.09576806426048279,1.3862427473068237,-11.8560791015625,8.0413818359375,2.0751953125
5.1899999,-9.890447616577148,0.24420857429504395,1.53707754611969,-19.3939208984375,14.7705078125,0.8697509765625
5.209999900000001,-9.883264541625977,0.4620809257030487,1.3934253454208374,-11.4593505859375,5.7373046875,2.4261474609375
5.2299999,-9.995792388916016,0.3998316824436188,0.8930372595787048,3.2806396484375,-5.9814453125,6.500244140625
5.249999900000001,-10.055646896362305,0.19153612852096558,0.4141969084739685,16.5557861328125,-17.1051025390625,5.096435546875
5.2699999,-10.089165687561035,0.002394201699644327,0.18914192914962769,22.979736328125,-19.744873046875,1.9989013671875
5.289999900000001,-10.019734382629395,-0.07182604819536209,0.3758896589279175,24.1241455078125,-16.0369873046875,3.8299560546875
5.3099999,-9.995792388916016,0.028730420395731926,0.8236053586006165,18.341064453125,-10.9405517578125,8.60595703125
5.329999900000001,-9.825803756713867,0.31364041566848755,1.3455413579940796,8.6822509765625,-3.60107421875,8.4991455078125
5.3499999,-9.837775230407715,0.5650315880775452,1.721431016921997,0.9765625,2.7618408203125,9.09423828125
5.369999900000001,-9.799467086791992,0.768538773059845,1.7573440074920654,2.2430419921875,4.9285888671875,2.5177001953125
5.3899999,-9.904812812805176,0.8092401623725891,1.6376339197158813,18.3868408203125,-0.2593994140625,-1.5716552734375
5.409999900000001,-9.86889934539795,0.7158663272857666,1.4293384552001953,22.6898193359375,-4.8065185546875,0.0152587890625
5.4299999,-9.849745750427246,0.6392518281936646,1.3096283674240112,14.3280029296875,-1.739501953125,0.4119873046875
5.449999900000001,-9.720458984375,0.6177040338516235,1.3096283674240112,6.2103271484375,2.777099609375,-2.5482177734375
5.4699999,-9.648633003234863,0.6560112833976746,1.3335703611373901,2.471923828125,5.4779052734375,-3.9215087890625
5.489999900000001,-9.670180320739746,0.706289529800415,1.3527239561080933,2.227783203125,4.730224609375,-4.791259765625
5.5099999,-9.742006301879883,0.7230489253997803,1.338358759880066,3.204345703125,4.33349609375,-5.9356689453125
5.529999900000001,-9.816226959228516,0.6967126727104187,1.2976573705673218,3.23486328125,6.2103271484375,-6.28662109375
5.5499999,-9.840168952941895,0.5985504388809204,1.280897855758667,1.5106201171875,7.4920654296875,-5.31005859375
5.569999900000001,-9.871294021606445,0.48602294921875,1.2473790645599365,-2.3956298828125,8.4075927734375,-3.90625
5.5899999000000005,-9.892841339111328,0.3519476354122162,1.2042834758758545,-6.7138671875,9.4146728515625,-2.0599365234375
5.609999900000001,-9.914389610290527,0.2992752194404602,1.1492167711257935,-8.6822509765625,9.46044921875,-0.6103515625
5.6299999000000005,-9.959878921508789,0.28969839215278625,1.05105459690094,-7.87353515625,7.1868896484375,0.06103515625
5.6499999,-10.038887977600098,0.3495534360408783,0.9097966551780701,-6.1187744140625,4.852294921875,-1.739501953125
5.6699999000000005,-10.098742485046387,0.38546648621559143,0.7637503147125244,-3.173828125,1.739501953125,-2.5634765625
5.6899999,-10.086771965026855,0.3878606855869293,0.6344634294509888,0.0152587890625,-1.5869140625,-1.9073486328125
5.709999900000001,-10.04846477508545,0.3208230137825012,0.5913678407669067,3.6468505859375,-3.6163330078125,-2.0599365234375
5.7299999,-9.928754806518555,0.21547815203666687,0.6392518281936646,7.0037841796875,-3.60107421875,-2.1514892578125
5.749999900000001,-9.861717224121094,0.14604631066322327,0.768538773059845,9.3231201171875,-2.838134765625,1.0833740234375
5.7699999,-9.835380554199219,0.13168109953403473,0.8954314589500427,9.979248046875,-2.9144287109375,2.8076171875
5.789999900000001,-9.837775230407715,0.19153612852096558,1.0007762908935547,9.9945068359375,-3.2501220703125,1.0223388671875
5.8099999,-9.849745750427246,0.304063618183136,1.048660397529602,12.451171875,-2.410888671875,-2.197265625
5.829999900000001,-9.864110946655273,0.40462008118629456,1.0582371950149536,17.669677734375,-2.8839111328125,-4.5928955078125
5.8499999,-9.895236015319824,0.5027823448181152,1.0749965906143188,21.5911865234375,-4.7760009765625,-6.256103515625
5.869999900000001,-9.907206535339355,0.5674257874488831,1.1252747774124146,21.0113525390625,-5.2947998046875,-5.5389404296875
5.8899999,-9.919178009033203,0.6344634294509888,1.2282254695892334,16.17431640625,-2.1209716796875,-4.638671875
5.909999900000001,-9.888052940368652,0.6584054827690125,1.381454348564148,7.965087890625,2.2430419921875,-4.08935546875
5.9299999,-9.86650562286377,0.6631938815116882,1.4844050407409668,-3.11279296875,6.683349609375,-2.99072265625
5.949999900000001,-9.856928825378418,0.5961562395095825,1.4772224426269531,-10.2081298828125,8.758544921875,-1.8310546875
5.9699999,-9.859322547912598,0.4644751250743866,1.3718775510787964,-9.613037109375,7.0953369140625,-1.15966796875
5.989999900000001,-9.9000244140625,0.2825157940387726,1.2090718746185303,-5.4473876953125,5.0506591796875,-0.335693359375
6.0099999,-9.926360130310059,0.10295066982507706,1.1013327836990356,-2.7008056640625,4.8065185546875,4.608154296875
6.029999900000001,-10.199298858642578,-0.0454898327589035,1.0989385843276978,-2.044677734375,4.5166015625,11.5814208984375
6.0499999,-10.972626686096191,-0.06464344263076782,1.1324573755264282,-3.84521484375,7.8125,3.5400390625
6.069999900000001,-11.535264015197754,0.12210428714752197,1.05105459690094,-5.55419921875,4.150390625,-11.260986328125
6.0899999000000005,-12.789825439453125,0.29209262132644653,0.8667010068893433,-2.5634765625,0.3814697265625,-2.044677734375
6.109999900000001,-13.400346755981445,0.47644615173339844,0.6057330369949341,3.204345703125,-15.31982421875,-23.25439453125
6.1299999000000005,-13.548787117004395,0.3974374830722809,0.28730419278144836,7.3089599609375,-31.524658203125,-56.7474365234375
6.149999900000001,-13.081917762756348,0.14844051003456116,0.06224924325942993,16.4642333984375,-20.2484130859375,-59.3719482421875
6.1699999000000005,-11.865663528442383,-0.21308395266532898,-0.10295066982507706,30.0750732421875,-7.2479248046875,-42.877197265625
6.1899999,-10.32858657836914,-0.5171475410461426,-0.1628057211637497,39.6270751953125,-9.9639892578125,-23.284912109375
6.209999900000001,-8.877699851989746,-0.689530074596405,-0.07182604819536209,42.4652099609375,-11.41357421875,-11.77978515625
6.2299999,-7.7428483963012695,-0.7469909191131592,0.17238251864910126,40.679931640625,-0.1373291015625,-13.9923095703125
6.249999900000001,-6.998251438140869,-0.6919242739677429,0.5291185975074768,36.2396240234375,9.3994140625,-20.5535888671875
6.2699999,-6.651092529296875,-0.5530605912208557,0.9409212470054626,29.693603515625,9.613037109375,-23.3001708984375
6.289999900000001,-6.607996463775635,-0.3447650372982025,1.3407529592514038,22.3541259765625,7.7056884765625,-23.37646484375
6.3099999,-6.71334171295166,-0.14844051003456116,1.7166426181793213,14.2059326171875,5.6915283203125,-17.8070068359375
6.329999900000001,-6.967126846313477,0.05506663769483566,2.054224967956543,3.0364990234375,3.6773681640625,-2.7313232421875
6.3499999,-7.287950038909912,0.21308395266532898,2.33913516998291,-10.162353515625,2.227783203125,11.41357421875
6.369999900000001,-7.718906402587891,0.3256114423274994,2.52109432220459,-22.1405029296875,4.9591064453125,14.83154296875
6.3899999,-8.214506149291992,0.40462008118629456,2.5522189140319824,-30.9295654296875,9.46044921875,12.9547119140625
6.409999900000001,-8.707711219787598,0.40701428055763245,2.4133553504943848,-35.7513427734375,12.237548828125,12.908935546875
6.4299999,-9.232041358947754,0.3495534360408783,2.1308395862579346,-37.78076171875,17.059326171875,13.18359375
6.449999900000001,-9.725247383117676,0.22505496442317963,1.7525556087493896,-36.4227294921875,18.5699462890625,9.2926025390625
6.4699999,-10.524910926818848,-0.05985504388809204,1.0199298858642578,-24.2462158203125,1.3580322265625,11.962890625
6.489999900000001,-10.721235275268555,-0.17717093229293823,0.7422025203704834,-16.3726806640625,-0.2288818359375,17.76123046875
6.5099999,-10.771512985229492,-0.2298433631658554,0.5722141861915588,-6.805419921875,-5.4168701171875,21.78955078125
6.529999900000001,-10.740388870239258,-0.21308395266532898,0.5051765441894531,1.678466796875,-13.092041015625,24.9786376953125
6.5499999,-10.685321807861328,-0.12210428714752197,0.545877993106842,5.7373046875,-12.9241943359375,24.5208740234375
6.569999900000001,-10.642226219177246,0.019153613597154617,0.6607996821403503,5.6304931640625,-3.4637451171875,15.4876708984375
6.5899999000000005,-10.56800651550293,0.16519992053508759,0.828393816947937,3.60107421875,0.732421875,5.4779052734375
6.609999900000001,-10.45547866821289,0.24420857429504395,0.9864110946655273,0.0457763671875,-2.86865234375,5.9814453125
6.6299999000000005,-10.316615104675293,0.2561795711517334,1.0893617868423462,-3.90625,1.617431640625,9.3536376953125
6.649999900000001,-10.187328338623047,0.16759411990642548,1.1061211824417114,-5.8441162109375,19.2718505859375,0
6.6699999000000005,-10.101137161254883,0.021547814831137657,1.0414776802062988,-5.2490234375,22.64404296875,-11.2762451171875
6.6899999,-10.043676376342773,-0.14365209639072418,0.933738648891449,-4.2572021484375,6.65283203125,-10.9100341796875
6.709999900000001,-9.921571731567383,-0.3208230137825012,0.8259995579719543,-2.0294189453125,-4.2877197265625,-0.30517578125
6.7299999,-9.718064308166504,-0.4429273009300232,0.7661445140838623,0.8544921875,-3.2806396484375,14.556884765625
6.749999900000001,-9.943120002746582,-0.5602431893348694,0.8164227604866028,1.8463134765625,1.068115234375,16.4337158203125
6.7699999,-10.11789608001709,-0.35673606395721436,0.8834604024887085,-1.0986328125,-0.1220703125,-8.7432861328125
6.789999900000001,-10.517727851867676,-0.24420857429504395,0.9193734526634216,-2.9144287109375,1.7547607421875,-0.5645751953125
6.8099999,-10.702081680297852,0.13407529890537262,0.8954314589500427,-2.716064453125,-0.2593994140625,0.42724609375
6.829999900000001,-10.556035041809082,0.37828385829925537,0.7733271718025208,-1.6326904296875,-4.7149658203125,-6.103515625
6.8499999,-10.319009780883789,0.5530605912208557,0.7110779285430908,-0.30517578125,-6.2103271484375,-9.368896484375
6.869999900000001,-10.093954086303711,0.6272808313369751,0.7445967197418213,-0.0762939453125,-5.7830810546875,-11.9476318359375
6.8899999,-9.96945571899414,0.545877993106842,0.9145850539207458,-1.5106201171875,-4.21142578125,-13.7786865234375
6.909999900000001,-9.856928825378418,0.3926490843296051,1.1851298809051514,-4.6234130859375,-0.335693359375,-13.458251953125
6.9299999,-9.761159896850586,0.19153612852096558,1.4628572463989258,-8.36181640625,5.18798828125,-12.1002197265625
6.949999900000001,-9.710882186889648,-0.05506663769483566,1.6376339197158813,-11.7340087890625,10.0250244140625,-10.650634765625
6.9699999,-9.6989107131958,-0.2753331959247589,1.6879122257232666,-13.3514404296875,12.51220703125,-7.6904296875
6.989999900000001,-9.744400978088379,-0.45250412821769714,1.6352397203445435,-13.8397216796875,13.7176513671875,-4.5318603515625
7.0099999,-9.806650161743164,-0.5746083855628967,1.4987702369689941,-16.6015625,16.754150390625,-2.471923828125
7.029999900000001,-9.885659217834473,-0.6560112833976746,1.2473790645599365,-19.2718505859375,18.1121826171875,-0.7476806640625
7.0499999,-9.928754806518555,-0.5889736413955688,0.9720458984375,-22.2930908203125,14.312744140625,2.3193359375
7.069999900000001,-9.931148529052734,-0.4357447028160095,0.6200982332229614,-29.632568359375,12.542724609375,4.82177734375
7.0899999000000005,-10.002974510192871,-0.2322375625371933,0.3064578175544739,-32.16552734375,8.72802734375,5.3558349609375
7.109999900000001,-10.074800491333008,-0.26096799969673157,-0.028730420395731926,-25.93994140625,0.732421875,3.5858154296875
7.1299999000000005,-10.163386344909668,-0.37828385829925537,-0.31603461503982544,-10.9710693359375,-10.5133056640625,4.82177734375
7.149999900000001,-10.24239444732666,-0.569819986820221,-0.40701428055763245,6.9732666015625,-18.4173583984375,6.8359375
7.1699999000000005,-10.201693534851074,-0.6751648783683777,-0.3208230137825012,19.2413330078125,-18.9971923828125,4.119873046875
7.1899999,-10.168174743652344,-0.5195417404174805,-0.016759412363171577,24.6124267578125,-17.364501953125,-3.6773681640625
7.209999900000001,-10.022128105163574,-0.13168109953403473,0.40940847992897034,28.86962890625,-16.9219970703125,-2.1514892578125
7.2299999,-9.921571731567383,0.1412578970193863,0.9217676520347595,24.4293212890625,-16.1895751953125,-0.9918212890625
7.249999900000001,-9.744400978088379,0.4908113479614258,1.3192051649093628,11.04736328125,-11.871337890625,-8.514404296875
7.2699999,-9.744400978088379,0.44532153010368347,1.742978811264038,-5.67626953125,-2.44140625,-7.6141357421875
7.289999900000001,-9.560047149658203,0.33997663855552673,2.078166961669922,-18.310546875,5.401611328125,-7.4310302734375
7.3099999,-9.615114212036133,0.1388636976480484,2.250549554824829,-22.88818359375,12.5885009765625,-2.3956298828125
7.329999900000001,-9.627084732055664,-0.10295066982507706,2.341529369354248,-23.92578125,19.989013671875,5.4931640625
7.3499999,-9.651026725769043,-0.2059013396501541,2.0398597717285156,-25.634765625,23.7274169921875,-1.922607421875
7.369999900000001,-9.832986831665039,-0.36152446269989014,1.6112977266311646,-21.6217041015625,20.0042724609375,-1.739501953125
7.3899999,-9.923966407775879,-0.5291185975074768,0.8858546018600464,-11.5966796875,10.0555419921875,4.6844482421875
7.409999900000001,-10.055646896362305,-0.727837324142456,0.11252748221158981,1.6021728515625,4.638671875,0.8697509765625
7.4299999,-10.24239444732666,-0.9241618514060974,-0.35434186458587646,18.06640625,-3.5552978515625,5.7373046875
7.449999900000001,-10.223240852355957,-0.8690952062606812,-0.7350199222564697,20.263671875,-16.387939453125,8.8653564453125
7.4699999,-10.199298858642578,-0.7182605266571045,-0.48602294921875,15.7928466796875,-17.7154541015625,6.0882568359375
7.489999900000001,-10.122684478759766,-0.272938996553421,-0.016759412363171577,5.1116943359375,-14.5263671875,3.143310546875
7.5099999,-9.928754806518555,0.038307227194309235,0.6368576288223267,-18.1884765625,-4.5166015625,2.9144287109375
7.529999900000001,-9.84256362915039,0.31842881441116333,1.0606313943862915,-21.240234375,1.068115234375,3.265380859375
7.5499999,-9.967061996459961,0.26096799969673157,1.338358759880066,-2.197265625,-9.33837890625,3.6468505859375
7.569999900000001,-9.96945571899414,0.09576806426048279,1.0414776802062988,9.674072265625,-11.9781494140625,1.983642578125
7.5899999000000005,-10.055646896362305,-0.14604631066322327,0.9433154463768005,24.7039794921875,-17.88330078125,-0.4119873046875
7.609999900000001,-10.005369186401367,-0.18914192914962769,0.8738836050033569,27.252197265625,-21.1334228515625,2.0751953125
7.6299999000000005,-9.909601211547852,-0.27054479718208313,1.1492167711257935,8.4228515625,-6.072998046875,1.9989013671875
7.649999900000001,-9.81143856048584,-0.004788403399288654,1.5442601442337036,-6.866455078125,0.274658203125,2.7618408203125
7.6699999000000005,-9.751583099365234,-0.004788403399288654,1.9321208000183105,-16.571044921875,4.302978515625,6.3629150390625
7.6899999,-9.751583099365234,0.14844051003456116,2.0590133666992188,-17.4102783203125,11.260986328125,2.227783203125
7.709999900000001,-9.775525093078613,0.17717093229293823,2.0015525817871094,-12.4664306640625,8.97216796875,1.77001953125
7.7299999,-9.765948295593262,0.040701430290937424,1.7381904125213623,-15.899658203125,12.1612548828125,2.838134765625
7.749999900000001,-9.81143856048584,0.08619125932455063,1.2617442607879639,-12.87841796875,13.427734375,0.67138671875
7.7699999,-9.945513725280762,-0.16519992053508759,0.8355764150619507,-2.227783203125,0.9307861328125,4.08935546875
7.789999900000001,-9.835380554199219,-0.15801730751991272,0.35913026332855225,7.904052734375,-6.7901611328125,0.4119873046875
7.8099999,-10.101137161254883,-0.19871874153614044,0.2513911724090576,11.53564453125,-6.103515625,-0.4119873046875
7.829999900000001,-9.86650562286377,-0.08619125932455063,0.395043283700943,5.0811767578125,-6.9580078125,-1.5716552734375
7.8499999,-10.019734382629395,0.031124621629714966,0.7398083209991455,-3.1890869140625,0.335693359375,-1.0528564453125
7.869999900000001,-9.909601211547852,0.0933738648891449,1.1635819673538208,-12.451171875,0.2288818359375,7.5531005859375
7.8899999,-9.849745750427246,0.038307227194309235,1.2473790645599365,-21.240234375,0.54931640625,6.53076171875
7.909999900000001,-9.945513725280762,-0.014365210197865963,1.3479355573654175,-13.763427734375,-0.1983642578125,1.3427734375
7.9299999,-9.907206535339355,-0.14365209639072418,1.1492167711257935,-0.2899169921875,-4.8828125,3.631591796875
7.949999900000001,-10.074800491333008,-0.26575639843940735,0.9552865028381348,9.124755859375,-5.096435546875,2.1820068359375
7.9699999,-10.065223693847656,-0.1412578970193863,0.7805097699165344,25.8941650390625,-12.8631591796875,1.1444091796875
7.989999900000001,-10.077195167541504,-0.047884032130241394,0.8834604024887085,31.3873291015625,-15.2587890625,-0.1373291015625
8.0099999,-9.921571731567383,0.2825157940387726,1.1013327836990356,19.378662109375,-7.0648193359375,-6.072998046875
8.0299999,-9.84495735168457,0.4884171485900879,1.7142484188079834,-2.38037109375,3.326416015625,-6.988525390625
8.049999900000001,-9.672574996948242,0.6584054827690125,2.126051187515259,-26.4739990234375,13.946533203125,-3.5552978515625
8.069999900000001,-9.6989107131958,0.4908113479614258,2.2816741466522217,-34.2559814453125,21.8505859375,0.152587890625
8.0899999,-9.768342971801758,0.2801215946674347,2.0207061767578125,-20.4925537109375,14.9993896484375,5.0811767578125
8.1099999,-9.864110946655273,-0.011971008032560349,1.3742717504501343,-0.8697509765625,2.4871826171875,1.434326171875
8.129999900000001,-10.053253173828125,-0.31364041566848755,0.7493851184844971,13.4735107421875,-3.5400390625,-4.6844482421875
8.149999900000001,-10.036493301391602,-0.2849099934101105,0.3016694188117981,16.5557861328125,-7.75146484375,-1.739501953125
8.1699999,-10.067618370056152,-0.35434186458587646,0.21547815203666687,12.7105712890625,-6.89697265625,-0.9613037109375
8.1899999,-10.022128105163574,-0.15083470940589905,0.3663128614425659,8.6669921875,-8.3160400390625,1.5716552734375
8.2099999,-9.99339771270752,-0.05267243832349777,0.7326257228851318,7.4005126953125,-9.5672607421875,3.96728515625
8.229999900000001,-9.95748519897461,0.026336219161748886,1.2090718746185303,3.662109375,-5.035400390625,-3.1890869140625
8.2499999,-9.883264541625977,0.16519992053508759,1.5729905366897583,-6.2103271484375,3.173828125,-1.8157958984375
8.2699999,-9.799467086791992,0.12689268589019775,1.946485996246338,-11.9781494140625,8.2550048828125,2.7313232421875
8.2899999,-9.708487510681152,0.24660277366638184,2.0661959648132324,-16.11328125,10.3912353515625,3.814697265625
8.309999900000001,-9.773131370544434,0.2106897532939911,2.0470423698425293,-23.92578125,14.09912109375,4.1046142578125
8.3299999,-9.744400978088379,0.24420857429504395,1.8387469053268433,-24.5513916015625,14.129638671875,-1.190185546875
8.3499999,-9.90241813659668,0.19632454216480255,1.335964560508728,-14.312744140625,13.1988525390625,-1.2969970703125
8.3699999,-9.837775230407715,-0.0071826050989329815,0.8355764150619507,5.6304931640625,2.0599365234375,-1.64794921875
8.389999900000001,-10.014945983886719,-0.12689268589019775,0.2537853717803955,24.8565673828125,-5.37109375,-5.767822265625
8.4099999,-10.091560363769531,-0.38307225704193115,0.011971008032560349,36.7431640625,-11.9781494140625,-1.1444091796875
8.4299999,-10.091560363769531,-0.3064578175544739,0.15322890877723694,38.1622314453125,-16.9830322265625,0.0457763671875
8.4499999,-10.103530883789062,-0.21787235140800476,0.7565677165985107,22.918701171875,-7.8887939453125,-3.7994384765625
8.469999900000001,-9.911994934082031,0.026336219161748886,1.359906554222107,-4.5318603515625,7.7362060546875,-1.1138916015625
8.4899999,-9.81143856048584,0.1867477297782898,1.9033904075622559,-16.5557861328125,14.1754150390625,4.2877197265625
8.5099999,-9.785101890563965,0.29209262132644653,1.9967641830444336,-12.847900390625,10.4827880859375,2.0751953125
8.5299999,-9.8784761428833,0.12449848651885986,1.6543933153152466,-6.8511962890625,6.3323974609375,4.119873046875
8.549999900000001,-9.947908401489258,0.040701430290937424,1.292868971824646,1.7852783203125,1.129150390625,5.2642822265625
8.569999900000001,-10.06043529510498,-0.21787235140800476,0.8164227604866028,5.645751953125,-2.7923583984375,6.3323974609375
8.5899999,-10.156203269958496,-0.47644615173339844,0.3902548849582672,12.02392578125,-3.6468505859375,8.6517333984375
8.6099999,-10.333374977111816,-0.5410895943641663,0.12928688526153564,41.168212890625,-15.7318115234375,7.2784423828125
8.629999900000001,-10.517727851867676,-0.45010992884635925,0.028730420395731926,56.6253662109375,-26.67236328125,6.9580078125
8.649999900000001,-10.680533409118652,-0.009576806798577309,0.30885201692581177,43.3502197265625,-22.735595703125,1.5106201171875
8.6699999,-10.81700325012207,0.5578489899635315,0.9289502501487732,18.6004638671875,-11.5814208984375,-0.762939453125
8.6899999,-10.864887237548828,1.0965443849563599,1.678335428237915,-4.058837890625,-1.7852783203125,-4.3792724609375
8.709999900000001,-10.819397926330566,1.400607943534851,2.27209734916687,-19.7906494140625,4.1351318359375,-8.9569091796875
8.729999900000001,-10.6709566116333,1.381454348564148,2.4899697303771973,-25.970458984375,12.3138427734375,-9.33837890625
8.7499999,-10.517727851867676,1.1013327836990356,2.3295583724975586,-24.3988037109375,26.3824462890625,-9.490966796875
8.7699999,-10.307038307189941,0.6009446382522583,1.867477297782898,-17.974853515625,21.8048095703125,-10.2691650390625
8.7899999,-10.141838073730469,0.031124621629714966,1.3096283674240112,-9.21630859375,8.0413818359375,-7.843017578125
8.809999900000001,-9.967061996459961,-0.5003881454467773,0.8259995579719543,-0.8392333984375,1.7547607421875,-4.852294921875
8.8299999,-9.761159896850586,-0.8882488012313843,0.507570743560791,4.7607421875,-1.3427734375,-6.317138671875
8.8499999,-9.47146224975586,-1.115697979927063,0.3734954595565796,7.4310302734375,0.6103515625,-14.556884765625
8.8699999,-9.153033256530762,-1.173158884048462,0.3878606855869293,8.575439453125,9.246826171875,-21.514892578125
8.889999900000001,-8.81784439086914,-1.094150185585022,0.5051765441894531,8.148193359375,11.6729736328125,-18.829345703125
8.9099999,-8.544905662536621,-0.9169792532920837,0.6775590777397156,6.0882568359375,5.7830810546875,-10.8642578125
8.9299999,-8.38449478149414,-0.6655880808830261,0.8690952062606812,4.2572021484375,0.5340576171875,-6.1492919921875
8.9499999,-8.40843677520752,-0.3758896589279175,1.0654197931289673,2.38037109375,2.74658203125,-4.21142578125
8.969999900000001,-8.619126319885254,-0.08619125932455063,1.2521674633026123,-1.434326171875,5.523681640625,-0.8697509765625
8.9899999,-8.947132110595703,0.14844051003456116,1.4077905416488647,-7.293701171875,3.35693359375,1.953125
9.0099999,-9.35893440246582,0.31364041566848755,1.501164436340332,-12.4053955078125,4.7607421875,0.9613037109375
9.0299999,-9.734824180603027,0.3902548849582672,1.5083470344543457,-14.923095703125,9.8419189453125,-2.0599365234375
9.049999900000001,-10.012551307678223,0.3902548849582672,1.4173674583435059,-14.8773193359375,10.8795166015625,-0.5035400390625
9.069999900000001,-10.192116737365723,0.3447650372982025,1.2449848651885986,-12.786865234375,7.4462890625,4.486083984375
9.0899999,-10.27591323852539,0.272938996553421,1.0319008827209473,-8.697509765625,5.1116943359375,3.082275390625
9.1099999,-10.254365921020508,0.181959331035614,0.8164227604866028,-3.6468505859375,4.913330078125,-4.3792724609375
9.129999900000001,-10.156203269958496,0.0933738648891449,0.6536170840263367,1.4190673828125,2.5634765625,-4.7149658203125
9.149999900000001,-10.005369186401367,0.014365210197865963,0.5554547905921936,5.523681640625,-0.5950927734375,3.2806396484375
9.1699999,-9.823410034179688,-0.043095629662275314,0.5506663918495178,8.85009765625,-4.57763671875,7.8277587890625
9.1899999,-9.715670585632324,-0.07422025501728058,0.646434485912323,10.223388671875,-8.544921875,7.62939453125
9.209999900000001,-9.744400978088379,-0.05746084079146385,0.8188169598579407,8.8653564453125,-12.14599609375,7.415771484375
9.229999900000001,-9.852140426635742,-0.033518824726343155,1.036689281463623,6.4697265625,-13.1683349609375,5.157470703125
9.2499999,-10.029311180114746,-0.004788403399288654,1.256955862045288,4.6539306640625,-8.8043212890625,1.4801025390625
9.2699999,-10.20648193359375,0.014365210197865963,1.4437036514282227,3.0364990234375,-4.6539306640625,0.91552734375
9.2899999,-10.357316970825195,0.011971008032560349,1.577778935432434,-0.030517578125,-8.9874267578125,3.3111572265625
9.309999900000001,-10.362105369567871,-0.019153613597154617,1.6400281190872192,-4.3792724609375,-14.251708984375,1.6632080078125
9.3299999,-10.271124839782715,-0.07900865375995636,1.6089035272598267,-7.1258544921875,-1.3275146484375,-4.6234130859375
9.3499999,-10.074800491333008,-0.1604115068912506,1.4963760375976562,-5.950927734375,12.2833251953125,-5.7373046875
9.3699999,-9.835380554199219,-0.24660277366638184,1.3431471586227417,-4.5623779296875,3.5552978515625,2.0599365234375
9.389999900000001,-9.643844604492188,-0.2944868206977844,1.1994950771331787,-5.0506591796875,-8.97216796875,9.2620849609375
9.4099999,-9.473855972290039,-0.31124621629714966,1.1061211824417114,-5.615234375,-9.9639892578125,9.063720703125
9.4299999,-9.332598686218262,-0.272938996553421,1.070208191871643,-6.16455078125,-3.2501220703125,8.453369140625
9.4499999,-9.68694019317627,-0.24181437492370605,1.072602391242981,-7.537841796875,5.67626953125,7.01904296875
9.469999900000001,-9.923966407775879,-0.08379705995321274,0.9888052940368652,-9.70458984375,10.223388671875,-6.5460205078125
9.4899999,-10.376470565795898,-0.002394201699644327,0.8379706144332886,-8.148193359375,7.1868896484375,5.828857421875
9.5099999,-10.563218116760254,0.13407529890537262,0.6536170840263367,-3.1585693359375,-1.15966796875,3.5247802734375
9.5299999,-10.474632263183594,0.1628057211637497,0.4357447028160095,2.5634765625,-6.4239501953125,-5.4168701171875
9.549999900000001,-10.321403503417969,0.05267243832349777,0.3423708379268646,9.9334716796875,-9.246826171875,-5.279541015625
9.569999900000001,-10.199298858642578,-0.05027823522686958,0.42616790533065796,17.88330078125,-13.6566162109375,-1.373291015625
9.5899999,-10.110713958740234,-0.1604115068912506,0.6871358752250671,17.974853515625,-14.46533203125,-0.48828125
9.6099999,-9.979032516479492,-0.1173158809542656,1.1252747774124146,13.3056640625,-9.09423828125,-1.0986328125
9.629999900000001,-9.799467086791992,0.021547814831137657,1.6663644313812256,9.7503662109375,-1.2969970703125,-3.5858154296875
9.649999900000001,-9.622296333312988,0.22266076505184174,2.183511972427368,0.640869140625,7.3089599609375,-5.218505859375
9.6699999,-9.50737476348877,0.42856210470199585,2.5665841102600098,-14.5263671875,17.425537109375,-5.3558349609375
9.6899999,-9.478644371032715,0.5602431893348694,2.691082715988159,-24.627685546875,25.9552001953125,-7.0953369140625
9.709999900000001,-9.543288230895996,0.5578489899635315,2.5546131134033203,-29.3731689453125,28.7017822265625,-9.0179443359375
9.729999900000001,-9.59835433959961,0.4165911078453064,2.145204782485962,-42.1142578125,30.670166015625,-6.500244140625
9.7499999,-9.746794700622559,0.11252748221158981,1.4867992401123047,-51.5899658203125,29.2510986328125,-0.7171630859375
9.7699999,-9.962273597717285,-0.3423708379268646,0.586579442024231,-38.9251708984375,18.5699462890625,3.6468505859375
9.7899999,-10.196905136108398,-0.8619126081466675,-0.4213795065879822,-7.5531005859375,-1.6326904296875,5.584716796875
9.809999900000001,-10.414777755737305,-1.3958195447921753,-1.3024457693099976,26.7486572265625,-21.5301513671875,7.080078125
9.8299999,-10.56800651550293,-1.6065093278884888,-1.7573440074920654,52.30712890625,-36.0870361328125,10.19287109375
9.8499999,-10.429142951965332,-1.53707754611969,-1.6424223184585571,61.0809326171875,-42.9840087890625,9.918212890625
9.8699999,-10.304644584655762,-0.8954314589500427,-0.849941611289978,54.0008544921875,-37.872314453125,9.857177734375
9.889999900000001,-9.981427192687988,0.06224924325942993,0.42377370595932007,31.67724609375,-33.721923828125,8.575439453125
9.9099999,-9.600749015808105,1.0845733880996704,1.9273324012756348,-3.2806396484375,-17.242431640625,0.1983642578125
9.9299999,-9.41400146484375,1.86508309841156,3.1938650608062744,-32.196044921875,8.2855224609375,-9.246826171875
9.9499999,-9.174580574035645,2.0470423698425293,3.955221176147461,-48.6297607421875,19.805908203125,-13.5040283203125
9.969999900000001,-9.174580574035645,1.867477297782898,4.027047157287598,-55.0994873046875,29.5867919921875,-13.763427734375
9.9899999,-9.366117477416992,1.161187767982483,3.509899616241455,-50.35400390625,34.36279296875,-10.2081298828125
10.0099999,-9.53849983215332,0.31842881441116333,2.580949544906616,-35.94970703125,30.8380126953125,-8.2855224609375
10.0299999,-9.880870819091797,-0.5123591423034668,1.4413094520568848,-12.0697021484375,23.590087890625,-7.5531005859375
10.049999900000001,-10.062829971313477,-1.2306196689605713,0.47405192255973816,10.894775390625,12.1307373046875,-2.716064453125
10.069999900000001,-10.220847129821777,-1.5514427423477173,-0.3256114423274994,16.3726806640625,3.8909912109375,-1.15966796875
10.0899999,-10.299856185913086,-1.5610195398330688,-0.6488286852836609,15.411376953125,1.03759765625,2.8228759765625
10.1099999,-10.20887565612793,-1.1971008777618408,-0.5339069962501526,13.092041015625,-7.720947265625,5.9051513671875
10.129999900000001,-10.101137161254883,-0.6560112833976746,-0.28730419278144836,4.5318603515625,-8.1024169921875,3.082275390625
10.149999900000001,-10.074800491333008,-0.1628057211637497,0.2585737705230713,-1.9989013671875,-4.9591064453125,0.885009765625
10.1699999,-9.883264541625977,0.2753331959247589,0.6200982332229614,-8.6212158203125,-7.87353515625,-4.5166015625
10.1899999,-9.921571731567383,0.35434186458587646,1.0821791887283325,-11.688232421875,-3.23486328125,-3.631591796875
10.209999900000001,-9.799467086791992,0.35673606395721436,1.403002142906189,-11.4288330078125,-2.3040771484375,3.143310546875
10.229999900000001,-9.751583099365234,0.016759412363171577,1.5442601442337036,-16.387939453125,-0.762939453125,-0.274658203125
10.2499999,-9.746794700622559,-0.2944868206977844,1.6950948238372803,-13.3209228515625,5.462646484375,5.767822265625
10.2699999,-9.799467086791992,-0.727837324142456,1.5298948287963867,-8.0718994140625,2.5177001953125,8.9874267578125
10.2899999,-9.871294021606445,-0.8978256583213806,1.2210428714752197,-1.9378662109375,0.732421875,8.636474609375
10.309999900000001,-10.072406768798828,-0.9528923034667969,0.7757213711738586,16.448974609375,-3.387451171875,12.0086669921875
10.3299999,-10.08437728881836,-0.6607996821403503,0.31603461503982544,31.219482421875,-14.70947265625,8.7127685546875
10.3499999,-10.146626472473145,-0.20350714027881622,0.07661445438861847,34.9273681640625,-23.3306884765625,-0.8392333984375
10.3699999,-9.890447616577148,0.8379706144332886,0.9672574996948242,-7.32421875,-8.6822509765625,-7.354736328125
10.389999900000001,-9.806650161743164,1.0414776802062988,1.8411411046981812,-31.8450927734375,8.636474609375,-9.5977783203125
10.4099999,-9.612719535827637,0.993593692779541,2.43011474609375,-37.17041015625,15.655517578125,-4.21142578125
10.4299999,-9.519346237182617,0.5410895943641663,2.6431987285614014,-29.4342041015625,17.4560546875,-4.180908203125
10.4499999,-9.66299819946289,0.06703764945268631,2.410961151123047,-14.3890380859375,16.7388916015625,-4.1046142578125
10.469999900000001,-9.619902610778809,-0.5626373887062073,1.7980455160140991,-8.1024169921875,12.0849609375,3.2958984375
10.4899999,-9.847352027893066,-0.8020575642585754,1.1851298809051514,-4.1046142578125,13.24462890625,-1.4495849609375
10.5099999,-10.06043529510498,-0.8978256583213806,0.5027823448181152,3.3111572265625,4.150390625,4.547119140625
10.5299999,-10.08437728881836,-0.7876923680305481,0.090979665517807,6.0272216796875,-6.7138671875,7.8125
10.549999900000001,-10.29746150970459,-0.47884035110473633,-0.043095629662275314,10.6048583984375,-10.4217529296875,-3.875732421875
10.569999900000001,-10.225635528564453,-0.28969839215278625,0.12449848651885986,13.12255859375,-10.68115234375,-4.8980712890625
10.5899999,-10.11789608001709,-0.13168109953403473,0.44532153010368347,9.5062255859375,-6.3934326171875,0.1068115234375
10.6099999,-10.077195167541504,-0.05985504388809204,0.9457096457481384,9.0484619140625,-5.218505859375,-0.6866455078125
10.629999900000001,-9.928754806518555,0.0694318488240242,1.3072341680526733,3.8909912109375,-5.035400390625,2.7008056640625
10.649999900000001,-9.801861763000488,0.09816227108240128,1.6543933153152466,-5.55419921875,1.5716552734375,-1.2664794921875
10.6699999,-9.780313491821289,0.23942017555236816,1.8698714971542358,-9.9029541015625,6.6986083984375,-7.171630859375
10.6899999,-9.677363395690918,0.17238251864910126,1.8986018896102905,-16.78466796875,8.72802734375,-2.838134765625
10.709999900000001,-9.746794700622559,0.040701430290937424,1.8171991109848022,-19.378662109375,14.923095703125,-2.6092529296875
10.729999900000001,-9.856928825378418,-0.1173158809542656,1.3910311460494995,-9.33837890625,9.4757080078125,-0.3204345703125
10.7499999,-9.916783332824707,-0.4405331015586853,0.9911994934082031,5.7220458984375,-2.0751953125,0.7171630859375
10.7699999,-10.070012092590332,-0.5410895943641663,0.49799394607543945,16.5557861328125,-6.5155029296875,-6.072998046875
10.7899999,-10.08198356628418,-0.5961562395095825,0.3447650372982025,17.059326171875,-9.0789794921875,-0.91552734375
10.809999900000001,-10.029311180114746,-0.5219359993934631,0.43095630407333374,7.7972412109375,-4.3792724609375,2.2430419921875
10.8299999,-10.031704902648926,-0.26815059781074524,0.6799532771110535,-0.6866455078125,-2.74658203125,2.3956298828125
10.8499999,-9.883264541625977,-0.1867477297782898,1.072602391242981,-6.89697265625,-3.47900390625,7.7667236328125
10.8699999,-9.835380554199219,0.033518824726343155,1.3192051649093628,-10.2691650390625,-0.0457763671875,1.617431640625
10.889999900000001,-9.84495735168457,-0.047884032130241394,1.4197616577148438,-13.3056640625,2.532958984375,0.579833984375
10.9099999,-9.674968719482422,-0.05985504388809204,1.4245500564575195,-10.0555419921875,3.2501220703125,4.4708251953125
10.9299999,-9.828198432922363,-0.16519992053508759,1.2545616626739502,-2.1820068359375,1.6632080078125,1.068115234375
10.9499999,-9.840168952941895,-0.21308395266532898,1.094150185585022,-0.9613037109375,-3.8909912109375,3.4637451171875
10.969999900000001,-10.010157585144043,-0.30885201692581177,0.9600749015808105,2.3193359375,-3.6163330078125,3.0670166015625
10.9899999,-10.08198356628418,-0.2944868206977844,1.0869675874710083,10.0250244140625,-4.08935546875,-3.021240234375
11.0099999,-10.105925559997559,-0.26096799969673157,1.0869675874710083,7.0037841796875,2.0904541015625,-1.251220703125
11.0299999,-10.04846477508545,-0.19153612852096558,1.314416766166687,7.537841796875,5.0506591796875,2.471923828125
11.049999900000001,-9.938331604003906,0.028730420395731926,1.3551181554794312,10.284423828125,0.5035400390625,-1.03759765625
11.069999900000001,-9.964667320251465,0.17956513166427612,1.414973258972168,8.0108642578125,3.6163330078125,-2.4566650390625
11.0899999,-9.835380554199219,0.28969839215278625,1.501164436340332,1.7547607421875,5.0506591796875,-4.5166015625
11.1099999,-9.84495735168457,0.2753331959247589,1.436521053314209,-10.31494140625,10.2996826171875,-8.4228515625
11.129999900000001,-9.847352027893066,0.0933738648891449,1.3239935636520386,-13.1683349609375,15.777587890625,-1.8310546875
11.149999900000001,-9.926360130310059,-0.14365209639072418,1.0247182846069336,-2.5482177734375,7.01904296875,2.899169921875
11.1699999,-10.055646896362305,-0.4596867263317108,0.6584054827690125,14.373779296875,-4.5623779296875,3.2958984375
11.1899999,-10.137049674987793,-0.6153098344802856,0.45489832758903503,23.9105224609375,-10.4827880859375,2.6092529296875
11.209999900000001,-10.103530883789062,-0.7541735172271729,0.48602294921875,19.71435546875,-5.950927734375,2.9144287109375
11.229999900000001,-10.170568466186523,-0.871489405632019,0.45010992884635925,19.3634033203125,-2.7008056640625,6.134033203125
11.2499999,-10.132261276245117,-0.7972691655158997,0.6009446382522583,41.3818359375,-11.6119384765625,11.8408203125
11.2699999,-10.072406768798828,-0.6320692300796509,0.689530074596405,49.5758056640625,-19.2413330078125,11.41357421875
11.2899999,-10.002974510192871,-0.2298433631658554,0.9983820915222168,32.2723388671875,-11.962890625,14.4805908203125
11.309999900000001,-9.804255485534668,0.3711012601852417,1.556231141090393,5.401611328125,1.6021728515625,14.6636962890625
11.3299999,-9.897629737854004,0.9481038451194763,2.123656988143921,-20.5230712890625,13.9007568359375,1.6632080078125
11.3499999,-10.002974510192871,1.3311761617660522,2.4013843536376953,-34.2254638671875,17.8680419921875,-11.29150390625
11.3699999,-10.374075889587402,1.4269442558288574,2.3032219409942627,-34.7442626953125,18.4173583984375,-7.232666015625
11.389999900000001,-10.891223907470703,1.1180921792984009,1.8195933103561401,-27.1759033203125,14.6484375,-0.30517578125
11.4099999,-11.137825965881348,0.6200982332229614,1.170764684677124,-15.472412109375,6.7596435546875,-14.2669677734375
11.4299999,-11.511322021484375,0.016759412363171577,0.5770025849342346,-0.9918212890625,-0.79345703125,-10.7879638671875
11.4499999,-11.563994407653809,-0.4213795065879822,0.16998831927776337,12.9852294921875,-8.48388671875,-5.828857421875
11.469999900000001,-11.3269681930542,-0.6368576288223267,-0.028730420395731926,19.5159912109375,-14.404296875,-11.4593505859375
11.4899999,-10.855310440063477,-0.6320692300796509,-0.033518824726343155,21.0723876953125,-7.4462890625,-14.46533203125
11.5099999,-10.170568466186523,-0.5027823448181152,0.09576806426048279,20.8587646484375,1.8157958984375,-13.97705078125
11.5299999,-9.394847869873047,-0.3447650372982025,0.2992752194404602,16.90673828125,3.2958984375,-11.0321044921875
11.549999900000001,-8.695740699768066,-0.22266076505184174,0.5315127968788147,9.3841552734375,4.5318603515625,-6.7138671875
11.569999900000001,-8.185775756835938,-0.16759411990642548,0.7398083209991455,1.8157958984375,14.70947265625,-5.4931640625
11.5899999,-7.90086555480957,-0.2059013396501541,0.8834604024887085,-2.471923828125,22.5982666015625,-6.4239501953125
11.6099999,-7.898471355438232,-0.28969839215278625,0.9576807022094727,-4.119873046875,21.5301513671875,-5.9051513671875
11.629999900000001,-8.145073890686035,-0.40940847992897034,0.9792284965515137,-4.5318603515625,18.707275390625,-6.9122314453125
11.649999900000001,-8.540117263793945,-0.5315127968788147,1.0079588890075684,-1.9073486328125,14.2364501953125,-7.568359375
11.6699999,-8.995016098022461,-0.6344634294509888,1.0749965906143188,2.0599365234375,7.110595703125,-2.01416015625
11.6899999,-9.457097053527832,-0.6727706789970398,1.1827356815338135,3.875732421875,2.899169921875,3.4942626953125
11.709999900000001,-9.832986831665039,-0.6488286852836609,1.3239935636520386,3.8299560546875,2.3345947265625,-0.732421875
11.729999900000001,-10.096348762512207,-0.5482721924781799,1.4772224426269531,1.8768310546875,0.67138671875,-6.4849853515625
11.7499999,-10.216058731079102,-0.4118026793003082,1.599326729774475,-3.387451171875,-1.3885498046875,-4.69970703125
11.7699999,-10.160991668701172,-0.26575639843940735,1.659181833267212,-9.4451904296875,-2.44140625,0.152587890625
11.7899999,-10.000580787658691,-0.14365209639072418,1.6304513216018677,-12.939453125,1.5869140625,0.7781982421875
11.809999900000001,-9.832986831665039,-0.0694318488240242,1.5179238319396973,-13.427734375,5.31005859375,-0.3204345703125
11.8299999,-9.72285270690918,-0.038307227194309235,1.3287819623947144,-12.359619140625,0.48828125,0.7476806640625
11.8499999,-9.670180320739746,-0.05506663769483566,1.1109095811843872,-9.796142578125,-5.1727294921875,0.18310546875
11.8699999,-9.66539192199707,-0.0933738648891449,0.9026140570640564,-5.9051513671875,-2.3345947265625,-1.434326171875
11.889999900000001,-9.658209800720215,-0.12689268589019775,0.7206547260284424,-2.6702880859375,-2.044677734375,2.25830078125
11.9099999,-9.648633003234863,-0.12928688526153564,0.586579442024231,-0.8544921875,-8.575439453125,10.1776123046875
11.9299999,-9.651026725769043,-0.08858546614646912,0.5051765441894531,0.1068115234375,-7.720947265625,11.90185546875
11.9499999,-9.682151794433594,-0.011971008032560349,0.47644615173339844,-0.0152587890625,2.9144287109375,6.622314453125
11.969999900000001,-10.340557098388672,0,0.5482721924781799,-2.227783203125,8.7432861328125,2.50244140625
11.9899999,-10.579977035522461,0.07661445438861847,0.569819986820221,-5.0811767578125,1.220703125,-11.8865966796875
12.0099999,-11.101913452148438,-0.014365210197865963,0.6320692300796509,-4.5318603515625,3.35693359375,1.5106201171875
12.0299999,-11.065999984741211,-0.004788403399288654,0.5985504388809204,-1.800537109375,4.33349609375,2.8839111328125
12.049999900000001,-10.766724586486816,-0.15083470940589905,0.5051765441894531,1.03759765625,-3.2196044921875,-4.2266845703125
12.069999900000001,-10.390835762023926,-0.19871874153614044,0.4429273009300232,5.6304931640625,-11.2152099609375,-13.0462646484375
12.0899999,-10.156203269958496,-0.3447650372982025,0.4405331015586853,9.46044921875,-13.2293701171875,-8.9111328125
12.1099999,-9.955090522766113,-0.4381389021873474,0.545877993106842,9.46044921875,-10.4827880859375,-3.3416748046875
12.129999900000001,-9.837775230407715,-0.5674257874488831,0.7829039692878723,8.6669921875,-8.697509765625,-2.1820068359375
12.149999900000001,-9.761159896850586,-0.6177040338516235,1.0558429956436157,8.5906982421875,-4.6844482421875,-0.8392333984375
12.1699999,-9.730035781860352,-0.608127236366272,1.2832920551300049,8.0413818359375,-1.89208984375,0.030517578125
12.1899999,-9.744400978088379,-0.5099649429321289,1.4197616577148438,7.0343017578125,-0.7781982421875,0.3509521484375
12.209999900000001,-9.785101890563965,-0.3471592366695404,1.4652514457702637,3.72314453125,0.91552734375,-0.4730224609375
12.229999900000001,-9.830592155456543,-0.1604115068912506,1.4508862495422363,-1.007080078125,4.2266845703125,-2.44140625
12.2499999,-9.873687744140625,-0.019153613597154617,1.3407529592514038,-3.35693359375,5.7830810546875,-4.7760009765625
12.2699999,-9.914389610290527,0.033518824726343155,1.1899182796478271,-3.4027099609375,3.4332275390625,-6.5155029296875
12.289999900000002,-9.931148529052734,0.033518824726343155,1.015141487121582,-6.77490234375,2.1514892578125,-5.462646484375
12.309999900000001,-9.976638793945312,-0.016759412363171577,0.8690952062606812,-13.5345458984375,2.99072265625,-6.4239501953125
12.3299999,-9.967061996459961,-0.2106897532939911,0.790086567401886,-15.716552734375,0.9307861328125,-5.9814453125
12.3499999,-9.998186111450195,-0.507570743560791,0.6991068720817566,-17.6239013671875,-2.227783203125,0.8697509765625
12.3699999,-9.974244117736816,-0.8427590131759644,0.6871358752250671,-21.026611328125,-3.47900390625,8.4228515625
12.389999900000001,-9.959878921508789,-1.091755986213684,0.7613561153411865,-20.7977294921875,-2.716064453125,12.8631591796875
12.4099999,-9.940725326538086,-1.256955862045288,0.7134721279144287,-12.4664306640625,-7.3089599609375,14.739990234375
12.4299999,-9.849745750427246,-1.1851298809051514,0.7158663272857666,6.0272216796875,-11.3525390625,10.009765625
12.4499999,-9.914389610290527,-0.9193734526634216,0.7541735172271729,20.6451416015625,-14.7247314453125,7.598876953125
12.469999900000001,-9.780313491821289,-0.40462008118629456,0.8403648138046265,10.2691650390625,-9.124755859375,5.2490234375
12.4899999,-9.892841339111328,-0.004788403399288654,1.0749965906143188,-6.6070556640625,0.3509521484375,1.2054443359375
12.5099999,-9.883264541625977,0.49799394607543945,1.2713210582733154,-7.32421875,-6.011962890625,0.946044921875
12.5299999,-9.847352027893066,0.586579442024231,1.4748282432556152,-9.5062255859375,-4.8065185546875,-1.251220703125
12.549999900000001,-9.871294021606445,0.6919242739677429,1.5203180313110352,-10.650634765625,-0.8544921875,-8.1787109375
12.569999900000001,-9.81143856048584,0.3734954595565796,1.5466543436050415,-9.429931640625,2.227783203125,-11.322021484375
12.5899999,-9.782708168029785,0.2106897532939911,1.580173134803772,-8.3160400390625,6.072998046875,-11.077880859375
12.6099999,-9.904812812805176,-0.24899697303771973,1.50355863571167,-9.8876953125,4.1961669921875,-3.90625
12.629999900000001,-9.895236015319824,-0.6224924325942993,1.522712230682373,-9.796142578125,7.8887939453125,-1.0833740234375
12.649999900000001,-9.96945571899414,-0.9074024558067322,1.4173674583435059,1.6021728515625,11.016845703125,-1.77001953125
12.6699999,-9.921571731567383,-1.173158884048462,1.216254472732544,17.3797607421875,4.9896240234375,2.7923583984375
12.6899999,-9.892841339111328,-1.161187767982483,1.0127472877502441,20.9197998046875,2.960205078125,6.683349609375
12.709999900000001,-9.9000244140625,-0.8427590131759644,0.6919242739677429,10.8795166015625,0.9002685546875,8.880615234375
12.729999900000001,-9.876082420349121,-0.4141969084739685,0.6607996821403503,-10.55908203125,-4.39453125,5.55419921875
12.7499999,-9.847352027893066,0.12210428714752197,0.706289529800415,-29.9835205078125,1.983642578125,-2.8228759765625
12.7699999,-9.931148529052734,0.31364041566848755,0.9792284965515137,-33.5540771484375,3.3416748046875,-3.7078857421875
12.789999900000002,-9.883264541625977,0.1388636976480484,0.9528923034667969,-26.9012451171875,0.8087158203125,1.129150390625
12.809999900000001,-10.067618370056152,-0.38546648621559143,0.8643068075180054,-1.800537109375,0,2.4566650390625
12.8299999,-10.141838073730469,-0.7350199222564697,0.6655880808830261,29.541015625,-12.8936767578125,4.241943359375
12.8499999,-10.129867553710938,-0.9672574996948242,0.4644751250743866,39.093017578125,-20.20263671875,6.6375732421875
12.8699999,-10.110713958740234,-0.7924807667732239,0.6991068720817566,32.3028564453125,-13.397216796875,1.556396484375
12.889999900000001,-9.861717224121094,-0.23702596127986908,1.1659762859344482,9.4451904296875,-7.2479248046875,-1.434326171875
12.9099999,-9.742006301879883,0.17238251864910126,1.7405846118927002,-18.3563232421875,8.3770751953125,-3.0670166015625
12.9299999,-9.586383819580078,0.6943184733390808,2.274491548538208,-29.4342041015625,16.9525146484375,-2.1514892578125
12.9499999,-9.560047149658203,0.6799532771110535,2.432508945465088,-35.7666015625,15.6402587890625,-4.2266845703125
12.969999900000001,-9.514557838439941,0.49559974670410156,2.387019157409668,-34.4696044921875,20.477294921875,-6.4544677734375
12.9899999,-9.66299819946289,0.06224924325942993,1.98958158493042,-34.088134765625,25.146484375,-3.3721923828125
13.0099999,-9.758766174316406,-0.5626373887062073,1.460463047027588,-29.7088623046875,19.9432373046875,-0.9002685546875
13.0299999,-10.029311180114746,-0.8690952062606812,0.6823474764823914,-9.58251953125,13.946533203125,4.8370361328125
13.049999900000001,-10.24000072479248,-1.2689268589019775,-0.06703764945268631,13.0462646484375,-0.1678466796875,4.4403076171875
13.069999900000001,-10.405200958251953,-1.2210428714752197,-0.7374141216278076,28.1829833984375,-16.265869140625,0.030517578125
13.0899999,-10.486603736877441,-0.9983820915222168,-0.768538773059845,32.3333740234375,-22.216796875,2.410888671875
13.1099999,-10.290278434753418,-0.6392518281936646,-0.363918662071228,13.824462890625,-18.00537109375,1.15966796875
13.129999900000001,-10.129867553710938,-0.24899697303771973,0.44771572947502136,-6.7291259765625,-6.6375732421875,1.5716552734375
13.149999900000001,-9.856928825378418,0.004788403399288654,1.2880805730819702,-15.6402587890625,1.617431640625,5.9356689453125
13.1699999,-9.672574996948242,0.1843535304069519,1.745373010635376,-11.5814208984375,-0.1220703125,4.5318603515625
13.1899999,-9.713275909423828,0.14604631066322327,1.9153614044189453,-6.9427490234375,1.1749267578125,-3.692626953125
13.209999900000001,-9.6989107131958,-0.002394201699644327,1.764526605606079,-6.77490234375,5.767822265625,-4.791259765625
13.229999900000001,-9.761159896850586,-0.13168109953403473,1.4987702369689941,-4.9285888671875,4.08935546875,1.0833740234375
13.2499999,-9.892841339111328,-0.3423708379268646,1.280897855758667,-3.11279296875,1.9378662109375,3.3111572265625
13.2699999,-9.873687744140625,-0.4668693244457245,1.0654197931289673,-2.0751953125,2.227783203125,4.730224609375
13.289999900000002,-9.99100399017334,-0.4620809257030487,0.9145850539207458,1.007080078125,-0.18310546875,-0.732421875
13.309999900000001,-10.031704902648926,-0.49559974670410156,0.8044517636299133,4.5623779296875,-0.946044921875,-4.0435791015625
13.3299999,-9.971850395202637,-0.3232172429561615,0.7781155705451965,5.92041015625,-3.8604736328125,0.54931640625
13.3499999,-9.99339771270752,-0.20111294090747833,0.8307880163192749,0.6103515625,-3.5858154296875,-0.42724609375
13.3699999,-9.998186111450195,-0.1412578970193863,0.9792284965515137,-5.9967041015625,1.007080078125,-1.739501953125
13.389999900000001,-9.888052940368652,-0.021547814831137657,1.1420341730117798,-6.3934326171875,-1.220703125,0.7781982421875
13.4099999,-9.945513725280762,-0.1628057211637497,1.3311761617660522,-8.5906982421875,2.2430419921875,-2.960205078125
13.4299999,-9.856928825378418,-0.26815059781074524,1.3718775510787964,-11.77978515625,8.0413818359375,-1.1749267578125
13.4499999,-9.854534149169922,-0.4668693244457245,1.2210428714752197,-7.4310302734375,5.06591796875,6.16455078125
13.469999900000001,-10.002974510192871,-0.6344634294509888,0.9744400978088379,0.518798828125,-1.739501953125,7.0343017578125
13.4899999,-9.962273597717285,-0.5746083855628967,0.7493851184844971,6.4544677734375,-9.2315673828125,8.544921875
13.5099999,-10.08437728881836,-0.3878606855869293,0.6751648783683777,3.204345703125,-8.7890625,-0.1373291015625
13.5299999,-10.022128105163574,-0.19153612852096558,0.8547300100326538,-5.0048828125,0.1068115234375,-6.927490234375
13.549999900000001,-9.916783332824707,0.043095629662275314,1.115697979927063,-8.8043212890625,1.3885498046875,2.44140625
13.569999900000001,-9.861717224121094,0.06703764945268631,1.3072341680526733,-11.8255615234375,1.77001953125,1.800537109375
13.5899999,-9.794678688049316,0.021547814831137657,1.501164436340332,-9.5672607421875,4.6234130859375,-1.0528564453125
13.6099999,-9.744400978088379,-0.028730420395731926,1.5682021379470825,-5.035400390625,7.720947265625,-4.45556640625
13.629999900000001,-9.775525093078613,-0.28730419278144836,1.5059528350830078,-3.143310546875,11.04736328125,-5.1422119140625
13.649999900000001,-9.761159896850586,-0.4405331015586853,1.3742717504501343,-0.579833984375,9.8419189453125,4.21142578125
13.6699999,-9.775525093078613,-0.586579442024231,1.039083480834961,-3.1890869140625,5.5389404296875,8.880615234375
13.6899999,-9.907206535339355,-0.5770025849342346,0.7541735172271729,-12.725830078125,5.0506591796875,8.6669921875
13.709999900000001,-9.904812812805176,-0.3208230137825012,0.5339069962501526,-13.9923095703125,-2.4261474609375,4.0435791015625
13.729999900000001,-10.031704902648926,-0.2298433631658554,0.4405331015586853,-9.8114013671875,-6.8359375,-2.471923828125
13.7499999,-10.0580415725708,-0.08379705995321274,0.4213795065879822,-6.5765380859375,-2.3651123046875,0.1373291015625
13.7699999,-10.070012092590332,-0.24420857429504395,0.6129156351089478,-0.8392333984375,-6.0577392578125,3.1280517578125
13.789999900000002,-10.019734382629395,-0.29209262132644653,0.7422025203704834,-1.373291015625,-5.4779052734375,2.0904541015625
13.809999900000001,-10.103530883789062,-0.29209262132644653,0.9289502501487732,-0.030517578125,-1.8463134765625,7.50732421875
13.8299999,-9.892841339111328,-0.2059013396501541,1.3239935636520386,4.0435791015625,-5.706787109375,1.52587890625
13.8499999,-9.93354320526123,0.040701430290937424,1.3934253454208374,-8.8653564453125,6.3018798828125,-11.2762451171875
13.8699999,-9.888052940368652,0.038307227194309235,1.501164436340332,-12.2833251953125,10.2386474609375,1.251220703125
13.889999900000001,-9.84495735168457,-0.019153613597154617,1.3694833517074585,-3.60107421875,0.7781982421875,3.8299560546875
13.9099999,-10.031704902648926,-0.21308395266532898,0.993593692779541,4.5166015625,-2.8533935546875,0.3509521484375
13.9299999,-10.079588890075684,-0.38067805767059326,0.8954314589500427,9.6588134765625,-8.636474609375,3.8299560546875
13.9499999,-9.921571731567383,-0.31364041566848755,0.9744400978088379,0,-4.0435791015625,-1.5869140625
13.969999900000001,-9.99100399017334,-0.19153612852096558,1.1563993692398071,-16.05224609375,14.95361328125,1.89208984375
13.9899999,-9.727641105651855,-0.14365209639072418,1.3958195447921753,-22.64404296875,10.5133056640625,8.8958740234375
14.0099999,-9.821015357971191,-0.040701430290937424,1.2186486721038818,-22.3236083984375,9.429931640625,1.40380859375
14.0299999,-9.840168952941895,-0.028730420395731926,0.9624691009521484,-7.3394775390625,-0.213623046875,4.9591064453125
14.049999900000001,-9.93593692779541,-0.2106897532939911,0.6272808313369751,3.2958984375,-8.85009765625,-2.0599365234375
14.069999900000001,-9.835380554199219,-0.26096799969673157,0.4596867263317108,8.9111328125,-6.6375732421875,-4.3182373046875
14.0899999,-9.940725326538086,-0.33518823981285095,0.6440402865409851,4.5928955078125,-2.838134765625,8.026123046875
14.1099999,-9.80904483795166,-0.33997663855552673,0.9433154463768005,-13.5498046875,-2.7008056640625,11.7034912109375
14.129999900000001,-9.964667320251465,-0.18914192914962769,1.2114660739898682,-23.7884521484375,6.6680908203125,7.14111328125
14.149999900000001,-9.923966407775879,-0.026336219161748886,1.4748282432556152,-14.9993896484375,4.669189453125,-1.4495849609375
14.1699999,-9.959878921508789,0.14844051003456116,1.338358759880066,-6.3323974609375,5.5389404296875,-6.744384765625
14.1899999,-10.031704902648926,-0.002394201699644327,1.1971008777618408,2.532958984375,8.36181640625,2.9296875
14.209999900000001,-9.947908401489258,-0.021547814831137657,0.9696516990661621,13.48876953125,-4.1046142578125,2.86865234375
14.229999900000001,-10.113107681274414,-0.13168109953403473,0.6512228846549988,18.8446044921875,-3.5552978515625,-2.9754638671875
14.2499999,-10.010157585144043,-0.07661445438861847,0.7852981686592102,23.4222412109375,-7.6446533203125,-0.9307861328125
14.2699999,-9.897629737854004,0.24181437492370605,1.237802267074585,-17.6544189453125,17.5628662109375,-7.354736328125
14.289999900000002,-9.775525093078613,0.2059013396501541,1.4460978507995605,-22.369384765625,12.26806640625,2.9754638671875
14.309999900000001,-9.8784761428833,-0.019153613597154617,1.235408067703247,-8.6669921875,4.3487548828125,-0.579833984375
14.3299999,-10.096348762512207,-0.304063618183136,0.9097966551780701,9.674072265625,-3.7384033203125,1.678466796875
14.3499999,-10.012551307678223,-0.5123591423034668,0.6057330369949341,14.312744140625,-12.02392578125,-1.28173828125
14.3699999,-10.158597946166992,-0.5219359993934631,0.45489832758903503,6.1798095703125,-4.33349609375,-4.6234130859375
14.389999900000001,-9.986215591430664,-0.4405331015586853,0.6129156351089478,-1.9073486328125,-3.8909912109375,7.3699951171875
14.4099999,-9.86889934539795,-0.28969839215278625,0.9050082564353943,-7.2479248046875,-2.8076171875,6.8359375
14.4299999,-9.909601211547852,-0.026336219161748886,1.1037269830703735,-5.5999755859375,0.4425048828125,0.9613037109375
14.4499999,-9.734824180603027,0.10534487664699554,1.3934253454208374,-4.180908203125,-3.173828125,0.2593994140625
14.469999900000001,-9.806650161743164,0.1843535304069519,1.5059528350830078,-13.5498046875,9.3231201171875,-5.79833984375
14.4899999,-9.816226959228516,0.14844051003456116,1.455674648284912,-15.7318115234375,16.5863037109375,1.617431640625
14.5099999,-9.849745750427246,0.004788403399288654,1.2521674633026123,-5.584716796875,4.547119140625,3.8909912109375
14.5299999,-9.967061996459961,-0.22026655077934265,0.9074024558067322,8.9569091796875,-2.227783203125,-1.068115234375
14.549999900000001,-9.976638793945312,-0.16759411990642548,0.7613561153411865,14.9688720703125,-7.4920654296875,-0.335693359375
14.569999900000001,-9.96945571899414,-0.18914192914962769,0.6871358752250671,1.15966796875,0.4730224609375,-5.7830810546875
14.5899999,-10.074800491333008,-0.11013327538967133,0.7757213711738586,-7.75146484375,9.5062255859375,-1.9378662109375
14.6099999,-9.96945571899414,-0.043095629662275314,0.7805097699165344,-2.655029296875,-3.082275390625,0.91552734375
14.629999900000001,-10.074800491333008,-0.05506663769483566,0.7996633648872375,3.7384033203125,-7.3699951171875,-2.227783203125
14.649999900000001,-10.010157585144043,-0.07182604819536209,0.9169792532920837,3.6163330078125,-4.2572021484375,-1.953125
14.6699999,-9.84256362915039,-0.08140286058187485,1.0558429956436157,-2.777099609375,1.373291015625,-5.5389404296875
14.6899999,-9.864110946655273,-0.20111294090747833,1.0989385843276978,-0.0457763671875,8.697509765625,-3.9520263671875
14.709999900000001,-9.801861763000488,-0.36152446269989014,1.0965443849563599,7.5836181640625,-1.2054443359375,7.0037841796875
14.729999900000001,-9.701305389404297,-0.3758896589279175,1.0773907899856567,3.204345703125,-6.4239501953125,6.9427490234375
14.7499999,-9.90241813659668,-0.33279404044151306,1.1228805780410767,-10.9100341796875,6.1798095703125,2.1514892578125
14.7699999,-9.727641105651855,-0.17477671802043915,1.256955862045288,-17.059326171875,12.1307373046875,2.532958984375
14.789999900000002,-9.816226959228516,0.05746084079146385,1.2713210582733154,-11.0321044921875,7.75146484375,0.6561279296875
14.809999900000001,-9.890447616577148,0.047884032130241394,1.1252747774124146,-7.1868896484375,6.6070556640625,2.9296875
14.8299999,-9.895236015319824,0.05746084079146385,0.9050082564353943,-11.4898681640625,3.35693359375,4.9896240234375
14.8499999,-10.105925559997559,0.07182604819536209,0.8331822156906128,-11.322021484375,0.4730224609375,4.0435791015625
14.8699999,-10.034099578857422,-0.023942016065120697,0.8978256583213806,-11.016845703125,2.197265625,-1.861572265625
14.889999900000001,-10.022128105163574,0.028730420395731926,0.8690952062606812,-19.5770263671875,11.077880859375,-5.035400390625
14.9099999,-10.091560363769531,-0.13407529890537262,0.8355764150619507,-10.68115234375,10.3912353515625,3.9825439453125
14.9299999,-9.99339771270752,-0.27054479718208313,0.6775590777397156,9.1705322265625,-5.9356689453125,3.6468505859375
14.9499999,-10.158597946166992,-0.31603461503982544,0.3734954595565796,25.726318359375,-9.613037109375,-1.7242431640625
14.969999900000001,-10.077195167541504,-0.31842881441116333,0.47884035110473633,34.7900390625,-11.1236572265625,-2.471923828125
14.9899999,-9.904812812805176,-0.12928688526153564,0.7350199222564697,16.448974609375,-5.706787109375,-8.8043212890625
15.0099999,-9.871294021606445,0.0933738648891449,0.9888052940368652,-9.2315673828125,13.6566162109375,-3.021240234375
15.0299999,-9.739612579345703,0.2082955539226532,1.280897855758667,-16.8609619140625,6.378173828125,4.82177734375
15.049999900000001,-9.785101890563965,0.15801730751991272,1.2090718746185303,-13.7786865234375,1.6326904296875,-2.50244140625
15.069999900000001,-9.93593692779541,0.016759412363171577,0.8858546018600464,0.7171630859375,0.79345703125,-1.739501953125
15.0899999,-9.914389610290527,-0.28730419278144836,0.6727706789970398,13.9923095703125,-12.359619140625,-0.7476806640625
15.1099999,-10.036493301391602,-0.3902548849582672,0.45250412821769714,13.6871337890625,-7.232666015625,0.396728515625
15.129999900000001,-9.988609313964844,-0.3998316824436188,0.5291185975074768,6.8511962890625,-7.1563720703125,7.4615478515625
15.149999900000001,-9.801861763000488,-0.2801215946674347,0.8164227604866028,-3.5858154296875,-6.0577392578125,3.570556640625
15.1699999,-9.63187313079834,0.10055647045373917,1.237802267074585,-13.8092041015625,3.143310546875,-0.274658203125
15.1899999,-8.951920509338379,0.2968810200691223,1.6711528301239014,-27.740478515625,10.650634765625,3.8604736328125
15.209999900000001,-8.305485725402832,0.30885201692581177,1.9800047874450684,-35.125732421875,22.3236083984375,-1.0223388671875
15.229999900000001,-7.9415669441223145,0.1173158809542656,1.8483237028121948,-28.289794921875,31.707763671875,6.4849853515625
15.2499999,-8.49941635131836,-0.2801215946674347,1.1563993692398071,-7.9193115234375,24.5513916015625,15.3045654296875
15.2699999,-9.782708168029785,-0.47405192255973816,0.40940847992897034,23.9105224609375,-5.0506591796875,15.228271484375
15.289999900000002,-11.039664268493652,-0.40222588181495667,-0.3280056416988373,40.4052734375,-25.0701904296875,0.9613037109375
15.309999900000001,-11.712434768676758,-0.21787235140800476,-0.5913678407669067,44.12841796875,-16.66259765625,-3.9215087890625
15.3299999,-11.295844078063965,0.10773907601833344,-0.2346317619085312,44.49462890625,-12.5732421875,-6.3934326171875
15.3499999,-10.314221382141113,0.28969839215278625,0.3878606855869293,24.0325927734375,-10.3759765625,-12.481689453125
15.3699999,-9.646238327026367,0.22266076505184174,1.1492167711257935,-3.0670166015625,2.655029296875,6.9427490234375
15.389999900000001,-9.255983352661133,0.2298433631658554,1.702277421951294,-15.07568359375,14.7247314453125,12.6190185546875
15.4099999,-9.660603523254395,0.13168109953403473,1.702277421951294,-13.8702392578125,14.7247314453125,10.162353515625
15.4299999,-10.034099578857422,0.1867477297782898,1.3120225667953491,-8.5296630859375,-0.213623046875,3.7689208984375
15.4499999,-10.623072624206543,0.23702596127986908,0.6344634294509888,-5.340576171875,-12.7716064453125,2.6702880859375
15.469999900000001,-10.828974723815918,0.5267243981361389,0.38307225704193115,-1.1138916015625,-20.0653076171875,0.0457763671875
15.4899999,-10.824186325073242,0.5674257874488831,0.4213795065879822,-16.1285400390625,-12.542724609375,-8.453369140625
15.5099999,-10.627861022949219,0.47405192255973816,0.5985504388809204,-23.681640625,3.8299560546875,-9.82666015625
15.5299999,-10.398017883300781,0.26336219906806946,0.9744400978088379,-10.1165771484375,-6.9427490234375,2.227783203125
15.549999900000001,-10.072406768798828,-0.043095629662275314,1.213860273361206,-13.5498046875,-13.48876953125,5.6304931640625
15.569999900000001,-10.038887977600098,-0.42856210470199585,1.192312479019165,-23.5137939453125,8.7738037109375,9.1552734375
15.5899999,-9.75637149810791,-0.33997663855552673,1.5083470344543457,-2.25830078125,-3.84521484375,11.871337890625
15.6099999,-9.684545516967773,-0.026336219161748886,1.6519991159439087,0.1983642578125,-2.7618408203125,0.6866455078125
15.629999900000001,-9.586383819580078,0.40701428055763245,1.7070658206939697,-27.8778076171875,27.374267578125,-10.8184814453125
15.649999900000001,-9.581595420837402,0.8379706144332886,1.6496049165725708,-38.238525390625,32.5775146484375,-19.439697265625
15.6699999,-9.684545516967773,0.9241618514060974,1.3215993642807007,-25.115966796875,10.1165771484375,-19.5159912109375
15.6899999,-9.897629737854004,0.6105214357376099,0.7613561153411865,-14.984130859375,2.8839111328125,-14.6026611328125
15.709999900000001,-10.077195167541504,0.12689268589019775,0.3519476354122162,-8.1024169921875,-2.1209716796875,-13.153076171875
15.729999900000001,-10.129867553710938,-0.3998316824436188,0.26575639843940735,-4.425048828125,-4.7607421875,-7.01904296875
15.7499999,-10.113107681274414,-0.7757213711738586,0.4141969084739685,-6.591796875,1.03759765625,2.2430419921875
15.7699999,-10.108319282531738,-0.9864110946655273,0.42616790533065796,-6.1492919921875,5.889892578125,5.5389404296875
15.789999900000002,-10.077195167541504,-0.9002198576927185,0.5171475410461426,4.5928955078125,-7.6446533203125,4.8980712890625
15.809999900000001,-10.070012092590332,-0.689530074596405,0.44771572947502136,8.7890625,-18.6004638671875,4.3182373046875
15.8299999,-10.074800491333008,-0.3495534360408783,0.3687070608139038,3.23486328125,-13.946533203125,3.4942626953125
15.8499999,-9.983820915222168,-0.026336219161748886,0.6655880808830261,1.7242431640625,-15.07568359375,-0.2288818359375
15.869999900000002,-9.885659217834473,0.2082955539226532,1.0678139925003052,-8.5906982421875,-9.1400146484375,-1.40380859375
15.889999900000001,-9.765948295593262,0.363918662071228,1.5825673341751099,-25.5584716796875,5.55419921875,2.4566650390625
15.9099999,-9.655815124511719,0.3758896589279175,2.0039467811584473,-31.2957763671875,19.04296875,2.2125244140625
15.9299999,-9.63187313079834,0.24420857429504395,2.078166961669922,-25.2227783203125,23.3612060546875,-1.0223388671875
15.9499999,-9.706093788146973,0.002394201699644327,1.8076223134994507,-14.4805908203125,17.39501953125,-0.8392333984375
15.969999900000001,-9.849745750427246,-0.28969839215278625,1.235408067703247,0.152587890625,9.4757080078125,1.9073486328125
15.9899999,-10.010157585144043,-0.5123591423034668,0.6607996821403503,16.0064697265625,1.9378662109375,1.678466796875
16.0099999,-10.139444351196289,-0.5961562395095825,0.21308395266532898,27.099609375,-3.814697265625,-1.0528564453125
16.0299999,-10.177751541137695,-0.5051765441894531,0.0071826050989329815,34.027099609375,-9.5062255859375,-2.9144287109375
16.0499999,-10.170568466186523,-0.2968810200691223,0.021547814831137657,36.9873046875,-12.63427734375,-4.241943359375
16.0699999,-10.103530883789062,-0.06224924325942993,0.24181437492370605,34.0728759765625,-12.5885009765625,-6.9122314453125
16.089999900000002,-10.022128105163574,0.11252748221158981,0.5674257874488831,25.93994140625,-10.6201171875,-9.0179443359375
16.109999900000002,-9.923966407775879,0.1867477297782898,0.9481038451194763,16.4337158203125,-7.7362060546875,-7.2784423828125
16.1299999,-9.840168952941895,0.17238251864910126,1.3287819623947144,4.2877197265625,-2.5634765625,-1.3427734375
16.1499999,-9.770736694335938,0.11013327538967133,1.601720929145813,-11.505126953125,5.1422119140625,2.960205078125
16.1699999,-9.737217903137207,0.05985504388809204,1.7262194156646729,-24.139404296875,10.986328125,3.6468505859375
16.1899999,-9.761159896850586,0.014365210197865963,1.6352397203445435,-29.7393798828125,11.9476318359375,3.1585693359375
16.2099999,-9.813833236694336,-0.05267243832349777,1.3694833517074585,-29.4036865234375,8.880615234375,4.1656494140625
16.2299999,-9.888052940368652,-0.13168109953403473,1.0462661981582642,-23.5748291015625,6.317138671875,5.035400390625
16.249999900000002,-9.967061996459961,-0.23942017555236816,0.7852981686592102,-12.481689453125,5.9356689453125,3.7078857421875
16.269999900000002,-10.02452278137207,-0.31842881441116333,0.5913678407669067,-1.373291015625,2.38037109375,1.6937255859375
16.2899999,-10.02452278137207,-0.272938996553421,0.181959331035614,-19.4854736328125,-5.1422119140625,1.983642578125
16.3099999,-10.050858497619629,-0.1388636976480484,0.14844051003456116,-15.8538818359375,-11.41357421875,-2.349853515625
16.3299999,-9.988609313964844,0.019153613597154617,0.05267243832349777,19.4244384765625,-4.69970703125,-9.3536376953125
16.3499999,-9.981427192687988,0.10295066982507706,0.33279404044151306,20.6298828125,1.5106201171875,-10.5133056640625
16.3699999,-9.955090522766113,0.009576806798577309,0.689530074596405,22.9949951171875,2.532958984375,-7.3699951171875
16.3899999,-9.938331604003906,-0.181959331035614,0.9840168952941895,24.3682861328125,-0.9307861328125,-1.8157958984375
16.4099999,-9.919178009033203,-0.33518823981285095,1.1085153818130493,18.8446044921875,-1.312255859375,0.9002685546875
16.429999900000002,-9.9000244140625,-0.3519476354122162,1.1492167711257935,10.1318359375,1.007080078125,0.5645751953125
16.4499999,-9.888052940368652,-0.272938996553421,1.1971008777618408,-0.152587890625,1.708984375,0.1068115234375
16.4699999,-9.890447616577148,-0.13407529890537262,1.192312479019165,-2.3956298828125,3.5400390625,1.739501953125
16.4899999,-9.907206535339355,-0.043095629662275314,1.1635819673538208,-7.2479248046875,5.401611328125,3.4332275390625
16.5099999,-9.923966407775879,0.011971008032560349,1.0606313943862915,-7.1563720703125,4.94384765625,3.9825439453125
16.5299999,-9.943120002746582,-0.011971008032560349,0.9409212470054626,-10.0860595703125,4.180908203125,6.439208984375
16.5499999,-9.952696800231934,-0.13168109953403473,0.8451532125473022,-24.71923828125,2.166748046875,8.6822509765625
16.5699999,-9.981427192687988,-0.27054479718208313,0.7613561153411865,-22.8118896484375,2.4871826171875,13.5955810546875
16.589999900000002,-9.986215591430664,-0.3447650372982025,0.7110779285430908,-17.4713134765625,1.6326904296875,19.2718505859375
16.609999900000002,-9.979032516479492,-0.33279404044151306,0.7182605266571045,-11.6424560546875,2.44140625,17.88330078125
16.6299999,-9.971850395202637,-0.1173158809542656,0.7254431247711182,-9.7198486328125,-0.823974609375,10.833740234375
16.6499999,-9.926360130310059,0.15562310814857483,0.8427590131759644,-7.3394775390625,-0.823974609375,3.8299560546875
16.6699999,-9.892841339111328,0.35913026332855225,0.9744400978088379,-2.44140625,3.5400390625,-3.631591796875
16.6899999,-9.873687744140625,0.42377370595932007,1.0845733880996704,5.0201416015625,7.0953369140625,-6.2103271484375
16.7099999,-9.86889934539795,0.31364041566848755,1.161187767982483,15.44189453125,5.5694580078125,-4.5013427734375
16.7299999,-9.873687744140625,0.090979665517807,1.1300631761550903,23.4832763671875,5.6915283203125,-2.2125244140625
16.749999900000002,-9.907206535339355,-0.08379705995321274,1.048660397529602,27.740478515625,7.3699951171875,-0.91552734375
16.769999900000002,-9.928754806518555,-0.16998831927776337,0.9002198576927185,29.3121337890625,6.5765380859375,-1.40380859375
16.7899999,-10.010157585144043,-0.22505496442317963,0.6248866319656372,30.2886962890625,2.1820068359375,-2.532958984375
16.8099999,-10.170568466186523,-0.22266076505184174,0.3471592366695404,39.9627685546875,-7.0343017578125,-2.0751953125
16.8299999,-10.314221382141113,-0.1604115068912506,0.17477671802043915,52.4749755859375,-17.0745849609375,-1.5106201171875
16.8499999,-10.47702693939209,-0.038307227194309235,0.28730419278144836,47.6531982421875,-15.68603515625,-3.0059814453125
16.8699999,-10.66137981414795,0.24660277366638184,0.6655880808830261,27.9083251953125,-5.2642822265625,-3.9520263671875
16.8899999,-10.92953109741211,0.5315127968788147,1.1516109704971313,6.34765625,4.1961669921875,-7.8887939453125
16.9099999,-11.192893028259277,0.6943184733390808,1.4891934394836426,-8.7432861328125,5.4931640625,-12.451171875
16.929999900000002,-11.54005241394043,0.7733271718025208,1.534683346748352,-15.594482421875,6.5765380859375,-10.2691650390625
16.9499999,-11.688492774963379,0.6177040338516235,1.280897855758667,-14.007568359375,4.9285888671875,-11.627197265625
16.9699999,-11.544840812683105,0.4118026793003082,0.9097966551780701,-4.486083984375,-4.1351318359375,-9.3231201171875
16.9899999,-11.116278648376465,0.15562310814857483,0.5770025849342346,7.0343017578125,-8.7432861328125,-8.544921875
17.0099999,-10.491392135620117,-0.038307227194309235,0.4213795065879822,14.1754150390625,-7.8277587890625,-5.9356689453125
17.0299999,-9.732429504394531,-0.2585737705230713,0.49559974670410156,17.578125,-9.33837890625,-5.7525634765625
17.0499999,-9.27034854888916,-0.2801215946674347,0.7637503147125244,17.9595947265625,-6.2713623046875,-11.199951171875
17.0699999,-9.045293807983398,-0.363918662071228,1.091755986213684,12.298583984375,-1.5411376953125,-17.08984375
17.089999900000002,-9.196128845214844,-0.33997663855552673,1.403002142906189,3.7689208984375,5.31005859375,-8.60595703125
17.109999900000002,-9.485827445983887,-0.2585737705230713,1.6136919260025024,-3.6468505859375,9.1705322265625,-7.720947265625
17.1299999,-9.84256362915039,-0.272938996553421,1.6112977266311646,-8.1634521484375,11.5966796875,-9.490966796875
17.1499999,-10.043676376342773,-0.26096799969673157,1.4987702369689941,-9.1552734375,18.280029296875,-20.843505859375
17.1699999,-10.11550235748291,-0.3016694188117981,1.3048399686813354,-8.148193359375,18.9056396484375,-29.7698974609375
17.1899999,-9.99339771270752,-0.35434186458587646,1.1228805780410767,-15.3961181640625,19.9127197265625,-31.1737060546875
17.2099999,-9.713275909423828,-0.48602294921875,0.9145850539207458,-25.665283203125,22.8271484375,-23.895263671875
17.2299999,-9.334992408752441,-0.6392518281936646,0.727837324142456,-19.9432373046875,23.2086181640625,-10.80322265625
17.249999900000002,-9.033323287963867,-0.8379706144332886,0.4405331015586853,-4.9896240234375,27.435302734375,-0.335693359375
17.269999900000002,-8.858546257019043,-1.0247182846069336,0.13168109953403473,11.4898681640625,22.735595703125,5.6304931640625
17.2899999,-8.899248123168945,-1.05105459690094,-0.10055647045373917,23.468017578125,-0.9918212890625,11.3525390625
17.3099999,-9.023746490478516,-0.9409212470054626,-0.17717093229293823,29.23583984375,-24.59716796875,13.7481689453125
17.3299999,-9.150638580322266,-0.7206547260284424,-0.07182604819536209,29.1595458984375,-31.097412109375,12.1917724609375
17.3499999,-9.210494041442871,-0.45250412821769714,0.17956513166427612,24.6429443359375,-18.7835693359375,4.08935546875
17.3699999,-9.229647636413574,-0.19153612852096558,0.5027823448181152,16.9830322265625,0.3204345703125,-7.62939453125
17.3899999,-9.30386734008789,0.0071826050989329815,0.8307880163192749,6.072998046875,6.04248046875,-13.0767822265625
17.409999900000003,-9.397241592407227,0.11971008777618408,1.1204863786697388,-7.4920654296875,-6.7291259765625,-9.1400146484375
17.429999900000002,-9.526528358459473,0.13168109953403473,1.3311761617660522,-20.5230712890625,-14.16015625,-5.218505859375
17.4499999,-9.5624418258667,-0.05506663769483566,1.45806884765625,-29.0069580078125,-10.9405517578125,-3.6773681640625
17.4699999,-9.502586364746094,-0.12689268589019775,1.5203180313110352,-34.60693359375,1.89208984375,1.15966796875
17.4899999,-9.567230224609375,-0.47405192255973816,1.3263877630233765,-32.8216552734375,38.7420654296875,-4.1046142578125
17.5099999,-9.732429504394531,-0.6177040338516235,1.1085153818130493,-26.031494140625,36.07177734375,-17.5018310546875
17.5299999,-9.979032516479492,-0.8954314589500427,0.7350199222564697,-21.148681640625,1.6021728515625,-22.4761962890625
17.5499999,-10.15141487121582,-1.1085153818130493,0.40222588181495667,-12.725830078125,-16.4031982421875,-11.71875
17.5699999,-10.120290756225586,-1.2737152576446533,0.1628057211637497,-1.3580322265625,-8.819580078125,2.1209716796875
17.589999900000002,-9.916783332824707,-1.338358759880066,0.05506663769483566,7.965087890625,-3.96728515625,10.9405517578125
17.609999900000002,-9.730035781860352,-1.3024457693099976,0.06224924325942993,10.7574462890625,-1.739501953125,9.70458984375
17.6299999,-9.667786598205566,-1.1635819673538208,0.18914192914962769,8.7890625,3.35693359375,2.3956298828125
17.6499999,-9.708487510681152,-0.9864110946655273,0.38307225704193115,4.364013671875,2.349853515625,-1.46484375
17.6699999,-9.761159896850586,-0.8236053586006165,0.6057330369949341,-1.5411376953125,-4.2572021484375,0
17.6899999,-9.81143856048584,-0.730231523513794,0.790086567401886,-6.5765380859375,1.678466796875,1.495361328125
17.7099999,-9.804255485534668,-0.7086837291717529,0.9050082564353943,-9.7198486328125,9.185791015625,4.5318603515625
17.7299999,-9.80904483795166,-0.7422025203704834,0.9361328482627869,-12.39013671875,9.521484375,8.30078125
17.749999900000002,-9.880870819091797,-0.7924807667732239,0.8882488012313843,-14.129638671875,8.819580078125,6.439208984375
17.769999900000002,-9.974244117736816,-0.8427590131759644,0.7829039692878723,-14.2669677734375,5.9356689453125,0.030517578125
17.7899999,-10.06043529510498,-0.8762778043746948,0.6392518281936646,-12.20703125,1.9989013671875,-2.6702880859375
17.8099999,-10.089165687561035,-0.9026140570640564,0.47644615173339844,-8.9263916015625,1.3427734375,-1.0833740234375
17.8299999,-10.053253173828125,-0.9241618514060974,0.31842881441116333,-5.7830810546875,2.3040771484375,-0.2593994140625
17.8499999,-9.964667320251465,-0.9265560507774353,0.20350714027881622,-2.6092529296875,-1.800537109375,-0.274658203125
17.8699999,-9.8784761428833,-0.9002198576927185,0.15322890877723694,-0.9002685546875,-5.3253173828125,-0.30517578125
17.8899999,-9.835380554199219,-0.8379706144332886,0.16519992053508759,-0.701904296875,0.6866455078125,-1.800537109375
17.909999900000003,-9.80904483795166,-0.7589619159698486,0.22266076505184174,-0.6256103515625,4.7607421875,-3.509521484375
17.929999900000002,-9.794678688049316,-0.6536170840263367,0.30885201692581177,-0.1373291015625,1.9989013671875,-2.6092529296875
17.9499999,-9.799467086791992,-0.5482721924781799,0.3974374830722809,-0.9918212890625,1.8310546875,0.79345703125
17.9699999,-10.002974510192871,-0.42616790533065796,0.5051765441894531,-4.0130615234375,2.166748046875,4.1961669921875
17.9899999,-10.307038307189941,-0.3256114423274994,0.49320554733276367,-6.3323974609375,-1.77001953125,-0.8087158203125
18.0099999,-10.649409294128418,-0.31603461503982544,0.4596867263317108,-4.669189453125,0.9765625,-4.5928955078125
18.0299999,-10.821791648864746,-0.3687070608139038,0.26815059781074524,4.180908203125,-3.9215087890625,1.953125
18.0499999,-10.54645824432373,-0.4189853072166443,0.24420857429504395,6.8206787109375,-5.3253173828125,-4.8675537109375
18.0699999,-10.266336441040039,-0.45489832758903503,0.2537853717803955,8.2244873046875,-3.9520263671875,-9.2010498046875
18.089999900000002,-10.06043529510498,-0.5434837937355042,0.2849099934101105,9.246826171875,-7.50732421875,-7.8277587890625
18.109999900000002,-9.93354320526123,-0.6847416758537292,0.3064578175544739,7.6751708984375,-10.5743408203125,-3.2196044921875
18.1299999,-9.885659217834473,-0.8403648138046265,0.3280056416988373,7.537841796875,-10.894775390625,-1.64794921875
18.1499999,-9.86650562286377,-0.9097966551780701,0.40940847992897034,10.1776123046875,-10.6964111328125,-4.08935546875
18.1699999,-9.892841339111328,-1.0271124839782715,0.395043283700943,13.97705078125,-12.2833251953125,-6.8511962890625
18.1899999,-9.938331604003906,-1.0678139925003052,0.3902548849582672,18.5546875,-17.303466796875,-3.753662109375
18.2099999,-10.007762908935547,-1.1324573755264282,0.31603461503982544,22.247314453125,-22.1710205078125,1.617431640625
18.2299999,-10.055646896362305,-1.1468225717544556,0.26815059781074524,26.1383056640625,-26.8402099609375,2.227783203125
18.249999900000002,-10.053253173828125,-1.1348515748977661,0.31364041566848755,28.961181640625,-30.792236328125,1.5716552734375
18.269999900000002,-9.986215591430664,-1.0893617868423462,0.5626373887062073,28.99169921875,-30.731201171875,3.90625
18.2899999,-9.880870819091797,-0.9864110946655273,0.9959878921508789,22.4761962890625,-25.482177734375,8.0413818359375
18.3099999,-9.763554573059082,-0.8690952062606812,1.501164436340332,12.75634765625,-18.0206298828125,9.2926025390625
18.3299999,-9.651026725769043,-0.6751648783683777,2.123656988143921,0.91552734375,-11.8255615234375,9.063720703125
18.3499999,-9.53849983215332,-0.4692635238170624,2.691082715988159,-22.4456787109375,0.8697509765625,15.0299072265625
18.3699999,-9.452308654785156,-0.2944868206977844,3.141192674636841,-49.468994140625,17.51708984375,19.561767578125
18.3899999,-9.397241592407227,-0.24899697303771973,3.335123062133789,-68.17626953125,29.4952392578125,21.1639404296875
18.409999900000003,-9.370905876159668,-0.28969839215278625,3.3279404640197754,-77.301025390625,36.6058349609375,25.970458984375
18.429999900000002,-9.442731857299805,-0.40701428055763245,2.8850131034851074,-84.075927734375,43.5791015625,32.257080078125
18.4499999,-9.583989143371582,-0.569819986820221,2.161964178085327,-78.4454345703125,44.5556640625,32.2723388671875
18.4699999,-9.758766174316406,-0.7733271718025208,1.2545616626739502,-56.671142578125,35.2935791015625,31.5399169921875
18.4899999,-9.974244117736816,-0.9481038451194763,0.2322375625371933,-28.900146484375,23.5137939453125,32.3944091796875
18.5099999,-10.213664054870605,-1.072602391242981,-0.8188169598579407,1.708984375,9.4757080078125,31.6619873046875
18.5299999,-10.400412559509277,-1.0247182846069336,-1.625662922859192,37.2314453125,-10.2691650390625,28.594970703125
18.5499999,-10.496180534362793,-0.6751648783683777,-2.0590133666992188,63.7359619140625,-28.594970703125,23.86474609375
18.5699999,-10.522516250610352,-0.0694318488240242,-2.140416383743286,68.9697265625,-38.2843017578125,15.4571533203125
18.589999900000002,-10.429142951965332,0.7493851184844971,-1.7932571172714233,61.4776611328125,-45.3643798828125,6.195068359375
18.609999900000002,-10.204087257385254,1.6352397203445435,-0.8595184087753296,43.548583984375,-49.8809814453125,-1.1444091796875
18.6299999,-9.926360130310059,2.387019157409668,0.35673606395721436,8.0108642578125,-39.6881103515625,-9.429931640625
18.6499999,-9.660603523254395,2.762908697128296,1.6184803247451782,-28.6712646484375,-19.9432373046875,-19.34814453125
18.6699999,-9.430760383605957,2.6001031398773193,2.717418909072876,-42.1142578125,-9.3994140625,-22.9949951171875
18.6899999,-9.263166427612305,1.9273324012756348,3.5027170181274414,-40.191650390625,-1.9378662109375,-19.8822021484375
18.7099999,-9.255983352661133,0.9457096457481384,3.6798880100250244,-38.116455078125,15.350341796875,-16.510009765625
18.7299999,-9.363722801208496,-0.395043283700943,3.3901896476745605,-21.0113525390625,22.6287841796875,-9.735107421875
18.749999900000002,-9.543288230895996,-1.45806884765625,2.5665841102600098,13.519287109375,12.4359130859375,2.2735595703125
18.769999900000002,-9.828198432922363,-2.183511972427368,1.3718775510787964,43.64013671875,-4.638671875,9.063720703125
18.7899999,-10.137049674987793,-2.164358377456665,0.16998831927776337,51.1322021484375,-16.876220703125,8.9111328125
18.8099999,-10.259154319763184,-1.6136919260025024,-0.5937620401382446,45.5322265625,-25.6195068359375,7.965087890625
18.8299999,-10.311826705932617,-0.5817909836769104,-0.5602431893348694,32.1197509765625,-27.89306640625,7.62939453125
18.8499999,-10.055646896362305,0.6440402865409851,0.1867477297782898,1.89208984375,-22.52197265625,5.4473876953125
18.8699999,-9.830592155456543,1.3934253454208374,1.3192051649093628,-36.2548828125,-5.706787109375,-2.6702880859375
18.8899999,-9.600749015808105,1.802833914756775,2.365471363067627,-45.8221435546875,9.3841552734375,-9.3231201171875
18.909999900000003,-9.509769439697266,1.5682021379470825,3.112462282180786,-27.069091796875,9.5977783203125,-8.9111328125
18.929999900000002,-9.454702377319336,0.9193734526634216,3.3686418533325195,-21.453857421875,19.561767578125,-3.753662109375
18.9499999,-9.579200744628906,0.24899697303771973,3.0334534645080566,-25.2532958984375,30.9295654296875,1.5106201171875
18.9699999,-9.615114212036133,-0.3280056416988373,2.4444799423217773,-16.3726806640625,21.820068359375,1.5106201171875
18.9899999,-9.72285270690918,-0.42856210470199585,1.766920804977417,-4.2572021484375,14.1448974609375,-0.7171630859375
19.0099999,-9.849745750427246,-0.24660277366638184,1.2737152576446533,-8.11767578125,16.6168212890625,-1.434326171875
19.0299999,-9.883264541625977,-0.0933738648891449,0.9552865028381348,-28.6407470703125,25.2227783203125,-7.049560546875
19.0499999,-9.952696800231934,0.1388636976480484,0.6272808313369751,-25.20751953125,24.4598388671875,-5.4931640625
19.0699999,-9.983820915222168,0.11252748221158981,0.45250412821769714,2.044677734375,4.2266845703125,-4.6234130859375
19.089999900000002,-9.93354320526123,0.009576806798577309,0.2825157940387726,7.2479248046875,-0.0762939453125,-8.6822509765625
19.109999900000002,-10.000580787658691,-0.05746084079146385,0.35673606395721436,-8.72802734375,11.3983154296875,-3.96728515625
19.1299999,-9.921571731567383,-0.23942017555236816,0.5817909836769104,-19.500732421875,10.1776123046875,-5.3863525390625
19.1499999,-9.981427192687988,-0.24181437492370605,0.6655880808830261,-8.1329345703125,5.2337646484375,-4.33349609375
19.1699999,-10.019734382629395,-0.3974374830722809,0.7541735172271729,6.9580078125,-2.4871826171875,1.922607421875
19.1899999,-10.000580787658691,-0.3064578175544739,0.7589619159698486,-0.457763671875,1.007080078125,-4.69970703125
19.2099999,-9.988609313964844,-0.22505496442317963,0.8786720037460327,-5.126953125,4.3182373046875,-6.0272216796875
19.2299999,-9.864110946655273,-0.13407529890537262,1.0869675874710083,2.838134765625,0.9613037109375,-2.288818359375
19.249999900000002,-9.734824180603027,0.021547814831137657,1.3120225667953491,-6.1492919921875,10.528564453125,-6.744384765625
19.269999900000002,-9.643844604492188,-0.05027823522686958,1.522712230682373,-26.9775390625,19.9127197265625,2.6092529296875
19.2899999,-9.536105155944824,-0.11252748221158981,1.4269442558288574,-34.7900390625,22.674560546875,5.828857421875
19.3099999,-9.967061996459961,-0.38307225704193115,1.091755986213684,-14.2974853515625,13.0615234375,1.2969970703125
19.3299999,-10.098742485046387,-0.5434837937355042,0.43095630407333374,9.9029541015625,-1.678466796875,4.913330078125
19.3499999,-10.512939453125,-0.6871358752250671,-0.0694318488240242,21.636962890625,-10.92529296875,4.2572021484375
19.3699999,-10.551246643066406,-0.524330198764801,-0.24660277366638184,16.4031982421875,-10.4522705078125,0.0152587890625
19.3899999,-10.35252857208252,-0.26575639843940735,-0.0071826050989329815,2.349853515625,-8.575439453125,4.2724609375
19.409999900000003,-10.031704902648926,0.09816227108240128,0.6368576288223267,-15.1824951171875,-1.7852783203125,1.5869140625
19.429999900000002,-9.734824180603027,0.38546648621559143,1.2282254695892334,-37.5518798828125,11.0626220703125,1.3580322265625
19.4499999,-9.576807022094727,0.38546648621559143,1.656787633895874,-47.18017578125,20.56884765625,-3.72314453125
19.4699999,-9.576807022094727,0.19871874153614044,1.4939818382263184,-25.7720947265625,13.9923095703125,0.457763671875
19.4899999,-9.81143856048584,-0.3208230137825012,0.9696516990661621,10.711669921875,3.692626953125,-2.1209716796875
19.5099999,-10.04846477508545,-0.6775590777397156,0.10295066982507706,46.5545654296875,-9.5367431640625,-2.5634765625
19.5299999,-10.283096313476562,-0.9050082564353943,-0.45250412821769714,63.6749267578125,-22.4151611328125,-1.007080078125
19.5499999,-10.316615104675293,-0.7398083209991455,-0.6057330369949341,58.441162109375,-27.0538330078125,-3.5400390625
19.5699999,-10.228029251098633,-0.181959331035614,0.028730420395731926,35.919189453125,-23.5748291015625,-2.74658203125
19.589999900000002,-9.919178009033203,0.4118026793003082,1.1516109704971313,-16.2506103515625,1.5106201171875,-5.706787109375
19.609999900000002,-9.591172218322754,0.9720458984375,2.2888567447662354,-67.626953125,31.92138671875,-5.8746337890625
19.6299999,-9.454702377319336,1.139639973640442,2.894589900970459,-79.559326171875,38.75732421875,-0.7476806640625
19.6499999,-9.461885452270508,0.608127236366272,2.492363929748535,-52.8717041015625,27.557373046875,-1.007080078125
19.6699999,-9.761159896850586,-0.07182604819536209,1.2330138683319092,-5.340576171875,8.209228515625,-4.6539306640625
19.6899999,-10.065223693847656,-0.950498104095459,-0.16519992053508759,36.102294921875,-12.20703125,1.190185546875
19.7099999,-10.362105369567871,-1.4173674583435059,-1.1994950771331787,51.2237548828125,-22.0489501953125,0.2899169921875
19.7299999,-10.398017883300781,-1.237802267074585,-1.4245500564575195,48.0194091796875,-29.4647216796875,4.8980712890625
19.749999900000002,-10.266336441040039,-0.7829039692878723,-0.7110779285430908,23.284912109375,-24.7039794921875,2.7008056640625
19.769999900000002,-10.010157585144043,0.019153613597154617,0.45250412821769714,-13.2598876953125,-8.3465576171875,-7.38525390625
19.7899999,-9.761159896850586,0.45010992884635925,1.5729905366897583,-38.238525390625,10.284423828125,-3.8299560546875
19.8099999,-9.634267807006836,0.5051765441894531,2.2433669567108154,-38.1622314453125,17.181396484375,-0.1220703125
19.8299999,-9.708487510681152,0.17238251864910126,2.094926595687866,-14.5263671875,8.85009765625,3.7841796875
19.8499999,-9.911994934082031,-0.3998316824436188,1.3982137441635132,14.83154296875,-1.800537109375,7.659912109375
19.8699999,-9.964667320251465,-0.6703764796257019,0.7541735172271729,37.689208984375,-15.3350830078125,4.302978515625
19.8899999,-10.086771965026855,-0.5793967843055725,0.3663128614425659,34.9884033203125,-12.847900390625,-5.1116943359375
19.909999900000003,-10.005369186401367,-0.26336219906806946,0.40222588181495667,7.8887939453125,0.030517578125,-4.913330078125
19.929999900000002,-9.962273597717285,0.090979665517807,0.7876923680305481,-12.054443359375,4.180908203125,-1.5106201171875
19.9499999,-9.895236015319824,0.3471592366695404,1.0606313943862915,-18.5089111328125,4.5318603515625,-3.72314453125
