# Time (seconds),Accel_X,Accel_Y,Accel_Z,Gyro_X,Gyro_Y,Gyro_Z
0.0099999,0.5482721924781799,-9.945513725280762,0.3471592366695404,-0.06103515625,0.518798828125,1.2664794921875
0.029999900000000003,0.5770025849342346,-9.952696800231934,0.3423708379268646,0.1983642578125,1.007080078125,2.9296875
0.0499999,0.5027823448181152,-9.943120002746582,0.35913026332855225,0.79345703125,0.946044921875,1.5869140625
0.0699999,0.3902548849582672,-9.93354320526123,0.3734954595565796,-0.030517578125,0.2593994140625,-1.77001953125
0.08999990000000001,0.30885201692581177,-9.919178009033203,0.38067805767059326,-0.9307861328125,0.3662109375,-2.349853515625
0.10999990000000001,0.35673606395721436,-9.919178009033203,0.3902548849582672,-0.244140625,0.7171630859375,0.396728515625
0.1299999,0.4812345504760742,-9.945513725280762,0.35434186458587646,0.1373291015625,0.4730224609375,4.2572021484375
0.14999990000000002,0.5674257874488831,-9.955090522766113,0.36152446269989014,0.9002685546875,0.9307861328125,5.9356689453125
0.1699999,0.5578489899635315,-9.971850395202637,0.33518823981285095,0.213623046875,0.946044921875,4.8370361328125
0.1899999,0.45010992884635925,-9.959878921508789,0.33758243918418884,0.4730224609375,0.823974609375,3.0975341796875
0.20999990000000002,0.26096799969673157,-9.93593692779541,0.38307225704193115,1.9989013671875,0.946044921875,2.471923828125
0.2299999,0.0933738648891449,-9.907206535339355,0.38546648621559143,-0.42724609375,0.1678466796875,0.1068115234375
0.2499999,-0.023942016065120697,-9.892841339111328,0.4213795065879822,-0.946044921875,0.274658203125,-3.814697265625
0.2699999,-0.1388636976480484,-9.876082420349121,0.3926490843296051,0.18310546875,0.4730224609375,-5.3253173828125
0.28999990000000003,-0.23942017555236816,-9.926360130310059,0.272938996553421,0.823974609375,-7.3089599609375,-5.0811767578125
0.3099999,-0.26096799969673157,-9.986215591430664,0.09576806426048279,1.9073486328125,-34.3780517578125,0.701904296875
0.3299999,-0.2082955539226532,-10.122684478759766,-0.035913024097681046,4.4097900390625,-54.0924072265625,12.4664306640625
0.34999990000000003,0.047884032130241394,-10.256759643554688,-0.07900865375995636,3.814697265625,-52.2003173828125,19.22607421875
0.3699999,0.45489832758903503,-10.424354553222656,0.004788403399288654,2.50244140625,-33.2489013671875,23.2391357421875
0.3899999,0.8331822156906128,-10.565611839294434,0.14365209639072418,5.2642822265625,-13.3056640625,33.7677001953125
0.40999990000000003,1.1037269830703735,-10.706870079040527,0.26336219906806946,8.636474609375,-1.5106201171875,40.069580078125
0.4299999,1.0797849893569946,-10.869675636291504,0.31124621629714966,10.6048583984375,3.6163330078125,44.7540283203125
0.4499999,0.8188169598579407,-11.042057991027832,0.28969839215278625,9.09423828125,5.1422119140625,51.055908203125
0.4699999,0.35673606395721436,-11.207258224487305,0.22505496442317963,7.26318359375,3.1280517578125,55.17578125
0.4899999,-0.2059013396501541,-11.322179794311523,0.12928688526153564,6.256103515625,-3.3111572265625,56.45751953125
0.5099999,-0.7541735172271729,-11.317391395568848,0.035913024097681046,4.0283203125,-10.772705078125,57.2662353515625
0.5299999,-1.1875240802764893,-11.17852783203125,-0.023942016065120697,-0.0152587890625,-13.0462646484375,58.349609375
0.5499999,-1.4437036514282227,-10.912771224975586,-0.040701430290937424,-4.4403076171875,-7.2784423828125,60.1959228515625
0.5699999,-1.5610195398330688,-10.577583312988281,-0.05506663769483566,-9.1400146484375,-1.9378662109375,65.521240234375
0.5899998999999999,-1.5969325304031372,-9.832986831665039,-0.17477671802043915,-12.1002197265625,-11.53564453125,83.6029052734375
0.6099998999999999,-1.5634137392044067,-9.457097053527832,-0.2346317619085312,-10.009765625,-12.4969482421875,92.193603515625
0.6299999,-1.5945383310317993,-9.14345645904541,-0.26096799969673157,-10.101318359375,-6.072998046875,103.8665771484375
0.6499999,-1.7525556087493896,-8.825027465820312,-0.24660277366638184,-13.5345458984375,-7.1868896484375,122.9095458984375
0.6699999,-2.0398597717285156,-8.523358345031738,-0.15322890877723694,-15.716552734375,-15.289306640625,133.3465576171875
0.6899999,-2.52109432220459,-8.216899871826172,-0.038307227194309235,-16.0369873046875,-8.85009765625,129.39453125
0.7099999,-3.1507694721221924,-7.924807548522949,0.09576806426048279,-17.242431640625,5.340576171875,122.8790283203125
0.7299998999999999,-3.818751811981201,-7.6566572189331055,0.22505496442317963,-18.9666748046875,5.9661865234375,116.76025390625
0.7499998999999999,-4.431667327880859,-7.469909191131592,0.35673606395721436,-18.6004638671875,2.38037109375,102.447509765625
0.7699999,-4.912901878356934,-7.390900611877441,0.4644751250743866,-17.7154541015625,17.608642578125,83.9385986328125
0.7899999,-5.207388877868652,-7.448361396789551,0.545877993106842,-18.7530517578125,36.92626953125,75.1495361328125
0.8099999,-5.4228668212890625,-7.601590633392334,0.5578489899635315,-20.4010009765625,39.6728515625,78.643798828125
0.8299999,-5.5976433753967285,-7.805097579956055,0.45010992884635925,-19.10400390625,33.0657958984375,79.8492431640625
0.8499998999999999,-5.762843608856201,-7.955932140350342,0.23702596127986908,-12.8326416015625,30.5938720703125,75.9124755859375
0.8699998999999999,-5.9088897705078125,-8.010998725891113,-0.043095629662275314,-5.2947998046875,29.571533203125,81.0699462890625
0.8899999,-6.023811340332031,-7.931990146636963,-0.3232172429561615,0.79345703125,19.134521484375,96.038818359375
0.9099999,-6.110002517700195,-7.728483200073242,-0.5267243981361389,7.3394775390625,7.7056884765625,105.1025390625
0.9299999,-6.270414352416992,-7.429207801818848,-0.6727706789970398,14.8468017578125,11.1083984375,104.034423828125
0.9499999,-6.445190906524658,-7.070077419281006,-0.7326257228851318,21.91162109375,12.3291015625,105.4534912109375
0.9699998999999999,-6.675034523010254,-6.718130111694336,-0.706289529800415,26.6876220703125,-0.9307861328125,115.7379150390625
0.9899998999999999,-6.936002254486084,-6.385335922241211,-0.5913678407669067,28.4881591796875,-8.941650390625,123.4588623046875
1.0099999,-7.2352776527404785,-6.078877925872803,-0.42377370595932007,30.5633544921875,-0.244140625,119.62890625
1.0299999,-7.577648162841797,-5.817910194396973,-0.19153612852096558,32.0892333984375,3.3111572265625,118.408203125
1.0499999,-7.996633529663086,-5.518634796142578,0.023942016065120697,29.7088623046875,-7.8582763671875,123.2757568359375
1.0699999,-8.398859977722168,-5.219359874725342,0.22744916379451752,26.4129638671875,-15.4266357421875,117.401123046875
1.0899999,-8.75080680847168,-4.924872875213623,0.40462008118629456,23.834228515625,-8.9111328125,104.79736328125
1.1099999,-9.105149269104004,-4.63517427444458,0.5530605912208557,18.951416015625,-5.096435546875,101.3946533203125
1.1299999,-9.418789863586426,-4.350264549255371,0.6703764796257019,12.4969482421875,-12.5579833984375,99.91455078125
1.1499999,-9.763554573059082,-4.113238334655762,0.7541735172271729,9.5672607421875,-13.641357421875,82.763671875
1.1699998999999999,-10.103530883789062,-3.9001545906066895,0.8044517636299133,8.758544921875,-4.1961669921875,58.7005615234375
1.1899998999999999,-10.33098030090332,-3.7445313930511475,0.8403648138046265,5.5084228515625,-0.3204345703125,45.440673828125
1.2099999,-10.350133895874023,-3.6607344150543213,0.8451532125473022,-0.518798828125,-7.080078125,44.677734375
1.2299999,-10.144232749938965,-3.648763418197632,0.828393816947937,-6.317138671875,-13.1378173828125,47.3175048828125
1.2499999,-9.801861763000488,-3.6367924213409424,0.7876923680305481,-10.6658935546875,-10.0250244140625,50.96435546875
1.2699999,-9.404424667358398,-3.60566782951355,0.7254431247711182,-14.3890380859375,-3.1585693359375,55.389404296875
1.2899999,-9.069235801696777,-3.5003228187561035,0.6536170840263367,-17.4560546875,1.5106201171875,60.2569580078125
1.3099999,-8.889671325683594,-3.3279404640197754,0.5339069962501526,-18.5699462890625,7.1868896484375,61.370849609375
1.3299999,-8.89445972442627,-3.090914487838745,0.3711012601852417,-15.716552734375,8.7127685546875,56.1370849609375
1.3499999,-9.023746490478516,-2.8203697204589844,0.2106897532939911,-11.383056640625,-0.640869140625,48.3245849609375
1.3699999,-9.244012832641602,-2.561795711517334,0.0694318488240242,-7.7667236328125,-4.3487548828125,39.8712158203125
1.3899999,-9.44752025604248,-2.3558945655822754,-0.019153613597154617,-4.5928955078125,3.3111572265625,28.289794921875
1.4099999,-9.600749015808105,-2.2361843585968018,-0.05506663769483566,-1.007080078125,11.138916015625,16.5863037109375
1.4299998999999999,-9.710882186889648,-2.1954829692840576,-0.10295066982507706,2.2125244140625,11.6424560546875,10.2691650390625
1.4499999,-9.749189376831055,-2.2409727573394775,-0.15083470940589905,3.72314453125,2.86865234375,9.552001953125
1.4699999,-9.77791976928711,-2.3295583724975586,-0.20350714027881622,4.4708251953125,-3.265380859375,11.23046875
1.4899999,-9.832986831665039,-2.4157495498657227,-0.22026655077934265,6.0272216796875,-0.1220703125,10.6048583984375
1.5099999,-9.93354320526123,-2.470816135406494,-0.19632454216480255,7.4920654296875,4.5013427734375,7.568359375
1.5299999,-10.089165687561035,-2.4588451385498047,-0.13168109953403473,7.476806640625,4.608154296875,5.706787109375
1.5499999,-10.259154319763184,-2.3750481605529785,-0.07422025501728058,6.439208984375,0.7476806640625,5.92041015625
1.5699999,-10.357316970825195,-2.2457611560821533,-0.0071826050989329815,5.18798828125,-4.57763671875,7.598876953125
1.5899999,-10.369287490844727,-2.054224967956543,0.0454898327589035,3.5247802734375,-4.7149658203125,9.9945068359375
1.6099999,-10.268731117248535,-1.8411411046981812,0.08140286058187485,2.288818359375,0.732421875,10.43701171875
1.6299999,-10.08437728881836,-1.6280571222305298,0.08379705995321274,2.838134765625,5.8746337890625,10.1165771484375
1.6499999,-9.8784761428833,-1.4269442558288574,0.05267243832349777,3.96728515625,6.0882568359375,12.8326416015625
1.6699999,-9.691728591918945,-1.2521674633026123,-0.023942016065120697,4.3487548828125,6.2255859375,14.9078369140625
1.6899998999999999,-9.531316757202148,-1.1037269830703735,-0.1173158809542656,5.2032470703125,7.5225830078125,13.7176513671875
1.7099999,-9.404424667358398,-0.9816226959228516,-0.19632454216480255,6.0882568359375,9.70458984375,14.556884765625
1.7299999,-9.35893440246582,-0.8690952062606812,-0.24660277366638184,6.3323974609375,11.77978515625,19.378662109375
1.7499999,-9.375694274902344,-0.7613561153411865,-0.23702596127986908,6.683349609375,7.9803466796875,21.087646484375
1.7699999,-9.481039047241211,-0.6775590777397156,-0.1604115068912506,7.232666015625,2.960205078125,19.04296875
1.7899999,-9.706093788146973,-0.5985504388809204,-0.026336219161748886,6.4544677734375,-0.152587890625,19.10400390625
1.8099999,-9.998186111450195,-0.5410895943641663,0.16998831927776337,5.126953125,-3.814697265625,16.05224609375
1.8299999,-10.307038307189941,-0.5267243981361389,0.4165911078453064,3.0670166015625,-7.9803466796875,6.6986083984375
1.8499999,-10.639832496643066,-0.5219359993934631,0.6967126727104187,-1.9989013671875,-11.53564453125,-0.4425048828125
1.8699999,-10.917559623718262,-0.5434837937355042,0.9600749015808105,-9.3231201171875,-18.1884765625,-3.60107421875
1.8899999,-11.05402946472168,-0.608127236366272,1.192312479019165,-16.2353515625,-26.123046875,-5.6304931640625
1.9099999,-11.013327598571777,-0.7086837291717529,1.3335703611373901,-20.69091796875,-24.10888671875,-4.4097900390625
1.9299998999999999,-10.797849655151367,-0.8307880163192749,1.359906554222107,-22.247314453125,-16.4031982421875,0.4730224609375
1.9499999,-10.45547866821289,-0.9385270476341248,1.2761094570159912,-22.6287841796875,-15.9759521484375,5.584716796875
1.9699999,-10.04846477508545,-1.01753568649292,1.1061211824417114,-22.705078125,-21.2860107421875,7.38525390625
1.9899999,-9.667786598205566,-1.05105459690094,0.8882488012313843,-21.453857421875,-21.820068359375,9.2926025390625
2.0099999,-9.337387084960938,-1.0558429956436157,0.6512228846549988,-17.8375244140625,-16.9525146484375,14.0533447265625
2.0299999,-9.059659004211426,-1.0534487962722778,0.4405331015586853,-13.092041015625,-14.5721435546875,19.3634033203125
2.0499999,-8.935160636901855,-0.9911994934082031,0.26096799969673157,-8.5296630859375,-11.2762451171875,22.5372314453125
2.0699999,-8.932766914367676,-0.9074024558067322,0.13168109953403473,-4.486083984375,-6.561279296875,20.599365234375
2.0899999,-9.050082206726074,-0.7924807667732239,0.0694318488240242,-2.7313232421875,-6.439208984375,17.974853515625
2.1099999,-9.402029991149902,-0.7038952708244324,0.05027823522686958,-1.46484375,-5.9661865234375,17.242431640625
2.1299999,-9.988609313964844,-0.5961562395095825,0.043095629662275314,1.4190673828125,-2.44140625,5.3253173828125
2.1499999,-10.503362655639648,-0.5746083855628967,0.023942016065120697,5.340576171875,-3.2196044921875,3.3416748046875
2.1699999,-10.910377502441406,-0.4596867263317108,0.011971008032560349,8.0108642578125,-9.0484619140625,14.4195556640625
2.1899999,-10.948684692382812,-0.395043283700943,0.033518824726343155,11.3372802734375,-14.434814453125,8.9569091796875
2.2099999,-10.682928085327148,-0.3064578175544739,0.14604631066322327,12.6190185546875,-15.7470703125,5.6915283203125
2.2299999,-10.347740173339844,-0.2298433631658554,0.35434186458587646,10.5438232421875,-15.7928466796875,7.1563720703125
2.2499999,-10.065223693847656,-0.22026655077934265,0.6320692300796509,5.9356689453125,-16.05224609375,6.9122314453125
2.2699999,-9.859322547912598,-0.26096799969673157,0.950498104095459,-0.274658203125,-13.336181640625,7.7056884765625
2.2899999,-9.746794700622559,-0.3447650372982025,1.237802267074585,-2.960205078125,-8.3465576171875,9.8724365234375
2.3099999,-9.701305389404297,-0.4620809257030487,1.4532804489135742,-0.4730224609375,-6.1187744140625,11.6119384765625
2.3299999,-9.708487510681152,-0.5530605912208557,1.5490485429763794,2.7618408203125,-6.04248046875,14.0838623046875
2.3499999,-9.742006301879883,-0.5147533416748047,1.6280571222305298,5.0811767578125,-4.5013427734375,15.44189453125
2.3699999,-9.763554573059082,-0.35434186458587646,1.6903064250946045,2.044677734375,0.518798828125,14.129638671875
2.3899999,-9.77791976928711,-0.08619125932455063,1.7525556087493896,-5.6610107421875,6.4849853515625,10.772705078125
2.4099999,-9.77791976928711,0.19871874153614044,1.7621324062347412,-13.8397216796875,9.7808837890625,9.0179443359375
2.4299999,-9.797073364257812,0.45010992884635925,1.6903064250946045,-20.263671875,11.9171142578125,9.2620849609375
2.4499999,-9.72285270690918,0.5434837937355042,1.5107412338256836,-24.5819091796875,13.671875,7.843017578125
2.4699999,-9.81143856048584,0.5099649429321289,1.2761094570159912,-24.3988037109375,12.786865234375,6.53076171875
2.4899999,-9.864110946655273,0.26336219906806946,1.036689281463623,-22.7203369140625,11.23046875,4.69970703125
2.5099999,-9.971850395202637,0.011971008032560349,0.828393816947937,-17.4102783203125,10.6048583984375,13.0767822265625
2.5299999,-10.110713958740234,-0.2513911724090576,0.6607996821403503,-10.3912353515625,8.11767578125,12.237548828125
2.5499999,-10.11789608001709,-0.3687070608139038,0.5841852426528931,-4.1046142578125,6.5460205078125,12.6190185546875
2.5699999,-10.067618370056152,-0.3232172429561615,0.5650315880775452,-1.373291015625,5.218505859375,14.3280029296875
2.5899999,-10.017339706420898,-0.12689268589019775,0.6057330369949341,-1.7242431640625,5.3253173828125,13.7786865234375
2.6099999,-9.950302124023438,0.13407529890537262,0.6607996821403503,-2.5634765625,6.103515625,11.0015869140625
2.6299999,-9.914389610290527,0.40701428055763245,0.706289529800415,0.518798828125,5.706787109375,7.0953369140625
2.6499999,-9.904812812805176,0.6320692300796509,0.7398083209991455,6.53076171875,4.33349609375,4.5013427734375
2.6699999,-9.9000244140625,0.7805097699165344,0.727837324142456,9.429931640625,3.90625,2.86865234375
2.6899999,-9.921571731567383,0.8475474119186401,0.6799532771110535,10.55908203125,3.7078857421875,-0.1220703125
2.7099999,-9.907206535339355,0.8092401623725891,0.6727706789970398,11.77978515625,2.01416015625,-2.777099609375
2.7299999,-9.909601211547852,0.7134721279144287,0.7422025203704834,8.9569091796875,1.6937255859375,-2.105712890625
2.7499999,-9.883264541625977,0.524330198764801,0.8810662031173706,2.50244140625,7.049560546875,-0.457763671875
2.7699999,-9.871294021606445,0.2777273952960968,1.0103530883789062,0.18310546875,10.31494140625,1.7547607421875
2.7899999,-9.873687744140625,0.05267243832349777,1.0534487962722778,0.335693359375,10.528564453125,5.035400390625
2.8099999,-9.9000244140625,-0.05985504388809204,0.9696516990661621,-0.1678466796875,8.60595703125,7.8125
2.8299999,-9.919178009033203,-0.05746084079146385,0.7661445140838623,-1.739501953125,8.1787109375,7.7972412109375
2.8499999,-10.000580787658691,0.07661445438861847,0.4668693244457245,0.9918212890625,6.9732666015625,6.28662109375
2.8699999,-10.034099578857422,0.2944868206977844,0.17717093229293823,8.4686279296875,0.518798828125,5.43212890625
2.8899999,-10.101137161254883,0.5051765441894531,-0.05746084079146385,11.3067626953125,-4.45556640625,5.8441162109375
2.9099999,-10.098742485046387,0.7781155705451965,-0.19393034279346466,8.4075927734375,-5.9356689453125,1.7547607421875
2.9299999,-10.098742485046387,0.9433154463768005,-0.17956513166427612,6.7596435546875,-7.781982421875,-4.150390625
2.9499999,-10.014945983886719,1.0582371950149536,0.043095629662275314,7.50732421875,-9.6435546875,-5.645751953125
2.9699999,-9.955090522766113,1.039083480834961,0.33997663855552673,4.669189453125,-8.819580078125,-4.180908203125
2.9899999,-9.856928825378418,0.933738648891449,0.7422025203704834,-0.213623046875,-1.5869140625,-4.1961669921875
3.0099999,-9.80904483795166,0.7038952708244324,1.0127472877502441,-1.800537109375,-0.5645751953125,-6.7596435546875
3.0299999,-9.835380554199219,0.4812345504760742,1.2401964664459229,-3.0670166015625,0.0762939453125,-5.523681640625
3.0499999,-9.821015357971191,0.2944868206977844,1.3503297567367554,-6.4849853515625,2.471923828125,0.457763671875
3.0699999,-9.86650562286377,0.07182604819536209,1.2521674633026123,-9.4451904296875,5.767822265625,1.7547607421875
3.0899999,-9.962273597717285,-0.0454898327589035,1.0031704902648926,-1.861572265625,8.60595703125,2.0904541015625
3.1099999,-9.962273597717285,-0.0454898327589035,0.6751648783683777,11.383056640625,1.4495849609375,4.57763671875
3.1299999,-10.043676376342773,0.0454898327589035,0.33518823981285095,15.44189453125,-3.387451171875,4.4403076171875
3.1499999,-10.053253173828125,0.27054479718208313,0.3208230137825012,6.7291259765625,-2.410888671875,1.312255859375
3.1699999,-9.952696800231934,0.5147533416748047,0.4118026793003082,-13.214111328125,3.8299560546875,4.913330078125
3.1899999,-9.923966407775879,0.6703764796257019,0.7110779285430908,-25.0396728515625,7.598876953125,5.92041015625
3.2099999,-9.873687744140625,0.7709329724311829,0.8379706144332886,-23.3306884765625,6.8206787109375,4.1961669921875
3.2299999,-9.871294021606445,0.7254431247711182,0.7972691655158997,-15.6707763671875,7.5531005859375,3.8604736328125
3.2499999,-9.916783332824707,0.7350199222564697,0.7829039692878723,-6.561279296875,3.5247802734375,-1.9073486328125
3.2699999,-9.892841339111328,0.7326257228851318,0.7038952708244324,-9.4757080078125,4.5928955078125,1.03759765625
3.2899999,-9.895236015319824,0.7781155705451965,0.7254431247711182,-21.7437744140625,12.115478515625,1.739501953125
3.3099999,-9.876082420349121,0.7781155705451965,0.730231523513794,-24.3072509765625,15.228271484375,-1.220703125
3.3299999000000002,-9.923966407775879,0.6440402865409851,0.49320554733276367,-10.9405517578125,10.7574462890625,-3.1585693359375
3.3499999,-9.986215591430664,0.44532153010368347,0.1604115068912506,9.09423828125,-0.0762939453125,-2.838134765625
3.3699999,-10.122684478759766,0.2298433631658554,-0.07422025501728058,22.0794677734375,-8.4075927734375,-3.692626953125
3.3899999,-10.113107681274414,0.12689268589019775,-0.13168109953403473,17.27294921875,-7.01904296875,2.3193359375
3.4099999,-10.103530883789062,0.16519992053508759,0.12689268589019775,0.274658203125,-0.518798828125,4.0435791015625
3.4299999,-9.988609313964844,0.26336219906806946,0.3423708379268646,-9.2620849609375,2.8839111328125,4.180908203125
3.4499999,-9.964667320251465,0.3256114423274994,0.4812345504760742,-3.35693359375,-1.1444091796875,6.6375732421875
3.4699999,-9.904812812805176,0.3974374830722809,0.43095630407333374,5.9356689453125,-6.34765625,3.5552978515625
3.4899999,-10.02452278137207,0.395043283700943,0.2777273952960968,10.986328125,-10.7879638671875,1.434326171875
3.5099999,-10.002974510192871,0.4836287498474121,0.2322375625371933,11.41357421875,-11.8408203125,3.4637451171875
3.5299999,-10.005369186401367,0.5937620401382446,0.2513911724090576,7.9193115234375,-11.9476318359375,2.9296875
3.5499999,-9.983820915222168,0.7206547260284424,0.3232172429561615,5.67626953125,-8.453369140625,0.335693359375
3.5699999,-9.880870819091797,0.8140285611152649,0.6248866319656372,5.06591796875,-6.6070556640625,2.1820068359375
3.5899999,-9.823410034179688,0.8834604024887085,0.933738648891449,-1.2359619140625,-3.7841796875,1.922607421875
3.6099999,-9.780313491821289,0.9193734526634216,1.3503297567367554,-9.27734375,4.0740966796875,-0.1373291015625
3.6299999,-9.730035781860352,0.9457096457481384,1.7070658206939697,-17.8985595703125,10.8795166015625,1.3275146484375
3.6499999,-9.725247383117676,0.9816226959228516,1.8818424940109253,-29.4342041015625,19.5159912109375,-0.152587890625
3.6699999,-9.765948295593262,0.9983820915222168,1.7884687185287476,-32.379150390625,23.5443115234375,-2.1820068359375
3.6899999,-9.746794700622559,0.9289502501487732,1.479616641998291,-24.6124267578125,21.9268798828125,-0.1983642578125
3.7099999,-9.847352027893066,0.8068459630012512,0.9648633003234863,-14.7247314453125,16.90673828125,-1.0528564453125
3.7299999,-9.832986831665039,0.6607996821403503,0.5003881454467773,-11.3983154296875,15.93017578125,-3.8604736328125
3.7499999,-9.95748519897461,0.47644615173339844,0.05027823522686958,-13.1378173828125,12.1612548828125,-3.448486328125
3.7699999,-9.981427192687988,0.3998316824436188,-0.24420857429504395,-13.73291015625,9.002685546875,-1.5716552734375
3.7899999,-10.105925559997559,0.26575639843940735,-0.5674257874488831,-8.1024169921875,6.8206787109375,-1.220703125
3.8099999,-10.091560363769531,0.23942017555236816,-0.6607996821403503,4.2572021484375,-0.9307861328125,0.823974609375
3.8299999000000002,-10.14902114868164,0.2537853717803955,-0.6248866319656372,9.4451904296875,-7.8887939453125,1.5411376953125
3.8499999,-10.105925559997559,0.3256114423274994,-0.48602294921875,3.0670166015625,-5.55419921875,1.129150390625
3.8699999,-10.091560363769531,0.5099649429321289,-0.031124621629714966,-1.4495849609375,-4.547119140625,-0.213623046875
3.8899999,-10.038887977600098,0.6272808313369751,0.2825157940387726,-14.7552490234375,-1.7852783203125,-0.30517578125
3.9099999,-9.99100399017334,0.6105214357376099,0.4692635238170624,-20.6451416015625,-0.9307861328125,0.7781982421875
3.9299999,-10.019734382629395,0.42616790533065796,0.3064578175544739,0.7476806640625,-5.523681640625,1.190185546875
3.9499999,-10.0580415725708,0.14844051003456116,-0.13407529890537262,31.8145751953125,-18.4478759765625,6.2255859375
3.9699999,-10.120290756225586,-0.043095629662275314,-0.49320554733276367,51.69677734375,-31.951904296875,6.4697265625
3.9899999,-10.11550235748291,0.033518824726343155,-0.507570743560791,48.27880859375,-32.318115234375,5.126953125
4.0099999,-10.041281700134277,0.2968810200691223,-0.05746084079146385,25.177001953125,-21.9268798828125,6.7138671875
4.029999900000001,-9.904812812805176,0.6919242739677429,0.689530074596405,1.953125,-13.702392578125,6.4697265625
4.0499999,-9.751583099365234,1.0582371950149536,1.4245500564575195,-6.561279296875,-7.049560546875,4.1656494140625
4.069999900000001,-9.646238327026367,1.3311761617660522,1.8962076902389526,-4.4403076171875,-1.8463134765625,2.5177001953125
4.0899999000000005,-9.600749015808105,1.4652514457702637,2.1380221843719482,-7.598876953125,4.3487548828125,4.4708251953125
4.1099999,-9.600749015808105,1.525106430053711,2.145204782485962,-16.357421875,11.566162109375,-2.8076171875
4.1299999000000005,-9.641449928283691,1.5538369417190552,2.073378562927246,-23.895263671875,16.632080078125,-6.1798095703125
4.1499999,-9.68694019317627,1.4221558570861816,1.8722656965255737,-28.3660888671875,23.468017578125,-6.6680908203125
4.1699999000000005,-9.799467086791992,1.2042834758758545,1.4053963422775269,-22.6287841796875,25.3143310546875,-9.7503662109375
4.1899999,-9.861717224121094,0.9193734526634216,0.9385270476341248,-8.4228515625,16.7694091796875,-8.4075927734375
4.209999900000001,-9.995792388916016,0.5578489899635315,0.21547815203666687,5.8441162109375,8.270263671875,-7.598876953125
4.2299999,-10.086771965026855,0.35434186458587646,-0.2322375625371933,22.9339599609375,3.143310546875,-12.3138427734375
4.249999900000001,-10.144232749938965,0.26815059781074524,-0.5123591423034668,32.928466796875,-2.3651123046875,-11.8865966796875
4.2699999,-10.113107681274414,0.2968810200691223,-0.4836287498474121,29.0985107421875,-4.8980712890625,-11.77978515625
4.289999900000001,-10.086771965026855,0.4141969084739685,-0.1628057211637497,19.622802734375,-3.0364990234375,-12.3291015625
4.3099999,-9.852140426635742,0.6775590777397156,0.9481038451194763,-24.96337890625,12.0391845703125,-5.4931640625
4.329999900000001,-9.718064308166504,0.5937620401382446,1.3503297567367554,-40.1458740234375,19.012451171875,-1.8310546875
4.3499999,-9.768342971801758,0.38067805767059326,1.2713210582733154,-30.8685302734375,21.2554931640625,-1.15966796875
4.369999900000001,-9.84495735168457,0.07182604819536209,0.9002198576927185,-4.425048828125,10.5743408203125,0.9307861328125
4.3899999,-9.897629737854004,-0.12928688526153564,0.4884171485900879,5.0201416015625,0.2288818359375,3.662109375
4.409999900000001,-10.02452278137207,-0.15801730751991272,0.038307227194309235,-15.0146484375,8.60595703125,3.753662109375
4.4299999,-10.067618370056152,0.021547814831137657,-0.1388636976480484,-22.7508544921875,9.5977783203125,6.53076171875
4.449999900000001,-10.096348762512207,0.19632454216480255,-0.26815059781074524,-15.380859375,1.312255859375,3.7384033203125
4.4699999,-10.144232749938965,0.31364041566848755,-0.40222588181495667,-5.523681640625,-2.1820068359375,0.4119873046875
4.489999900000001,-10.120290756225586,0.4141969084739685,-0.29209262132644653,3.6163330078125,-4.94384765625,1.9989013671875
4.5099999,-10.089165687561035,0.4812345504760742,-0.08140286058187485,-1.1138916015625,-2.227783203125,5.1727294921875
4.529999900000001,-10.053253173828125,0.5363011956214905,0.31603461503982544,-14.404296875,2.197265625,6.2713623046875
4.5499999,-10.000580787658691,0.6512228846549988,0.6440402865409851,-31.1126708984375,6.0272216796875,9.2010498046875
4.569999900000001,-9.945513725280762,0.6536170840263367,0.8762778043746948,-42.0074462890625,13.6260986328125,10.25390625
4.5899999000000005,-9.897629737854004,0.6775590777397156,0.9385270476341248,-36.7279052734375,11.474609375,8.056640625
4.609999900000001,-9.885659217834473,0.5841852426528931,0.7445967197418213,-35.7818603515625,12.2833251953125,8.2244873046875
4.6299999000000005,-9.928754806518555,0.42856210470199585,0.38546648621559143,-30.609130859375,10.3607177734375,9.46044921875
4.6499999,-10.005369186401367,0.24660277366638184,-0.08619125932455063,-16.17431640625,1.3580322265625,12.451171875
4.6699999000000005,-10.163386344909668,0.12689268589019775,-0.5099649429321289,-0.3662109375,-6.256103515625,14.404296875
4.6899999,-10.139444351196289,0.1364694982767105,-0.6991068720817566,8.8958740234375,-9.1400146484375,15.472412109375
4.709999900000001,-10.132261276245117,0.3423708379268646,-0.5386953949928284,8.087158203125,-10.7574462890625,19.5159912109375
4.7299999,-9.962273597717285,0.7326257228851318,-0.12449848651885986,2.0751953125,-6.4697265625,10.43701171875
4.749999900000001,-9.816226959228516,1.1037269830703735,0.395043283700943,-2.105712890625,0.1373291015625,2.25830078125
4.7699999,-9.732429504394531,1.4101848602294922,0.8427590131759644,-2.1209716796875,5.3253173828125,0.2593994140625
4.789999900000001,-9.703699111938477,1.5155296325683594,1.0845733880996704,-0.091552734375,8.6669921875,-1.0223388671875
4.8099999,-9.72285270690918,1.4317326545715332,1.1037269830703735,3.631591796875,10.772705078125,-2.2125244140625
4.829999900000001,-9.773131370544434,1.2210428714752197,0.9696516990661621,8.819580078125,11.4288330078125,-2.99072265625
4.8499999,-9.821015357971191,0.9624691009521484,0.7469909191131592,9.5977783203125,12.4053955078125,-1.983642578125
4.869999900000001,-9.871294021606445,0.727837324142456,0.5099649429321289,5.1422119140625,13.7481689453125,1.0986328125
4.8899999,-9.914389610290527,0.5626373887062073,0.2825157940387726,1.89208984375,14.0838623046875,3.204345703125
4.909999900000001,-9.943120002746582,0.49799394607543945,0.040701430290937424,2.532958984375,13.2293701171875,4.669189453125
4.9299999,-9.979032516479492,0.5530605912208557,-0.20350714027881622,5.2490234375,9.94873046875,4.8065185546875
4.949999900000001,-10.007762908935547,0.6775590777397156,-0.44771572947502136,7.01904296875,5.4779052734375,3.3416748046875
4.9699999,-10.034099578857422,0.8427590131759644,-0.6177040338516235,5.3253173828125,2.0751953125,3.2806396484375
4.989999900000001,-10.055646896362305,0.9672574996948242,-0.7038952708244324,1.495361328125,-0.2899169921875,3.5552978515625
5.0099999,-10.04846477508545,1.0319008827209473,-0.6847416758537292,-0.1220703125,-3.0975341796875,3.4027099609375
5.029999900000001,-10.041281700134277,1.0319008827209473,-0.5626373887062073,0.579833984375,-4.974365234375,4.486083984375
5.0499999,-10.017339706420898,0.9552865028381348,-0.3734954595565796,0.7476806640625,-4.5013427734375,6.195068359375
5.069999900000001,-9.981427192687988,0.8379706144332886,-0.13407529890537262,0.335693359375,-3.3721923828125,8.2550048828125
5.0899999000000005,-9.93354320526123,0.7086837291717529,0.12689268589019775,1.0833740234375,-1.953125,10.6048583984375
5.109999900000001,-10.36449909210205,0.7015010714530945,0.3687070608139038,2.3956298828125,1.373291015625,13.336181640625
5.1299999000000005,-11.774683952331543,0.7326257228851318,0.45010992884635925,3.2196044921875,2.86865234375,-0.3509521484375
5.1499999,-13.747506141662598,0.8810662031173706,0.24181437492370605,7.232666015625,-18.1732177734375,-21.392822265625
5.1699999000000005,-15.897499084472656,1.0534487962722778,-0.19153612852096558,16.0369873046875,-63.262939453125,-30.8074951171875
5.1899999,-16.94855308532715,1.1276689767837524,-0.7613561153411865,30.9600830078125,-84.1522216796875,-63.8427734375
5.209999900000001,-16.443376541137695,1.173158884048462,-1.2425906658172607,44.3115234375,-61.3555908203125,-71.197509765625
5.2299999,-14.516044616699219,1.2258312702178955,-1.3670891523361206,54.74853515625,-32.7301025390625,-59.051513671875
5.249999900000001,-11.963826179504395,1.3455413579940796,-1.1109095811843872,54.779052734375,-14.0228271484375,-42.694091796875
5.2699999,-9.543288230895996,1.577778935432434,-0.5219359993934631,36.56005859375,-3.082275390625,-27.130126953125
5.289999900000001,-7.668628215789795,1.8794482946395874,0.23702596127986908,13.9617919921875,4.0130615234375,-17.9595947265625
5.3099999,-6.476315498352051,2.073378562927246,0.9265560507774353,-2.1514892578125,11.65771484375,-16.021728515625
5.329999900000001,-5.87776517868042,2.10210919380188,1.3910311460494995,-8.8043212890625,18.1732177734375,-15.1824951171875
5.3499999,-5.66228723526001,1.8698714971542358,1.5705963373184204,-7.6141357421875,23.223876953125,-11.77978515625
5.369999900000001,-5.683835029602051,1.4748282432556152,1.4939818382263184,-7.659912109375,27.5421142578125,-4.2877197265625
5.3899999,-5.825092792510986,0.9840168952941895,1.2689268589019775,-3.0517578125,26.9317626953125,0.48828125
5.409999900000001,-6.071695327758789,0.5123591423034668,0.9816226959228516,0.3814697265625,17.8375244140625,2.5634765625
5.4299999,-6.366182327270508,0.13168109953403473,0.6919242739677429,5.0811767578125,6.16455078125,2.9449462890625
5.449999900000001,-6.636727333068848,-0.14365209639072418,0.49559974670410156,12.3138427734375,0.0152587890625,0.4425048828125
5.4699999,-6.8809356689453125,-0.33039984107017517,0.43335050344467163,19.2413330078125,4.0130615234375,0.9002685546875
5.489999900000001,-7.175422668457031,-0.395043283700943,0.5051765441894531,23.25439453125,7.904052734375,5.096435546875
5.5099999,-7.51779317855835,-0.395043283700943,0.6847416758537292,24.7650146484375,1.617431640625,2.7618408203125
5.529999900000001,-7.903259754180908,-0.3423708379268646,0.9193734526634216,24.3072509765625,-10.009765625,-1.9378662109375
5.5499999,-8.276755332946777,-0.2585737705230713,1.1492167711257935,22.2015380859375,-16.845703125,2.62451171875
5.569999900000001,-8.5903959274292,-0.17956513166427612,1.3623007535934448,19.3023681640625,-18.4173583984375,12.939453125
5.5899999000000005,-8.87291145324707,-0.09576806426048279,1.5322890281677246,15.80810546875,-14.9078369140625,18.2647705078125
5.609999900000001,-9.17936897277832,-0.002394201699644327,1.6424223184585571,10.4522705078125,-9.613037109375,17.486572265625
5.6299999000000005,-9.564835548400879,0.0933738648891449,1.6855180263519287,3.2958984375,-6.103515625,18.00537109375
5.6499999,-9.983820915222168,0.17238251864910126,1.6543933153152466,-3.936767578125,-4.791259765625,20.5535888671875
5.6699999000000005,-10.366893768310547,0.20350714027881622,1.5538369417190552,-9.674072265625,-4.8980712890625,20.9197998046875
5.6899999,-10.706870079040527,0.20111294090747833,1.3886369466781616,-14.2669677734375,-3.6468505859375,20.965576171875
5.709999900000001,-10.934319496154785,0.15562310814857483,1.158793568611145,-16.7388916015625,-1.8768310546875,20.7366943359375
5.7299999,-11.039664268493652,0.11252748221158981,0.8762778043746948,-15.4876708984375,-1.6937255859375,19.10400390625
5.749999900000001,-11.03248119354248,0.0694318488240242,0.5913678407669067,-12.2222900390625,3.021240234375,15.9149169921875
5.7699999,-11.049241065979004,0.043095629662275314,0.2825157940387726,-9.8419189453125,13.946533203125,13.0462646484375
5.789999900000001,-11.101913452148438,0.05267243832349777,0.026336219161748886,-6.0577392578125,11.9171142578125,11.4288330078125
5.8099999,-11.209651947021484,0.07422025501728058,-0.1604115068912506,-0.2288818359375,-0.244140625,9.1552734375
5.829999900000001,-11.350910186767578,0.13168109953403473,-0.26096799969673157,4.9285888671875,-2.9754638671875,7.7972412109375
5.8499999,-11.434707641601562,0.2082955539226532,-0.26815059781074524,8.5601806640625,-0.0457763671875,7.8582763671875
5.869999900000001,-11.446678161621094,0.3447650372982025,-0.181959331035614,11.1541748046875,-2.74658203125,7.568359375
5.8899999,-11.410765647888184,0.5339069962501526,-0.05506663769483566,12.969970703125,-0.54931640625,2.227783203125
5.909999900000001,-11.33654499053955,0.7565677165985107,0.08379705995321274,14.739990234375,7.14111328125,-5.157470703125
5.9299999,-11.197681427001953,0.9792284965515137,0.2298433631658554,15.625,6.500244140625,-8.1634521484375
5.949999900000001,-10.960655212402344,1.137245774269104,0.35434186458587646,15.4571533203125,0.91552734375,-7.7972412109375
5.9699999,-10.611102104187012,1.194706678390503,0.45489832758903503,15.9912109375,-2.349853515625,-7.2021484375
5.989999900000001,-10.196905136108398,1.170764684677124,0.5482721924781799,16.9219970703125,-3.2196044921875,-3.3416748046875
6.0099999,-9.813833236694336,1.1061211824417114,0.6560112833976746,17.5323486328125,-2.2430419921875,2.5177001953125
6.029999900000001,-9.5408935546875,1.0438719987869263,0.7733271718025208,16.29638671875,-0.9918212890625,5.31005859375
6.0499999,-9.421183586120605,1.0031704902648926,0.8906430602073669,13.85498046875,1.15966796875,4.364013671875
6.069999900000001,-9.457097053527832,0.9744400978088379,0.9624691009521484,11.871337890625,3.570556640625,3.7994384765625
6.0899999000000005,-9.581595420837402,0.9576807022094727,0.9816226959228516,11.1236572265625,0.7476806640625,5.2642822265625
6.109999900000001,-9.72285270690918,0.9217676520347595,0.950498104095459,10.3912353515625,-4.2266845703125,7.14111328125
6.1299999000000005,-9.840168952941895,0.8834604024887085,0.8858546018600464,9.2315673828125,-5.92041015625,9.2010498046875
6.149999900000001,-9.90241813659668,0.8355764150619507,0.8307880163192749,8.0413818359375,-5.0506591796875,10.162353515625
6.1699999000000005,-9.943120002746582,0.7996633648872375,0.7709329724311829,7.293701171875,-2.0599365234375,5.67626953125
6.1899999,-9.907206535339355,0.7398083209991455,0.7206547260284424,6.6986083984375,-1.1749267578125,-4.3487548828125
6.209999900000001,-9.773131370544434,0.6512228846549988,0.6823474764823914,5.4168701171875,-1.251220703125,-8.23974609375
6.2299999,-9.548076629638672,0.5506663918495178,0.6368576288223267,3.5552978515625,2.3956298828125,-0.457763671875
6.249999900000001,-9.255983352661133,0.4596867263317108,0.5889736413955688,2.2430419921875,4.5928955078125,9.3536376953125
6.2699999,-9.030928611755371,0.43335050344467163,0.5339069962501526,1.6632080078125,5.3558349609375,13.4124755859375
6.289999900000001,-8.959102630615234,0.5099649429321289,0.4692635238170624,1.1749267578125,9.0789794921875,11.2457275390625
6.3099999,-9.014169692993164,0.6368576288223267,0.3998316824436188,1.434326171875,14.70947265625,5.767822265625
6.329999900000001,-9.923966407775879,0.8571242094039917,0.33758243918418884,3.0059814453125,15.44189453125,1.556396484375
6.3499999,-10.398017883300781,1.0319008827209473,0.31124621629714966,4.8675537109375,-3.753662109375,-20.0042724609375
6.369999900000001,-11.166556358337402,1.1420341730117798,0.23942017555236816,4.241943359375,-6.256103515625,-1.77001953125
6.3899999,-11.267112731933594,1.256955862045288,0.21547815203666687,4.547119140625,-5.9051513671875,3.9825439453125
6.409999900000001,-10.922348022460938,1.2330138683319092,0.2585737705230713,6.6680908203125,-10.92529296875,-6.8511962890625
6.4299999,-10.469843864440918,1.1779472827911377,0.31364041566848755,7.26318359375,-8.026123046875,-7.171630859375
6.449999900000001,-10.139444351196289,1.036689281463623,0.4429273009300232,10.6353759765625,-8.3160400390625,-7.0343017578125
6.4699999,-9.926360130310059,0.8882488012313843,0.6512228846549988,16.0064697265625,-10.31494140625,-4.9896240234375
6.489999900000001,-9.773131370544434,0.7852981686592102,0.8667010068893433,15.106201171875,-5.7830810546875,-0.396728515625
6.5099999,-9.694122314453125,0.7781155705451965,1.072602391242981,9.1400146484375,0.335693359375,-1.6632080078125
6.529999900000001,-9.677363395690918,0.8738836050033569,1.2306196689605713,2.105712890625,2.777099609375,-3.72314453125
6.5499999,-9.691728591918945,0.9983820915222168,1.278503656387329,-5.340576171875,4.9896240234375,-1.6326904296875
6.569999900000001,-9.765948295593262,1.0654197931289673,1.1779472827911377,-10.986328125,7.2174072265625,-1.89208984375
6.5899999000000005,-9.859322547912598,1.0103530883789062,0.9241618514060974,-11.04736328125,6.805419921875,-3.5552978515625
6.609999900000001,-9.931148529052734,0.8834604024887085,0.6416460275650024,-4.0283203125,2.197265625,-1.3580322265625
6.6299999000000005,-9.979032516479492,0.7350199222564697,0.38067805767059326,3.6163330078125,-2.349853515625,2.593994140625
6.649999900000001,-10.014945983886719,0.6153098344802856,0.16759411990642548,7.1258544921875,-3.204345703125,1.922607421875
6.6699999000000005,-10.04846477508545,0.545877993106842,0.035913024097681046,9.552001953125,-5.0201416015625,-0.0152587890625
6.6899999,-10.046070098876953,0.5339069962501526,0.05267243832349777,14.5263671875,-10.6658935546875,2.716064453125
6.709999900000001,-9.986215591430664,0.6153098344802856,0.2992752194404602,14.190673828125,-13.0615234375,7.659912109375
6.7299999,-9.9000244140625,0.7733271718025208,0.730231523513794,0.518798828125,-4.3487548828125,7.659912109375
6.749999900000001,-9.770736694335938,1.0438719987869263,1.2521674633026123,-16.0980224609375,7.904052734375,4.1961669921875
6.7699999,-9.667786598205566,1.3311761617660522,1.6304513216018677,-23.3917236328125,11.6119384765625,3.0517578125
6.789999900000001,-9.634267807006836,1.5753847360610962,1.802833914756775,-21.0723876953125,12.2222900390625,1.556396484375
6.8099999,-9.679757118225098,1.6974890232086182,1.6855180263519287,-15.2435302734375,16.05224609375,-3.8299560546875
6.829999900000001,-9.713275909423828,1.6950948238372803,1.479616641998291,-9.8876953125,18.6920166015625,-8.30078125
6.8499999,-9.782708168029785,1.5658079385757446,1.0821791887283325,-7.415771484375,17.547607421875,-10.07080078125
6.869999900000001,-9.832986831665039,1.3623007535934448,0.7805097699165344,-10.498046875,18.4783935546875,-9.521484375
6.8899999,-9.873687744140625,1.0438719987869263,0.4165911078453064,-14.7857666015625,20.5230712890625,-9.063720703125
6.909999900000001,-9.981427192687988,0.7493851184844971,0.12449848651885986,-18.1884765625,16.998291015625,-1.7242431640625
6.9299999,-10.010157585144043,0.4836287498474121,-0.13168109953403473,-19.4549560546875,9.9639892578125,4.302978515625
6.949999900000001,-10.04846477508545,0.24181437492370605,-0.5339069962501526,-16.1590576171875,3.7078857421875,3.8299560546875
6.9699999,-10.043676376342773,0.181959331035614,-0.8834604024887085,-0.6256103515625,-4.5166015625,2.8076171875
6.989999900000001,-10.072406768798828,0.22744916379451752,-1.0223240852355957,14.8162841796875,-16.8609619140625,5.9967041015625
7.0099999,-9.995792388916016,0.5530605912208557,-0.689530074596405,8.8958740234375,-16.326904296875,2.716064453125
7.029999900000001,-9.964667320251465,0.9385270476341248,-0.13168109953403473,-17.791748046875,-5.889892578125,0.091552734375
7.0499999,-9.967061996459961,1.213860273361206,0.4381389021873474,-30.029296875,3.7078857421875,-4.791259765625
7.069999900000001,-9.86889934539795,1.278503656387329,0.8571242094039917,-11.8865966796875,-0.8697509765625,-6.65283203125
7.0899999000000005,-9.897629737854004,1.237802267074585,1.1492167711257935,-0.3509521484375,-7.354736328125,0.6103515625
7.109999900000001,-9.799467086791992,1.1109095811843872,1.3646949529647827,-20.2178955078125,4.9285888671875,4.5318603515625
7.1299999000000005,-9.828198432922363,1.0678139925003052,1.4844050407409668,-37.17041015625,23.86474609375,-1.1749267578125
7.149999900000001,-9.840168952941895,0.9888052940368652,1.2689268589019775,-23.651123046875,20.20263671875,-3.41796875
7.1699999000000005,-9.8784761428833,0.8092401623725891,0.6775590777397156,4.150390625,2.50244140625,-5.126953125
7.1899999,-10.074800491333008,0.5841852426528931,-0.16998831927776337,24.932861328125,-6.8511962890625,-5.279541015625
7.209999900000001,-10.141838073730469,0.3758896589279175,-0.871489405632019,35.2630615234375,-13.946533203125,-3.1585693359375
7.2299999,-10.125079154968262,0.3208230137825012,-1.0199298858642578,38.421630859375,-21.17919921875,1.4495849609375
7.249999900000001,-10.108319282531738,0.5099649429321289,-0.7996633648872375,29.0374755859375,-18.1121826171875,4.7607421875
7.2699999,-9.995792388916016,0.7398083209991455,-0.17717093229293823,10.406494140625,-12.0849609375,2.9449462890625
7.289999900000001,-9.883264541625977,1.1085153818130493,0.6105214357376099,-2.86865234375,-6.40869140625,-4.638671875
7.3099999,-9.804255485534668,1.37906014919281,1.280897855758667,-11.5509033203125,0.1678466796875,-4.0283203125
7.329999900000001,-9.734824180603027,1.501164436340332,1.778891921043396,-17.0745849609375,10.498046875,-0.8697509765625
7.3499999,-9.622296333312988,1.4508862495422363,1.9967641830444336,-22.674560546875,15.655517578125,-2.1820068359375
7.369999900000001,-9.581595420837402,1.3527239561080933,1.9823989868164062,-30.9600830078125,23.193359375,-6.7138671875
7.3899999,-9.617507934570312,1.1085153818130493,1.702277421951294,-35.491943359375,24.3988037109375,-9.0484619140625
7.409999900000001,-9.691728591918945,0.8068459630012512,1.1851298809051514,-27.252197265625,23.86474609375,-3.387451171875
7.4299999,-9.859322547912598,0.586579442024231,0.7805097699165344,-10.772705078125,20.172119140625,-1.15966796875
7.449999900000001,-9.940725326538086,0.4165911078453064,0.24420857429504395,-14.2974853515625,19.83642578125,3.41796875
7.4699999,-10.031704902648926,0.5003881454467773,-0.08379705995321274,-18.6920166015625,20.2484130859375,-1.1749267578125
7.489999900000001,-10.08198356628418,0.5602431893348694,-0.4884171485900879,-16.4642333984375,13.916015625,-3.5858154296875
7.5099999,-10.129867553710938,0.629675030708313,-0.8738836050033569,-2.7618408203125,4.3792724609375,-5.126953125
7.529999900000001,-10.189722061157227,0.5746083855628967,-1.1420341730117798,16.9525146484375,-10.68115234375,-5.828857421875
7.5499999,-10.163386344909668,0.5746083855628967,-1.1085153818130493,24.23095703125,-14.0838623046875,-1.0223388671875
7.569999900000001,-10.08198356628418,0.6703764796257019,-0.6991068720817566,8.36181640625,-5.37109375,0.1220703125
7.5899999000000005,-9.983820915222168,0.7876923680305481,-0.10534487664699554,-10.7269287109375,2.532958984375,-4.2572021484375
7.609999900000001,-9.895236015319824,0.9265560507774353,0.40462008118629456,-11.4593505859375,2.7923583984375,-5.6610107421875
7.6299999000000005,-9.828198432922363,0.9385270476341248,0.7422025203704834,-5.9661865234375,2.7618408203125,-3.2196044921875
7.649999900000001,-9.871294021606445,0.8762778043746948,0.8475474119186401,-7.5836181640625,4.7760009765625,-1.8310546875
7.6699999000000005,-9.90241813659668,0.7422025203704834,0.7493851184844971,-19.6990966796875,11.9781494140625,-0.030517578125
7.6899999,-9.931148529052734,0.5219359993934631,0.4213795065879822,-17.5323486328125,12.969970703125,-0.1220703125
7.709999900000001,-10.0580415725708,0.29209262132644653,-0.08619125932455063,7.6141357421875,-4.33349609375,-2.0751953125
7.7299999,-10.120290756225586,0.05985504388809204,-0.6799532771110535,27.40478515625,-15.0604248046875,-0.0457763671875
7.749999900000001,-10.20648193359375,0.016759412363171577,-1.0654197931289673,34.97314453125,-18.463134765625,4.791259765625
7.7699999,-10.17296314239502,0.09576806426048279,-1.0534487962722778,29.541015625,-21.6827392578125,6.5460205078125
7.789999900000001,-10.108319282531738,0.33758243918418884,-0.7326257228851318,22.88818359375,-18.829345703125,2.532958984375
7.8099999,-9.976638793945312,0.6488286852836609,-0.12449848651885986,19.2413330078125,-16.4794921875,1.15966796875
7.829999900000001,-9.856928825378418,0.9648633003234863,0.5386953949928284,8.9111328125,-9.7198486328125,1.2054443359375
7.8499999,-9.770736694335938,1.2713210582733154,1.2330138683319092,-4.1351318359375,-2.288818359375,2.5177001953125
7.869999900000001,-9.66539192199707,1.4221558570861816,1.6160861253738403,-16.4031982421875,8.36181640625,1.4495849609375
7.8899999,-9.718064308166504,1.4413094520568848,1.745373010635376,-15.6097412109375,12.75634765625,-4.425048828125
7.909999900000001,-9.708487510681152,1.2713210582733154,1.3934253454208374,-7.2479248046875,9.8114013671875,-7.26318359375
7.9299999,-9.880870819091797,0.9959878921508789,0.8475474119186401,1.312255859375,6.53076171875,-6.04248046875
7.949999900000001,-9.921571731567383,0.7326257228851318,0.38546648621559143,5.9356689453125,1.7547607421875,-1.434326171875
7.9699999,-9.962273597717285,0.5267243981361389,0.028730420395731926,1.9683837890625,3.5552978515625,-3.35693359375
7.989999900000001,-9.995792388916016,0.4357447028160095,0,-0.6866455078125,4.5013427734375,-4.57763671875
8.0099999,-9.96945571899414,0.45010992884635925,0.06464344263076782,-3.2196044921875,4.5318603515625,-0.946044921875
8.0299999,-9.988609313964844,0.7182605266571045,0.35913026332855225,-21.2554931640625,11.3067626953125,0.7781982421875
8.049999900000001,-9.952696800231934,0.7565677165985107,0.38307225704193115,-19.6990966796875,10.101318359375,-3.204345703125
8.069999900000001,-9.971850395202637,0.6488286852836609,0.10534487664699554,-8.7890625,3.1280517578125,-2.86865234375
8.0899999,-10.041281700134277,0.4812345504760742,-0.272938996553421,6.317138671875,-3.7078857421875,-0.7781982421875
8.1099999,-10.074800491333008,0.26575639843940735,-0.6057330369949341,16.11328125,-12.0697021484375,4.4097900390625
8.129999900000001,-10.153809547424316,0.2082955539226532,-0.7541735172271729,17.0135498046875,-15.228271484375,3.2196044921875
8.149999900000001,-10.086771965026855,0.29209262132644653,-0.5506663918495178,16.1590576171875,-15.9454345703125,2.7313232421875
8.1699999,-9.998186111450195,0.395043283700943,-0.1843535304069519,8.1634521484375,-13.2904052734375,6.011962890625
8.1899999,-9.907206535339355,0.5650315880775452,0.2585737705230713,3.448486328125,-7.8125,3.6468505859375
8.2099999,-9.84256362915039,0.6991068720817566,0.6560112833976746,5.92041015625,-9.735107421875,5.706787109375
8.229999900000001,-9.818621635437012,0.828393816947937,0.9169792532920837,3.2501220703125,-7.4310302734375,4.669189453125
8.2499999,-9.84495735168457,0.9864110946655273,1.1444283723831177,-3.7994384765625,-3.2806396484375,1.64794921875
8.2699999,-9.804255485534668,1.137245774269104,1.2880805730819702,-14.495849609375,3.4027099609375,3.0059814453125
8.2899999,-9.77791976928711,1.314416766166687,1.37906014919281,-23.92578125,10.986328125,-0.5035400390625
8.309999900000001,-9.701305389404297,1.359906554222107,1.3311761617660522,-30.45654296875,14.0533447265625,-4.5013427734375
8.3299999,-9.72285270690918,1.290474772453308,1.1851298809051514,-28.167724609375,16.6473388671875,-5.9814453125
8.3499999,-9.763554573059082,1.0342950820922852,0.8930372595787048,-21.1029052734375,14.9383544921875,-4.45556640625
8.3699999,-9.856928825378418,0.8020575642585754,0.5817909836769104,-14.9383544921875,12.725830078125,-3.7384033203125
8.389999900000001,-9.964667320251465,0.48602294921875,0.07422025501728058,-11.627197265625,12.75634765625,-1.5869140625
8.4099999,-10.010157585144043,0.31364041566848755,-0.3926490843296051,1.312255859375,5.401611328125,-1.5106201171875
8.4299999,-10.053253173828125,0.14604631066322327,-0.7613561153411865,13.214111328125,-3.448486328125,0.457763671875
8.4499999,-10.022128105163574,0.12449848651885986,-0.8906430602073669,14.09912109375,-5.79833984375,3.0975341796875
8.469999900000001,-10.022128105163574,0.3232172429561615,-0.5793967843055725,2.2125244140625,-5.0811767578125,5.2490234375
8.4899999,-9.983820915222168,0.6416460275650024,-0.16759411990642548,-17.4407958984375,0.79345703125,3.2501220703125
8.5099999,-9.907206535339355,1.05105459690094,0.47405192255973816,-24.3072509765625,4.486083984375,-1.8157958984375
8.5299999,-9.9000244140625,1.3215993642807007,0.8092401623725891,-26.8096923828125,7.110595703125,-4.486083984375
8.549999900000001,-9.806650161743164,1.359906554222107,1.158793568611145,-36.376953125,16.2811279296875,-6.2255859375
8.569999900000001,-9.897629737854004,1.0821791887283325,0.9816226959228516,-40.3594970703125,20.44677734375,0
8.5899999,-9.914389610290527,0.6153098344802856,0.5937620401382446,-20.32470703125,11.199951171875,-0.244140625
8.6099999,-10.14902114868164,0.05267243832349777,-0.17956513166427612,11.29150390625,-2.44140625,1.6937255859375
8.629999900000001,-10.177751541137695,-0.3663128614425659,-0.9552865028381348,41.7633056640625,-16.5252685546875,6.317138671875
8.649999900000001,-10.335768699645996,-0.4189853072166443,-1.53707754611969,52.9632568359375,-21.8048095703125,10.07080078125
8.6699999,-10.247182846069336,-0.15083470940589905,-1.6496049165725708,53.1768798828125,-32.073974609375,8.0108642578125
8.6899999,-10.170568466186523,0.3926490843296051,-1.3215993642807007,45.1812744140625,-34.759521484375,3.7994384765625
8.709999900000001,-9.971850395202637,0.9696516990661621,-0.5123591423034668,32.684326171875,-27.7557373046875,2.3651123046875
8.729999900000001,-9.813833236694336,1.4724340438842773,0.47644615173339844,9.6893310546875,-17.730712890625,3.4942626953125
8.7499999,-9.591172218322754,1.8507179021835327,1.6400281190872192,-17.9901123046875,-5.7220458984375,0.30517578125
8.7699999,-9.490615844726562,2.008735179901123,2.425326347351074,-44.00634765625,12.8173828125,-0.518798828125
8.7899999,-9.454702377319336,1.8794482946395874,2.6168625354766846,-56.549072265625,26.6571044921875,-0.7781982421875
8.809999900000001,-9.567230224609375,1.53707754611969,2.169146776199341,-40.1153564453125,23.4832763671875,-2.01416015625
8.8299999,-9.710882186889648,0.9816226959228516,1.280897855758667,-16.6473388671875,11.8865966796875,1.251220703125
8.8499999,-9.938331604003906,0.6655880808830261,0.3734954595565796,-5.0201416015625,6.8359375,-0.030517578125
8.8699999,-10.012551307678223,0.5171475410461426,-0.1843535304069519,-5.889892578125,6.2255859375,-0.4425048828125
8.889999900000001,-10.158597946166992,0.6631938815116882,-0.5027823448181152,-10.6048583984375,5.401611328125,-4.7149658203125
8.9099999,-10.072406768798828,0.7972691655158997,-0.3663128614425659,-3.204345703125,0.732421875,-11.688232421875
8.9299999,-10.070012092590332,0.8595184087753296,-0.0694318488240242,1.678466796875,2.3651123046875,-11.1846923828125
8.9499999,-9.928754806518555,0.8068459630012512,0.5602431893348694,-7.110595703125,14.1143798828125,-6.866455078125
8.969999900000001,-9.823410034179688,0.6607996821403503,1.0797849893569946,-24.71923828125,23.2086181640625,0.4730224609375
8.9899999,-9.780313491821289,0.47165772318840027,1.3670891523361206,-34.9578857421875,32.806396484375,1.03759765625
9.0099999,-9.81143856048584,0.3016694188117981,1.0199298858642578,-21.484375,27.8472900390625,1.4801025390625
9.0299999,-9.928754806518555,0.24899697303771973,0.3734954595565796,0.48828125,16.11328125,2.227783203125
9.049999900000001,-10.089165687561035,0.42856210470199585,-0.4812345504760742,8.5296630859375,8.575439453125,-0.7171630859375
9.069999900000001,-10.196905136108398,0.6560112833976746,-1.0869675874710083,7.5225830078125,-2.01416015625,-1.617431640625
9.0899999,-10.29746150970459,0.7733271718025208,-1.37906014919281,8.1329345703125,-8.5601806640625,-6.7901611328125
9.1099999,-10.254365921020508,0.6703764796257019,-1.213860273361206,16.845703125,-13.7786865234375,-6.2713623046875
9.129999900000001,-10.187328338623047,0.3423708379268646,-0.8331822156906128,20.6146240234375,-11.077880859375,3.021240234375
9.149999900000001,-10.127472877502441,-0.08379705995321274,-0.40462008118629456,22.369384765625,-6.317138671875,10.2996826171875
9.1699999,-10.010157585144043,-0.31842881441116333,0.07661445438861847,32.2113037109375,-9.521484375,17.059326171875
9.1899999,-9.947908401489258,-0.3447650372982025,0.3280056416988373,30.94482421875,-7.720947265625,23.468017578125
9.209999900000001,-9.871294021606445,-0.06703764945268631,0.5434837937355042,21.1181640625,-1.89208984375,22.5372314453125
9.229999900000001,-9.876082420349121,0.5123591423034668,0.6751648783683777,9.613037109375,1.5106201171875,19.83642578125
9.2499999,-9.80904483795166,1.113303780555725,0.6871358752250671,0.3204345703125,5.340576171875,17.2119140625
9.2699999,-9.81143856048584,1.5729905366897583,0.586579442024231,-5.3558349609375,10.1470947265625,17.4713134765625
9.2899999,-9.775525093078613,1.7693150043487549,0.37828385829925537,-6.8511962890625,3.4027099609375,10.80322265625
9.309999900000001,-9.763554573059082,1.7190368175506592,0.16998831927776337,-1.1749267578125,1.007080078125,7.32421875
9.3299999,-9.799467086791992,1.5705963373184204,0.05267243832349777,3.96728515625,1.617431640625,7.6751708984375
9.3499999,-9.856928825378418,1.3958195447921753,0.05267243832349777,4.0283203125,2.50244140625,6.8511962890625
9.3699999,-9.880870819091797,1.2497732639312744,0.11971008777618408,3.7994384765625,5.2642822265625,5.889892578125
9.389999900000001,-9.883264541625977,1.161187767982483,0.16759411990642548,8.2244873046875,6.9122314453125,6.011962890625
9.4099999,-9.8784761428833,1.1013327836990356,0.14604631066322327,15.0146484375,4.730224609375,4.7149658203125
9.4299999,-9.888052940368652,1.137245774269104,0.08619125932455063,16.1285400390625,1.77001953125,4.180908203125
9.4499999,-9.90241813659668,1.1971008777618408,0.019153613597154617,10.3302001953125,2.838134765625,4.6234130859375
9.469999900000001,-9.938331604003906,1.2737152576446533,-0.0454898327589035,4.302978515625,4.82177734375,4.7607421875
9.4899999,-9.955090522766113,1.3000515699386597,-0.12689268589019775,4.3182373046875,2.6397705078125,4.425048828125
9.5099999,-9.952696800231934,1.3527239561080933,-0.19632454216480255,8.758544921875,-1.8310546875,4.974365234375
9.5299999,-9.919178009033203,1.4508862495422363,-0.181959331035614,10.1318359375,-2.50244140625,4.2877197265625
9.549999900000001,-9.876082420349121,1.5466543436050415,-0.07422025501728058,4.302978515625,2.349853515625,-0.1068115234375
9.569999900000001,-9.871294021606445,1.5921441316604614,0.07422025501728058,-0.030517578125,6.378173828125,-2.593994140625
9.5899999,-9.861717224121094,1.5394717454910278,0.14604631066322327,5.462646484375,5.31005859375,0.0152587890625
9.6099999,-9.825803756713867,1.4173674583435059,0.10773907601833344,12.2833251953125,2.8076171875,2.3193359375
9.629999900000001,-9.823410034179688,1.3407529592514038,-0.011971008032560349,9.490966796875,2.0751953125,1.5716552734375
9.649999900000001,-9.80904483795166,1.4077905416488647,-0.05027823522686958,-0.8087158203125,2.6397705078125,-0.9765625
9.6699999,-9.81143856048584,1.5179238319396973,-0.05027823522686958,-8.544921875,6.28662109375,-1.9683837890625
9.6899999,-9.818621635437012,1.6112977266311646,0.038307227194309235,-5.9814453125,7.476806640625,-4.7454833984375
9.709999900000001,-9.830592155456543,1.5203180313110352,0.023942016065120697,-3.3111572265625,8.392333984375,-5.2642822265625
9.729999900000001,-9.840168952941895,1.280897855758667,-0.08619125932455063,-0.6103515625,6.4697265625,-0.9765625
9.7499999,-9.86889934539795,1.05105459690094,-0.27054479718208313,3.7384033203125,1.708984375,5.7525634765625
9.7699999,-9.904812812805176,0.9409212470054626,-0.4429273009300232,6.3323974609375,-1.617431640625,6.9732666015625
9.7899999,-9.911994934082031,1.091755986213684,-0.4836287498474121,3.7689208984375,-1.64794921875,2.3651123046875
9.809999900000001,-9.84495735168457,1.316810965538025,-0.4405331015586853,-1.373291015625,0.579833984375,-2.5177001953125
9.8299999,-9.818621635437012,1.5275006294250488,-0.3711012601852417,-3.997802734375,0.6866455078125,-3.4027099609375
9.8499999,-9.835380554199219,1.6304513216018677,-0.33279404044151306,-3.5400390625,-2.6702880859375,-1.4190673828125
9.8699999,-9.880870819091797,1.6208745241165161,-0.3495534360408783,-3.662109375,-4.8675537109375,-1.46484375
9.889999900000001,-9.945513725280762,1.5658079385757446,-0.3016694188117981,-5.645751953125,-5.889892578125,-3.387451171875
9.9099999,-9.979032516479492,1.4293384552001953,-0.19393034279346466,-6.65283203125,-4.1961669921875,-2.6702880859375
9.9299999,-9.943120002746582,1.216254472732544,-0.014365210197865963,-3.662109375,-0.3509521484375,0.7781982421875
9.9499999,-9.892841339111328,0.993593692779541,0.1412578970193863,1.068115234375,1.9989013671875,4.94384765625
9.969999900000001,-9.825803756713867,0.8858546018600464,0.2298433631658554,4.8370361328125,2.593994140625,6.89697265625
9.9899999,-9.801861763000488,1.0295066833496094,0.22744916379451752,6.16455078125,3.143310546875,5.0811767578125
10.0099999,-9.801861763000488,1.4484920501708984,0.18914192914962769,6.866455078125,4.1961669921875,-1.40380859375
10.0299999,-9.797073364257812,1.9297266006469727,0.047884032130241394,6.6680908203125,4.669189453125,-12.3748779296875
10.049999900000001,-9.816226959228516,2.322375535964966,-0.06703764945268631,4.21142578125,3.1585693359375,-22.6898193359375
10.069999900000001,-9.835380554199219,2.387019157409668,-0.24660277366638184,0.6103515625,3.8909912109375,-25.970458984375
10.0899999,-9.895236015319824,2.0638017654418945,-0.3758896589279175,1.7547607421875,0.244140625,-22.8424072265625
10.1099999,-9.964667320251465,1.482010841369629,-0.4429273009300232,5.06591796875,-3.387451171875,-16.3116455078125
10.129999900000001,-10.02691650390625,0.8834604024887085,-0.4165911078453064,6.65283203125,-3.96728515625,-9.5977783203125
10.149999900000001,-10.038887977600098,0.4596867263317108,-0.2585737705230713,8.0108642578125,-2.38037109375,-5.7220458984375
10.1699999,-9.99339771270752,0.2944868206977844,-0.05027823522686958,9.979248046875,1.15966796875,-4.5318603515625
10.1899999,-9.940725326538086,0.35913026332855225,0.27054479718208313,12.8021240234375,4.150390625,-6.500244140625
10.209999900000001,-9.856928825378418,0.5770025849342346,0.3447650372982025,11.383056640625,6.378173828125,-5.3558349609375
10.229999900000001,-9.825803756713867,0.8667010068893433,0.5051765441894531,4.2877197265625,8.4075927734375,-3.875732421875
10.2499999,-9.797073364257812,1.137245774269104,0.3256114423274994,-3.1890869140625,15.411376953125,-8.087158203125
10.2699999,-9.825803756713867,1.3335703611373901,0.05985504388809204,-0.2899169921875,13.18359375,-11.5814208984375
10.2899999,-9.9000244140625,1.3646949529647827,-0.33997663855552673,8.0413818359375,6.622314453125,-13.3056640625
10.309999900000001,-10.02452278137207,1.1468225717544556,-0.7876923680305481,14.1754150390625,-0.946044921875,-12.451171875
10.3299999,-10.15141487121582,0.7924807667732239,-1.2066776752471924,13.397216796875,-7.8582763671875,-5.401611328125
10.3499999,-10.247182846069336,0.3711012601852417,-1.5131354331970215,12.664794921875,-15.1824951171875,1.8310546875
10.3699999,-10.287884712219238,0.021547814831137657,-1.6136919260025024,15.7623291015625,-22.27783203125,6.28662109375
10.389999900000001,-10.316615104675293,-0.16759411990642548,-1.5059528350830078,19.683837890625,-28.4881591796875,14.5721435546875
10.4099999,-10.163386344909668,-0.28730419278144836,-1.2210428714752197,23.223876953125,-32.16552734375,17.852783203125
10.4299999,-10.055646896362305,-0.2346317619085312,-0.6871358752250671,28.9459228515625,-30.3192138671875,18.646240234375
10.4499999,-9.859322547912598,-0.05027823522686958,-0.15801730751991272,29.6173095703125,-25.93994140625,24.505615234375
10.469999900000001,-9.816226959228516,0.2106897532939911,0.17956513166427612,37.2772216796875,-22.9644775390625,23.86474609375
10.4899999,-9.80904483795166,0.7158663272857666,0.2992752194404602,58.6700439453125,-28.0914306640625,18.00537109375
10.5099999,-9.883264541625977,1.2545616626739502,0.23702596127986908,71.8536376953125,-34.1644287109375,13.12255859375
10.5299999,-9.998186111450195,1.9393033981323242,0.2801215946674347,68.023681640625,-34.576416015625,6.28662109375
10.549999900000001,-10.304644584655762,2.5091233253479004,0.6607996821403503,47.1649169921875,-24.47509765625,-3.021240234375
10.569999900000001,-10.6709566116333,2.911349296569824,1.2449848651885986,21.5606689453125,-9.3841552734375,-12.725830078125
10.5899999,-11.23598861694336,3.071760892868042,1.8746598958969116,-0.0152587890625,-1.953125,-10.55908203125
10.6099999,-11.508927345275879,2.8993782997131348,2.1811177730560303,-17.242431640625,3.9825439453125,-14.312744140625
10.629999900000001,-11.578359603881836,2.6168625354766846,2.099714994430542,-24.10888671875,14.8468017578125,-18.890380859375
10.649999900000001,-11.30302619934082,2.209848165512085,1.6543933153152466,-22.674560546875,17.6544189453125,-16.9830322265625
10.6699999,-10.852916717529297,1.8100165128707886,1.048660397529602,-17.120361328125,4.364013671875,-12.115478515625
10.6899999,-10.311826705932617,1.3982137441635132,0.4692635238170624,-11.016845703125,-14.4805908203125,-3.3111572265625
10.709999900000001,-9.75397777557373,1.072602391242981,0.07661445438861847,-6.4544677734375,-14.434814453125,2.7313232421875
10.729999900000001,-9.26795482635498,0.811634361743927,-0.06703764945268631,-2.960205078125,-0.274658203125,0.457763671875
10.7499999,-8.868123054504395,0.646434485912323,0.002394201699644327,-2.5787353515625,6.2713623046875,-5.218505859375
10.7699999,-8.542511940002441,0.6009446382522583,0.24660277366638184,-5.2490234375,4.6234130859375,-9.6588134765625
10.7899999,-8.348581314086914,0.5386953949928284,0.5626373887062073,-15.0146484375,6.77490234375,-10.8795166015625
10.809999900000001,-8.190564155578613,0.5195417404174805,0.8427590131759644,-34.6832275390625,20.538330078125,-13.6566162109375
10.8299999,-8.149862289428711,0.4118026793003082,0.9744400978088379,-40.6951904296875,38.39111328125,-20.2789306640625
10.8499999,-8.286332130432129,0.26815059781074524,0.8379706144332886,-36.3311767578125,46.966552734375,-22.2930908203125
10.8699999,-8.56884765625,0.10773907601833344,0.4357447028160095,-28.167724609375,39.9169921875,-22.0184326171875
10.889999900000001,-8.920795440673828,-0.05746084079146385,-0.12449848651885986,-13.6260986328125,21.1944580078125,-21.1334228515625
10.9099999,-9.251194953918457,-0.15562310814857483,-0.6488286852836609,2.38037109375,2.3193359375,-13.7786865234375
10.9299999,-9.490615844726562,-0.1867477297782898,-0.9864110946655273,14.3585205078125,-8.4228515625,-2.7008056640625
10.9499999,-9.653421401977539,-0.07422025501728058,-1.0438719987869263,19.5465087890625,-14.2669677734375,4.2724609375
10.969999900000001,-9.775525093078613,0.15083470940589905,-0.8259995579719543,19.04296875,-16.5557861328125,2.74658203125
10.9899999,-9.871294021606445,0.44532153010368347,-0.42856210470199585,13.3514404296875,-18.3868408203125,-0.0762939453125
11.0099999,-9.947908401489258,0.751779317855835,0.05746084079146385,2.777099609375,-19.04296875,0.4119873046875
11.0299999,-9.979032516479492,0.9888052940368652,0.5195417404174805,-8.4991455078125,-8.2550048828125,-1.708984375
11.049999900000001,-9.974244117736816,1.1204863786697388,0.8810662031173706,-15.960693359375,11.4898681640625,-10.6048583984375
11.069999900000001,-9.976638793945312,1.1228805780410767,1.0749965906143188,-19.8211669921875,28.289794921875,-17.3187255859375
11.0899999,-10.02691650390625,1.0319008827209473,1.0630255937576294,-21.270751953125,34.576416015625,-15.9912109375
11.1099999,-10.122684478759766,0.8619126081466675,0.8690952062606812,-20.0653076171875,30.914306640625,-12.6953125
11.129999900000001,-10.249577522277832,0.6607996821403503,0.5650315880775452,-17.791748046875,19.500732421875,-9.0789794921875
11.149999900000001,-10.369287490844727,0.49559974670410156,0.2106897532939911,-16.17431640625,9.94873046875,-2.5177001953125
11.1699999,-10.462661743164062,0.3974374830722809,-0.0694318488240242,-12.3443603515625,12.4359130859375,2.6397705078125
11.1899999,-10.5344877243042,0.35673606395721436,-0.31124621629714966,-7.5225830078125,23.101806640625,-0.762939453125
11.209999900000001,-10.591948509216309,0.3734954595565796,-0.4572925269603729,-3.84521484375,25.2227783203125,-9.063720703125
11.229999900000001,-10.632649421691895,0.40222588181495667,-0.5889736413955688,0.2288818359375,22.491455078125,-15.3350830078125
11.2499999,-10.582371711730957,0.3280056416988373,-0.6488286852836609,6.4239501953125,17.974853515625,-13.3056640625
11.2699999,-10.551246643066406,0.26096799969673157,-0.7876923680305481,9.4451904296875,5.92041015625,-4.0740966796875
11.2899999,-10.395624160766602,0.11971008777618408,-0.828393816947937,11.8408203125,-20.08056640625,0.5645751953125
11.309999900000001,-10.256759643554688,0.05506663769483566,-0.8164227604866028,14.678955078125,-27.3284912109375,-0.4730224609375
11.3299999,-10.08437728881836,0.026336219161748886,-0.7015010714530945,18.8140869140625,-8.4686279296875,-3.6773681640625
11.3499999,-9.979032516479492,0.009576806798577309,-0.5554547905921936,21.6827392578125,2.7313232421875,-5.7830810546875
11.3699999,-9.95748519897461,0.0071826050989329815,-0.3711012601852417,20.0347900390625,-24.6429443359375,-3.0059814453125
11.389999900000001,-10.000580787658691,0.033518824726343155,-0.19393034279346466,13.458251953125,-57.5714111328125,-1.0986328125
11.4099999,-9.988609313964844,0.040701430290937424,0.011971008032560349,8.36181640625,-52.79541015625,-6.9122314453125
11.4299999,-9.763554573059082,0.13407529890537262,0.43095630407333374,6.3934326171875,-24.5208740234375,-11.1083984375
11.4499999,-9.610325813293457,0.06224924325942993,0.5315127968788147,5.6915283203125,24.566650390625,-11.1541748046875
11.469999900000001,-9.497797966003418,0.0694318488240242,0.6751648783683777,9.58251953125,22.1710205078125,-14.2974853515625
11.4899999,-9.560047149658203,-0.07661445438861847,0.4908113479614258,8.9263916015625,-6.3323974609375,-18.2037353515625
11.5099999,-9.696516990661621,-0.15322890877723694,0.2992752194404602,7.6751708984375,-16.66259765625,-14.4805908203125
11.5299999,-9.765948295593262,-0.20111294090747833,0.19153612852096558,7.110595703125,-7.5836181640625,-8.636474609375
11.549999900000001,-9.68933391571045,-0.19632454216480255,0.19393034279346466,3.570556640625,-0.396728515625,-3.631591796875
11.569999900000001,-9.552865028381348,-0.14365209639072418,0.24420857429504395,-0.396728515625,5.9814453125,-1.6021728515625
11.5899999,-9.41639518737793,-0.05267243832349777,0.304063618183136,-2.3193359375,16.754150390625,3.90625
11.6099999,-9.363722801208496,0.05746084079146385,0.3016694188117981,-3.326416015625,26.18408203125,11.90185546875
11.629999900000001,-9.421183586120605,0.1604115068912506,0.21787235140800476,-2.2430419921875,23.1170654296875,15.3961181640625
11.649999900000001,-9.610325813293457,0.26336219906806946,0.0933738648891449,0.3509521484375,8.97216796875,14.95361328125
11.6699999,-9.864110946655273,0.3471592366695404,-0.038307227194309235,0.244140625,-3.753662109375,12.0086669921875
11.6899999,-10.067618370056152,0.3878606855869293,-0.11013327538967133,-0.3204345703125,-11.2152099609375,7.4615478515625
11.709999900000001,-10.077195167541504,0.2992752194404602,-0.05746084079146385,0.762939453125,-14.0838623046875,9.94873046875
11.729999900000001,-9.943120002746582,0.21308395266532898,0.016759412363171577,1.2054443359375,-12.1307373046875,15.3656005859375
11.7499999,-9.81143856048584,0.1149216815829277,0.08140286058187485,2.3345947265625,-8.6517333984375,12.725830078125
11.7699999,-9.732429504394531,0.047884032130241394,0.12449848651885986,4.791259765625,-9.9639892578125,5.3558349609375
11.7899999,-9.713275909423828,0.011971008032560349,0.15801730751991272,6.9580078125,-14.3280029296875,1.28173828125
11.809999900000001,-9.734824180603027,0.002394201699644327,0.17238251864910126,8.36181640625,-11.260986328125,-0.5035400390625
11.8299999,-10.014945983886719,0.038307227194309235,0.20350714027881622,8.941650390625,-7.3699951171875,-1.03759765625
11.8499999,-10.409989356994629,0.17238251864910126,0.21787235140800476,7.354736328125,-8.3770751953125,-9.1400146484375
11.8699999,-10.788272857666016,0.15801730751991272,0.19871874153614044,7.415771484375,-4.57763671875,-2.9754638671875
11.889999900000001,-11.061211585998535,0.3256114423274994,0.13407529890537262,8.026123046875,-5.5084228515625,6.927490234375
11.9099999,-10.958261489868164,0.27054479718208313,0.0071826050989329815,11.566162109375,-11.6424560546875,0.2288818359375
11.9299999,-10.682928085327148,0.2561795711517334,-0.14844051003456116,20.4925537109375,-14.22119140625,-2.99072265625
11.9499999,-10.381258964538574,0.22505496442317963,-0.2322375625371933,31.43310546875,-19.7296142578125,-2.0751953125
11.969999900000001,-10.122684478759766,0.181959331035614,-0.15562310814857483,36.5753173828125,-24.444580078125,-1.9989013671875
11.9899999,-9.926360130310059,0.1604115068912506,0.11971008777618408,29.8614501953125,-22.5372314453125,-1.0528564453125
12.0099999,-9.804255485534668,0.1867477297782898,0.545877993106842,17.6239013671875,-16.0369873046875,0.885009765625
12.0299999,-9.730035781860352,0.19871874153614044,1.0271124839782715,5.0201416015625,-11.077880859375,3.60107421875
12.049999900000001,-9.710882186889648,0.2753331959247589,1.4772224426269531,-11.29150390625,-6.317138671875,8.4991455078125
12.069999900000001,-9.713275909423828,0.3447650372982025,1.7836803197860718,-30.5023193359375,1.89208984375,11.383056640625
12.0899999,-9.734824180603027,0.4381389021873474,1.922544002532959,-44.8455810546875,9.33837890625,11.0321044921875
12.1099999,-9.751583099365234,0.4620809257030487,1.8938134908676147,-48.7213134765625,12.1612548828125,10.8489990234375
12.129999900000001,-9.77791976928711,0.42616790533065796,1.7166426181793213,-45.0439453125,13.4735107421875,12.4359130859375
12.149999900000001,-9.830592155456543,0.3256114423274994,1.4173674583435059,-37.8265380859375,15.8538818359375,13.702392578125
12.1699999,-9.897629737854004,0.20111294090747833,1.0462661981582642,-24.9481201171875,15.350341796875,13.153076171875
12.1899999,-9.964667320251465,0.06464344263076782,0.6440402865409851,-10.5743408203125,9.6282958984375,13.3209228515625
12.209999900000001,-10.031704902648926,0.0454898327589035,0.2753331959247589,-2.6397705078125,4.6844482421875,16.4031982421875
12.229999900000001,-10.079588890075684,0.09576806426048279,-0.05506663769483566,1.64794921875,2.1209716796875,16.9525146484375
12.2499999,-10.127472877502441,0.20111294090747833,-0.3064578175544739,8.8043212890625,-3.8604736328125,13.4124755859375
12.2699999,-10.122684478759766,0.3902548849582672,-0.3974374830722809,13.5650634765625,-12.1307373046875,14.46533203125
12.289999900000002,-10.08198356628418,0.7206547260284424,-0.3016694188117981,9.613037109375,-14.5721435546875,17.15087890625
12.309999900000001,-10.002974510192871,1.1180921792984009,0.004788403399288654,2.410888671875,-12.0086669921875,11.1846923828125
12.3299999,-9.895236015319824,1.5753847360610962,0.4189853072166443,-5.31005859375,-8.453369140625,1.220703125
12.3499999,-9.787496566772461,1.9345149993896484,0.8906430602073669,-13.580322265625,-6.622314453125,-4.8828125
12.3699999,-9.746794700622559,1.9704279899597168,1.2425906658172607,-23.773193359375,-3.204345703125,-5.2032470703125
12.389999900000001,-9.691728591918945,1.699883222579956,1.455674648284912,-31.9366455078125,3.1585693359375,-6.5765380859375
12.4099999,-9.787496566772461,1.072602391242981,1.4437036514282227,-28.0914306640625,3.96728515625,-2.655029296875
12.4299999,-9.80904483795166,0.4165911078453064,1.2018892765045166,-15.960693359375,-1.434326171875,8.544921875
12.4499999,-9.914389610290527,-0.13168109953403473,0.8451532125473022,-2.4261474609375,-4.2877197265625,13.0767822265625
12.469999900000001,-9.988609313964844,-0.363918662071228,0.44532153010368347,10.7574462890625,-7.2174072265625,11.3067626953125
12.4899999,-10.02452278137207,-0.27054479718208313,0.15083470940589905,22.186279296875,-12.9852294921875,13.4735107421875
12.5099999,-9.988609313964844,0.31364041566848755,0.2346317619085312,25.604248046875,-17.88330078125,15.380859375
12.5299999,-9.885659217834473,1.1755530834197998,0.7015010714530945,6.561279296875,-9.521484375,8.8653564453125
12.549999900000001,-9.718064308166504,2.0590133666992188,1.3934253454208374,-22.39990234375,9.3231201171875,-6.7291259765625
12.569999900000001,-9.564835548400879,2.717418909072876,2.1284453868865967,-38.1622314453125,23.040771484375,-18.1121826171875
12.5899999,-9.490615844726562,2.8107926845550537,2.497152328491211,-42.5262451171875,25.4669189453125,-19.2718505859375
12.6099999,-9.557653427124023,2.296039342880249,2.4396915435791016,-43.914794921875,28.1982421875,-15.777587890625
12.629999900000001,-9.679757118225098,1.3982137441635132,1.778891921043396,-40.7257080078125,31.951904296875,-11.41357421875
12.649999900000001,-9.859322547912598,0.40701428055763245,0.8188169598579407,-16.3116455078125,21.0113525390625,-7.476806640625
12.6699999,-10.08198356628418,-0.4357447028160095,-0.2561795711517334,21.240234375,-1.678466796875,1.52587890625
12.6899999,-10.201693534851074,-0.7613561153411865,-0.9840168952941895,41.4581298828125,-14.4195556640625,3.3721923828125
12.709999900000001,-10.26394271850586,-0.6344634294509888,-1.137245774269104,33.1878662109375,-12.847900390625,1.7547607421875
12.729999900000001,-10.211270332336426,-0.1412578970193863,-0.7350199222564697,12.7105712890625,-6.2255859375,0.9613037109375
12.7499999,-10.02691650390625,0.5315127968788147,-0.004788403399288654,-0.0457763671875,-6.1492919921875,-0.335693359375
12.7699999,-9.835380554199219,1.1061211824417114,0.6967126727104187,-10.009765625,-3.0517578125,0.396728515625
12.789999900000002,-9.746794700622559,1.4437036514282227,1.2018892765045166,-20.6298828125,1.861572265625,-3.3111572265625
12.809999900000001,-9.670180320739746,1.5322890281677246,1.4724340438842773,-30.0140380859375,8.0108642578125,-2.0294189453125
12.8299999,-9.792284965515137,1.3527239561080933,1.4748282432556152,-29.541015625,11.4593505859375,0.7781982421875
12.8499999,-9.854534149169922,0.9002198576927185,1.2066776752471924,-17.9443359375,6.6680908203125,0.335693359375
12.8699999,-9.981427192687988,0.45010992884635925,0.8882488012313843,-2.99072265625,2.2430419921875,-2.777099609375
12.889999900000001,-10.053253173828125,0.15083470940589905,0.49320554733276367,9.27734375,-1.312255859375,2.9296875
12.9099999,-10.046070098876953,0.08619125932455063,0.20350714027881622,11.016845703125,-3.204345703125,7.2174072265625
12.9299999,-10.050858497619629,0.31124621629714966,0.09816227108240128,12.2528076171875,-5.5694580078125,2.3956298828125
12.9499999,-9.919178009033203,0.6703764796257019,0.2082955539226532,7.62939453125,-5.5694580078125,-1.0223388671875
12.969999900000001,-9.9000244140625,1.0079588890075684,0.4908113479614258,-7.9193115234375,-3.509521484375,-1.1749267578125
12.9899999,-9.78989028930664,1.3431471586227417,1.0247182846069336,-21.240234375,2.99072265625,-1.2054443359375
13.0099999,-9.732429504394531,1.4700398445129395,1.4844050407409668,-33.63037109375,13.7176513671875,-2.74658203125
13.0299999,-9.773131370544434,1.4844050407409668,1.8291701078414917,-36.2701416015625,22.6898193359375,-6.2255859375
13.049999900000001,-9.696516990661621,1.3215993642807007,1.8195933103561401,-31.8145751953125,23.6053466796875,-10.2691650390625
13.069999900000001,-9.78989028930664,0.9193734526634216,1.3527239561080933,-17.9901123046875,19.2108154296875,-11.871337890625
13.0899999,-9.890447616577148,0.5051765441894531,0.5841852426528931,8.6822509765625,10.3607177734375,-7.1868896484375
13.1099999,-10.005369186401367,0.05267243832349777,-0.3016694188117981,31.219482421875,-1.708984375,-4.39453125
13.129999900000001,-10.17296314239502,-0.22505496442317963,-0.9720458984375,44.12841796875,-13.61083984375,-2.01416015625
13.149999900000001,-10.225635528564453,-0.20111294090747833,-1.1875240802764893,44.1131591796875,-20.782470703125,-1.5716552734375
13.1699999,-10.168174743652344,0.1412578970193863,-0.646434485912323,29.754638671875,-21.4385986328125,0
13.1899999,-9.99339771270752,0.6991068720817566,0.24899697303771973,-7.4615478515625,-4.2572021484375,-1.983642578125
13.209999900000001,-9.794678688049316,1.2521674633026123,1.3455413579940796,-38.055419921875,14.0228271484375,-5.9661865234375
13.229999900000001,-9.679757118225098,1.5155296325683594,1.9584569931030273,-48.3551025390625,19.7296142578125,-5.9661865234375
13.2499999,-9.706093788146973,1.381454348564148,1.9369091987609863,-36.590576171875,19.012451171875,-11.7950439453125
13.2699999,-9.861717224121094,0.828393816947937,1.2282254695892334,-6.591796875,7.5836181640625,-10.7421875
13.289999900000002,-10.038887977600098,0.15083470940589905,0.22266076505184174,25.2532958984375,-3.6468505859375,-3.1280517578125
13.309999900000001,-10.160991668701172,-0.35913026332855225,-0.5219359993934631,45.5169677734375,-15.380859375,2.716064453125
13.3299999,-10.182539939880371,-0.5817909836769104,-0.8667010068893433,38.51318359375,-18.3563232421875,6.317138671875
13.3499999,-10.192116737365723,-0.4572925269603729,-0.7038952708244324,23.590087890625,-16.876220703125,6.0577392578125
13.3699999,-10.046070098876953,-0.05506663769483566,-0.1412578970193863,14.8773193359375,-16.4337158203125,5.2490234375
13.389999900000001,-9.962273597717285,0.47405192255973816,0.5123591423034668,5.4779052734375,-11.1846923828125,5.55419921875
13.4099999,-9.794678688049316,1.015141487121582,1.2258312702178955,-12.4969482421875,-4.974365234375,5.126953125
13.4299999,-9.641449928283691,1.4101848602294922,1.7286136150360107,-39.3829345703125,5.7373046875,-1.7242431640625
13.4499999,-9.57441234588623,1.5155296325683594,2.030282974243164,-53.8177490234375,13.8092041015625,-5.4473876953125
13.469999900000001,-9.509769439697266,1.3958195447921753,2.0207061767578125,-51.7425537109375,16.4794921875,-2.685546875
13.4899999,-9.600749015808105,0.9289502501487732,1.6831238269805908,-40.0390625,19.4549560546875,-1.800537109375
13.5099999,-9.806650161743164,0.4620809257030487,1.0821791887283325,-20.81298828125,15.93017578125,-0.6866455078125
13.5299999,-9.93354320526123,0.019153613597154617,0.6057330369949341,0.701904296875,6.2713623046875,0.67138671875
13.549999900000001,-10.158597946166992,-0.15083470940589905,0.19871874153614044,5.8135986328125,1.007080078125,2.44140625
13.569999900000001,-10.18493366241455,-0.2346317619085312,-0.0454898327589035,-5.0506591796875,3.204345703125,4.974365234375
13.5899999,-10.204087257385254,-0.05985504388809204,-0.15083470940589905,0.7781982421875,0.91552734375,3.265380859375
13.6099999,-10.141838073730469,0.12689268589019775,-0.15322890877723694,12.542724609375,-7.6446533203125,7.6141357421875
13.629999900000001,-10.079588890075684,0.3902548849582672,-0.10534487664699554,8.880615234375,-6.500244140625,2.8533935546875
13.649999900000001,-10.043676376342773,0.6991068720817566,0.1388636976480484,-1.7852783203125,-4.5166015625,0.244140625
13.6699999,-9.916783332824707,0.9002198576927185,0.3998316824436188,-11.688232421875,-2.288818359375,0.48828125
13.6899999,-9.96945571899414,1.0079588890075684,0.5003881454467773,-2.9754638671875,-4.33349609375,-4.33349609375
13.709999900000001,-9.8784761428833,0.9959878921508789,0.6919242739677429,11.1541748046875,-10.3759765625,-0.3204345703125
13.729999900000001,-9.926360130310059,0.9696516990661621,0.849941611289978,1.0223388671875,-4.7149658203125,-1.2969970703125
13.7499999,-9.885659217834473,0.8906430602073669,1.1420341730117798,-19.134521484375,5.9814453125,-3.631591796875
13.7699999,-9.847352027893066,0.730231523513794,1.3503297567367554,-25.8331298828125,13.8397216796875,-1.5869140625
13.789999900000002,-9.916783332824707,0.4812345504760742,1.2042834758758545,-8.4686279296875,6.6070556640625,-1.9989013671875
13.809999900000001,-9.919178009033203,0.1628057211637497,0.7829039692878723,14.34326171875,-1.3275146484375,-2.4871826171875
13.8299999,-10.055646896362305,0.05267243832349777,0.2322375625371933,29.754638671875,-8.4228515625,1.3427734375
13.8499999,-10.079588890075684,0.07182604819536209,-0.13168109953403473,30.0445556640625,-11.9171142578125,0.8392333984375
13.8699999,-10.050858497619629,0.38067805767059326,-0.16759411990642548,27.099609375,-13.7939453125,-2.655029296875
13.889999900000001,-10.002974510192871,0.6153098344802856,0.090979665517807,24.5361328125,-12.6495361328125,-4.3182373046875
13.9099999,-9.880870819091797,1.0247182846069336,0.6368576288223267,12.2528076171875,-7.843017578125,-4.852294921875
13.9299999,-9.749189376831055,1.290474772453308,1.338358759880066,-13.5498046875,2.8839111328125,-4.669189453125
13.9499999,-9.674968719482422,1.414973258972168,1.8938134908676147,-39.459228515625,18.096923828125,-5.8441162109375
13.969999900000001,-9.634267807006836,1.3120225667953491,2.183511972427368,-42.083740234375,25.5126953125,-8.4228515625
13.9899999,-9.6989107131958,0.9074024558067322,1.9297266006469727,-28.9459228515625,19.5770263671875,-8.8653564453125
14.0099999,-9.86650562286377,0.40701428055763245,1.2090718746185303,-12.420654296875,17.181396484375,-6.622314453125
14.0299999,-10.041281700134277,-0.0933738648891449,0.3471592366695404,8.6517333984375,6.591796875,-3.0059814453125
14.049999900000001,-10.165780067443848,-0.42856210470199585,-0.4572925269603729,24.2462158203125,-4.7760009765625,-1.89208984375
14.069999900000001,-10.218452453613281,-0.5578489899635315,-0.8547300100326538,35.64453125,-11.383056640625,-0.2899169921875
14.0899999,-10.192116737365723,-0.3926490843296051,-0.8188169598579407,35.0799560546875,-15.19775390625,3.7841796875
14.1099999,-10.098742485046387,-0.016759412363171577,-0.38546648621559143,19.2108154296875,-11.04736328125,5.0506591796875
14.129999900000001,-9.947908401489258,0.49320554733276367,0.3471592366695404,-3.3721923828125,-3.9520263671875,2.44140625
14.149999900000001,-9.854534149169922,0.9193734526634216,0.933738648891449,-24.0020751953125,5.9814453125,-0.762939453125
14.1699999,-9.746794700622559,1.0965443849563599,1.3431471586227417,-24.4293212890625,7.7667236328125,-3.082275390625
14.1899999,-9.780313491821289,0.9648633003234863,1.3192051649093628,-15.625,3.7384033203125,-0.6561279296875
14.209999900000001,-9.856928825378418,0.6320692300796509,0.9552865028381348,-3.631591796875,2.3040771484375,-0.9918212890625
14.229999900000001,-10.002974510192871,0.22266076505184174,0.47644615173339844,11.5509033203125,-4.852294921875,0.4425048828125
14.2499999,-10.08198356628418,-0.05985504388809204,0.08858546614646912,22.9949951171875,-12.39013671875,1.64794921875
14.2699999,-10.146626472473145,-0.17956513166427612,-0.07182604819536209,29.11376953125,-13.0462646484375,2.8839111328125
14.289999900000002,-10.110713958740234,0.019153613597154617,0.09816227108240128,22.2320556640625,-10.6201171875,3.814697265625
14.309999900000001,-9.96945571899414,0.33039984107017517,0.6344634294509888,6.2103271484375,-2.9754638671875,1.800537109375
14.3299999,-9.832986831665039,0.7829039692878723,1.2832920551300049,-16.0064697265625,7.62939453125,0.2899169921875
14.3499999,-9.718064308166504,1.094150185585022,1.7262194156646729,-31.3873291015625,17.1051025390625,-4.0130615234375
14.3699999,-9.694122314453125,1.194706678390503,1.9369091987609863,-30.6549072265625,18.49365234375,-5.5389404296875
14.389999900000001,-9.775525093078613,1.072602391242981,1.577778935432434,-25.81787109375,18.1884765625,-4.9896240234375
14.4099999,-9.883264541625977,0.7565677165985107,1.0654197931289673,-18.4173583984375,17.02880859375,-5.340576171875
14.4299999,-10.010157585144043,0.3256114423274994,0.3208230137825012,-7.75146484375,8.087158203125,-2.9296875
14.4499999,-10.108319282531738,-0.06703764945268631,-0.26336219906806946,9.979248046875,0.2593994140625,-3.997802734375
14.469999900000001,-10.182539939880371,-0.3519476354122162,-0.6655880808830261,26.6265869140625,-7.9803466796875,-0.9613037109375
14.4899999,-10.194510459899902,-0.3663128614425659,-0.6991068720817566,31.1126708984375,-12.39013671875,2.7923583984375
14.5099999,-10.11550235748291,-0.17717093229293823,-0.3519476354122162,23.2391357421875,-11.0931396484375,4.4708251953125
14.5299999,-10.022128105163574,0.17477671802043915,0.181959331035614,7.0343017578125,-3.90625,3.90625
14.549999900000001,-9.9000244140625,0.48602294921875,0.8092401623725891,-1.9073486328125,-1.0833740234375,-0.3509521484375
14.569999900000001,-9.832986831665039,0.7326257228851318,1.2258312702178955,-8.0413818359375,1.495361328125,0.8392333984375
14.5899999,-9.832986831665039,0.828393816947937,1.359906554222107,-11.0626220703125,6.866455078125,-2.2430419921875
14.6099999,-9.859322547912598,0.8259995579719543,1.2425906658172607,-7.5225830078125,6.4239501953125,-1.9378662109375
14.629999900000001,-9.9000244140625,0.7038952708244324,0.9169792532920837,-3.7384033203125,2.2735595703125,-2.044677734375
14.649999900000001,-9.950302124023438,0.4812345504760742,0.629675030708313,1.922607421875,-0.42724609375,-4.547119140625
14.6699999,-9.967061996459961,0.2777273952960968,0.4620809257030487,1.495361328125,2.8076171875,-0.0762939453125
14.6899999,-9.99339771270752,0.19153612852096558,0.49320554733276367,0.3662109375,4.119873046875,0.701904296875
14.709999900000001,-9.945513725280762,0.21308395266532898,0.5650315880775452,-3.5247802734375,4.5013427734375,1.15966796875
14.729999900000001,-9.979032516479492,0.30885201692581177,0.6607996821403503,-5.2642822265625,5.8441162109375,-1.6326904296875
14.7499999,-9.955090522766113,0.3902548849582672,0.6224924325942993,-0.6866455078125,1.678466796875,-1.983642578125
14.7699999,-9.95748519897461,0.38067805767059326,0.4812345504760742,0.396728515625,2.7008056640625,-0.54931640625
14.789999900000002,-10.000580787658691,0.43095630407333374,0.31842881441116333,2.288818359375,1.7852783203125,-1.3580322265625
14.809999900000001,-9.967061996459961,0.42616790533065796,0.1412578970193863,2.105712890625,-5.1422119140625,-0.6103515625
14.8299999,-9.99339771270752,0.43335050344467163,0.07422025501728058,4.6539306640625,-7.50732421875,-5.8441162109375
14.8499999,-9.964667320251465,0.2944868206977844,0.18914192914962769,8.819580078125,-7.3394775390625,-2.1209716796875
14.8699999,-9.988609313964844,0.1604115068912506,0.304063618183136,7.1258544921875,-4.364013671875,5.9051513671875
14.889999900000001,-9.945513725280762,0.014365210197865963,0.5602431893348694,10.3302001953125,-5.462646484375,7.080078125
14.9099999,-9.9000244140625,0.033518824726343155,0.6631938815116882,8.392333984375,-6.0577392578125,4.7760009765625
14.9299999,-9.86889934539795,0.17238251864910126,0.912190854549408,4.4097900390625,-0.9307861328125,2.3956298828125
14.9499999,-9.77791976928711,0.4908113479614258,1.2210428714752197,-8.056640625,1.312255859375,6.4697265625
14.969999900000001,-9.734824180603027,0.7709329724311829,1.4867992401123047,-33.7982177734375,14.1143798828125,4.547119140625
14.9899999,-9.744400978088379,1.1779472827911377,1.766920804977417,-54.7637939453125,24.96337890625,3.41796875
15.0099999,-9.715670585632324,1.2976573705673218,1.6065093278884888,-74.3255615234375,24.2767333984375,1.0986328125
15.0299999,-9.818621635437012,1.1540051698684692,1.1348515748977661,-59.600830078125,22.6593017578125,-9.3841552734375
15.049999900000001,-9.979032516479492,0.7637503147125244,0.524330198764801,-18.5699462890625,13.0157470703125,-6.7901611328125
15.069999900000001,-10.101137161254883,0.1604115068912506,-0.05506663769483566,6.134033203125,5.767822265625,1.28173828125
15.0899999,-10.20887565612793,-0.17956513166427612,-0.24899697303771973,13.7939453125,4.364013671875,4.0130615234375
15.1099999,-10.196905136108398,-0.2944868206977844,-0.24899697303771973,-0.0152587890625,9.6435546875,5.859375
15.129999900000001,-10.163386344909668,-0.14844051003456116,-0.15322890877723694,-7.2479248046875,10.3302001953125,0.9765625
15.149999900000001,-10.105925559997559,0.0694318488240242,-0.2059013396501541,4.39453125,0.9765625,-4.7454833984375
15.1699999,-10.067618370056152,0.2537853717803955,-0.45489832758903503,25.8026123046875,-8.392333984375,-5.096435546875
15.1899999,-10.098742485046387,0.42856210470199585,-0.6344634294509888,41.2750244140625,-16.082763671875,-4.2724609375
15.209999900000001,-9.988609313964844,0.5650315880775452,-0.586579442024231,35.614013671875,-18.9056396484375,-2.74658203125
15.229999900000001,-9.998186111450195,0.6727706789970398,-0.33518823981285095,18.280029296875,-13.763427734375,-4.730224609375
15.2499999,-9.926360130310059,0.7254431247711182,0.26336219906806946,6.7291259765625,-9.521484375,-4.791259765625
15.2699999,-9.792284965515137,0.7445967197418213,1.0462661981582642,-7.9498291015625,-3.7078857421875,-2.3651123046875
15.289999900000002,-9.739612579345703,0.6584054827690125,1.6759412288665771,-36.773681640625,15.3350830078125,-0.4425048828125
15.309999900000001,-9.66539192199707,0.6177040338516235,2.1356279850006104,-62.225341796875,30.21240234375,4.364013671875
15.3299999,-9.691728591918945,0.3974374830722809,1.9153614044189453,-65.765380859375,32.3944091796875,5.5694580078125
15.3499999,-9.84495735168457,0.09576806426048279,1.1420341730117798,-39.3829345703125,19.8822021484375,5.2642822265625
15.3699999,-10.053253173828125,-0.1412578970193863,-0.021547814831137657,-4.0130615234375,2.0904541015625,7.781982421875
15.389999900000001,-10.342951774597168,-0.2753331959247589,-1.824381709098816,35.9649658203125,-22.8118896484375,3.6163330078125
15.4099999,-10.256759643554688,-0.004788403399288654,-1.8483237028121948,38.1927490234375,-31.5093994140625,9.1705322265625
15.4299999,-10.091560363769531,0.5051765441894531,-1.0031704902648926,26.641845703125,-27.64892578125,2.74658203125
15.4499999,-9.883264541625977,0.9768342971801758,0.14844051003456116,-3.2806396484375,-11.2152099609375,-3.8604736328125
15.469999900000001,-9.703699111938477,1.259350061416626,1.335964560508728,-26.1688232421875,10.0860595703125,-4.5928955078125
15.4899999,-9.639056205749512,1.2234370708465576,2.032677173614502,-21.026611328125,10.4522705078125,-0.54931640625
15.5099999,-9.593565940856934,0.9313444495201111,2.1116859912872314,-13.5498046875,8.7738037109375,-0.9918212890625
15.5299999,-9.72285270690918,0.5650315880775452,1.742978811264038,-11.1083984375,11.5203857421875,-0.3662109375
15.549999900000001,-9.81143856048584,0.3711012601852417,1.1875240802764893,-18.829345703125,15.289306640625,1.7852783203125
15.569999900000001,-9.93354320526123,0.43335050344467163,0.6105214357376099,-24.9481201171875,11.749267578125,4.39453125
15.5899999,-10.029311180114746,0.5027823448181152,0.09576806426048279,-15.167236328125,1.1138916015625,-2.8076171875
15.6099999,-10.093954086303711,0.5219359993934631,-0.16519992053508759,-2.3956298828125,-1.2969970703125,-17.333984375
15.629999900000001,-10.08198356628418,0.38307225704193115,-0.2346317619085312,-0.18310546875,4.0435791015625,-5.9356689453125
15.649999900000001,-10.134655952453613,0.09576806426048279,-0.19871874153614044,2.5482177734375,3.90625,5.4168701171875
15.6699999,-10.141838073730469,-0.1412578970193863,-0.2585737705230713,16.0980224609375,-8.7432861328125,4.7760009765625
15.6899999,-10.11550235748291,-0.22266076505184174,-0.33279404044151306,31.3262939453125,-13.5040283203125,-0.6561279296875
15.709999900000001,-10.08198356628418,-0.06224924325942993,-0.3687070608139038,35.3240966796875,-14.556884765625,1.3885498046875
15.729999900000001,-10.022128105163574,0.3280056416988373,-0.07182604819536209,24.2919921875,-14.7857666015625,6.16455078125
15.7499999,-9.832986831665039,0.8475474119186401,0.6847416758537292,0.152587890625,-9.9334716796875,0.762939453125
15.7699999,-9.715670585632324,1.2832920551300049,1.5179238319396973,-36.895751953125,11.0626220703125,-8.11767578125
15.789999900000002,-9.677363395690918,1.3694833517074585,1.9776105880737305,-60.028076171875,35.58349609375,-5.2032470703125
15.809999900000001,-9.710882186889648,1.0678139925003052,1.8626888990402222,-40.863037109375,24.3072509765625,1.15966796875
15.8299999,-9.95748519897461,0.4405331015586853,0.8690952062606812,-5.8441162109375,4.4403076171875,-0.1983642578125
15.8499999,-10.211270332336426,-0.17477671802043915,-0.4429273009300232,29.754638671875,-7.8277587890625,-0.030517578125
15.869999900000002,-10.338163375854492,-0.36152446269989014,-1.3407529592514038,53.8177490234375,-24.7802734375,6.256103515625
15.889999900000001,-10.271124839782715,-0.21308395266532898,-1.4652514457702637,46.875,-32.958984375,3.5552978515625
15.9099999,-10.06043529510498,0.2777273952960968,-0.6943184733390808,12.5732421875,-16.9677734375,-4.8370361328125
15.9299999,-9.773131370544434,0.7852981686592102,0.507570743560791,-20.3857421875,3.7078857421875,-3.96728515625
15.9499999,-9.519346237182617,1.1683704853057861,1.742978811264038,-38.8641357421875,16.3421630859375,-0.67138671875
15.969999900000001,-9.473855972290039,1.2497732639312744,2.341529369354248,-52.4444580078125,21.392822265625,-1.434326171875
15.9899999,-9.59596061706543,1.137245774269104,2.145204782485962,-55.7403564453125,30.517578125,-5.218505859375
16.0099999,-9.823410034179688,0.7876923680305481,1.2497732639312744,-35.3240966796875,19.8516845703125,-2.3651123046875
16.0299999,-10.055646896362305,0.5123591423034668,0.23702596127986908,-1.495361328125,-1.708984375,-3.90625
16.0499999,-10.141838073730469,0.15562310814857483,-0.5003881454467773,20.050048828125,-13.5345458984375,-11.04736328125
16.0699999,-10.158597946166992,-0.05027823522686958,-0.5051765441894531,12.8326416015625,-2.62451171875,-12.420654296875
16.089999900000002,-10.067618370056152,-0.304063618183136,-0.21308395266532898,-5.218505859375,12.542724609375,0.7476806640625
16.109999900000002,-10.070012092590332,-0.47405192255973816,0.090979665517807,-3.60107421875,10.68115234375,9.033203125
16.1299999,-10.091560363769531,-0.5482721924781799,0.031124621629714966,17.0440673828125,-5.401611328125,8.5296630859375
16.1499999,-10.125079154968262,-0.33518823981285095,-0.1843535304069519,30.792236328125,-11.260986328125,3.692626953125
16.1699999,-10.120290756225586,0.07661445438861847,-0.3734954595565796,27.923583984375,-11.1083984375,4.364013671875
16.1899999,-10.036493301391602,0.7326257228851318,0.002394201699644327,15.0146484375,-15.5181884765625,3.9825439453125
16.2099999,-9.80904483795166,1.235408067703247,0.7374141216278076,-21.514892578125,-4.241943359375,-4.730224609375
16.2299999,-9.737217903137207,1.4413094520568848,1.4987702369689941,-68.4967041015625,26.7333984375,-9.6588134765625
16.249999900000002,-9.66539192199707,1.2210428714752197,1.745373010635376,-79.345703125,37.933349609375,3.41796875
16.269999900000002,-9.782708168029785,0.5626373887062073,1.2042834758758545,-41.1224365234375,15.533447265625,10.9405517578125
16.2899999,-10.031704902648926,-0.2106897532939911,-0.08858546614646912,10.6048583984375,-10.0250244140625,3.1585693359375
16.3099999,-10.261548042297363,-0.7350199222564697,-1.338358759880066,46.4630126953125,-26.9317626953125,7.26318359375
16.3299999,-10.333374977111816,-0.6248866319656372,-1.745373010635376,53.131103515625,-35.94970703125,16.05224609375
16.3499999,-10.201693534851074,-0.05506663769483566,-1.039083480834961,26.30615234375,-31.463623046875,11.5966796875
16.3699999,-9.801861763000488,0.727837324142456,0.5889736413955688,-27.984619140625,1.40380859375,-1.5716552734375
16.3899999,-9.607931137084961,1.357512354850769,2.0015525817871094,-70.9228515625,40.0238037109375,-2.8533935546875
16.4099999,-9.428366661071777,1.5442601442337036,2.585737943649292,-62.4542236328125,41.7022705078125,6.9427490234375
16.429999900000002,-9.57441234588623,1.357512354850769,1.9512743949890137,-23.1475830078125,14.2822265625,1.64794921875
16.4499999,-9.940725326538086,0.8523358106613159,0.43095630407333374,8.7127685546875,-1.129150390625,-14.8773193359375
16.4699999,-10.20648193359375,0.40940847992897034,-0.9792284965515137,35.400390625,-17.8375244140625,-6.16455078125
16.4899999,-10.295066833496094,0.10055647045373917,-1.4891934394836426,46.20361328125,-31.8756103515625,3.8299560546875
16.5099999,-10.223240852355957,-0.009576806798577309,-1.0630255937576294,28.656005859375,-25.8636474609375,-1.46484375
16.5299999,-9.852140426635742,0.11252748221158981,0.21547815203666687,-7.659912109375,0.5645751953125,-2.655029296875
16.5499999,-9.773131370544434,0.2561795711517334,1.1683704853057861,-36.0565185546875,28.6712646484375,4.8980712890625
16.5699999,-9.660603523254395,0.4692635238170624,1.6065093278884888,-24.4903564453125,16.0675048828125,11.2762451171875
16.589999900000002,-9.837775230407715,0.5578489899635315,1.070208191871643,-2.044677734375,-2.38037109375,1.46484375
16.609999900000002,-10.043676376342773,0.6248866319656372,0.16759411990642548,14.58740234375,-10.8489990234375,-8.270263671875
16.6299999,-10.141838073730469,0.7230489253997803,-0.4620809257030487,21.6217041015625,-18.2342529296875,-1.3427734375
16.6499999,-10.122684478759766,0.7757213711738586,-0.3495534360408783,8.9263916015625,-19.4854736328125,1.89208984375
16.6699999,-9.921571731567383,0.8068459630012512,0.42616790533065796,-18.4173583984375,-3.8604736328125,-5.0048828125
16.6899999,-9.806650161743164,0.7015010714530945,1.173158884048462,-44.73876953125,24.7344970703125,-5.1422119140625
16.7099999,-9.739612579345703,0.4165911078453064,1.5155296325683594,-38.8336181640625,29.4342041015625,6.4697265625
16.7299999,-9.830592155456543,0.13168109953403473,1.0582371950149536,-3.0364990234375,2.50244140625,12.725830078125
16.749999900000002,-10.072406768798828,-0.07900865375995636,0.033518824726343155,26.519775390625,-12.0849609375,4.058837890625
16.769999900000002,-10.139444351196289,0.12689268589019775,-0.608127236366272,43.243408203125,-20.2789306640625,-3.84521484375
16.7899999,-10.101137161254883,0.5530605912208557,-0.629675030708313,34.332275390625,-19.683837890625,-1.15966796875
16.8099999,-9.911994934082031,1.0462661981582642,0.23702596127986908,0.91552734375,-8.8348388671875,-4.547119140625
16.8299999,-9.646238327026367,1.2952631711959839,1.357512354850769,-41.7633056640625,16.143798828125,-10.4217529296875
16.8499999,-9.59835433959961,1.1540051698684692,1.9823989868164062,-61.370849609375,40.6646728515625,-5.157470703125
16.8699999,-9.641449928283691,0.7110779285430908,1.7334020137786865,-36.5447998046875,25.634765625,5.584716796875
16.8899999,-9.907206535339355,0.08619125932455063,0.5674257874488831,3.7994384765625,-3.41796875,8.331298828125
16.9099999,-10.237606048583984,-0.3280056416988373,-0.8188169598579407,37.811279296875,-22.8118896484375,3.875732421875
16.929999900000002,-10.33098030090332,-0.38067805767059326,-1.4915876388549805,55.877685546875,-37.872314453125,1.1444091796875
16.9499999,-10.223240852355957,-0.10534487664699554,-1.0893617868423462,36.651611328125,-28.25927734375,5.9356689453125
16.9699999,-9.981427192687988,0.49799394607543945,0.21787235140800476,-11.29150390625,-0.8544921875,8.2244873046875
16.9899999,-9.548076629638672,1.091755986213684,1.721431016921997,-58.04443359375,24.4598388671875,4.0435791015625
17.0099999,-9.363722801208496,1.5203180313110352,2.3511061668395996,-73.79150390625,39.9932861328125,0.457763671875
17.0299999,-8.884882926940918,1.5203180313110352,2.1499931812286377,-41.900634765625,21.8048095703125,1.3427734375
17.0499999,-7.967903137207031,0.9289502501487732,1.094150185585022,-6.805419921875,4.730224609375,-1.4801025390625
17.0699999,-7.69735860824585,-0.05746084079146385,0.15801730751991272,22.52197265625,1.5716552734375,21.2860107421875
17.089999900000002,-7.4316020011901855,-0.6655880808830261,-0.31842881441116333,38.39111328125,-2.105712890625,15.6097412109375
17.109999900000002,-8.449137687683105,-0.42377370595932007,0.11971008777618408,21.5911865234375,8.0413818359375,28.9154052734375
17.1299999,-10.11789608001709,0.7086837291717529,0.5339069962501526,-33.1268310546875,29.8309326171875,9.1400146484375
17.1499999,-11.42752456665039,2.10210919380188,0.6775590777397156,-70.3277587890625,43.2586669921875,-25.08544921875
17.1699999,-12.27507209777832,2.8155810832977295,0.10534487664699554,-58.8531494140625,25.390625,-22.7203369140625
17.1899999,-12.404358863830566,2.2361843585968018,-1.1109095811843872,-16.2811279296875,-20.0653076171875,-16.998291015625
17.2099999,-11.856086730957031,0.5363011956214905,-2.231395959854126,41.3360595703125,-47.9888916015625,-7.6446533203125
17.2299999,-11.4849853515625,-0.9911994934082031,-2.252943754196167,91.8426513671875,-61.70654296875,19.6685791015625
17.249999900000002,-10.644620895385742,-1.6615760326385498,-1.05105459690094,72.3419189453125,-49.774169921875,34.027099609375
17.269999900000002,-10.036493301391602,-1.0199298858642578,0.48602294921875,-4.08935546875,7.8125,34.0576171875
17.2899999,-9.579200744628906,0.44771572947502136,1.745373010635376,-29.7393798828125,35.9954833984375,9.5367431640625
17.3099999,-9.277531623840332,2.0685901641845703,2.0590133666992188,-21.8505859375,0.732421875,-14.7247314453125
17.3299999,-9.366117477416992,3.00711727142334,1.6496049165725708,-25.2227783203125,-15.19775390625,-25.360107421875
17.3499999,-9.564835548400879,3.2585084438323975,1.194706678390503,-43.1976318359375,-1.6937255859375,-29.0985107421875
17.3699999,-9.670180320739746,2.8562827110290527,1.0438719987869263,-56.396484375,14.8162841796875,-25.8331298828125
17.3899999,-9.78989028930664,1.98958158493042,0.9648633003234863,-62.31689453125,18.73779296875,-21.9268798828125
17.409999900000003,-9.888052940368652,0.9026140570640564,0.7876923680305481,-59.0057373046875,15.9912109375,-16.6473388671875
17.429999900000002,-9.964667320251465,-0.19871874153614044,0.4620809257030487,-49.25537109375,10.31494140625,-5.7830810546875
17.4499999,-10.053253173828125,-1.0127472877502441,0.12210428714752197,-35.21728515625,4.4403076171875,5.767822265625
17.4699999,-10.103530883789062,-1.4532804489135742,-0.07661445438861847,-19.683837890625,0.640869140625,12.7410888671875
17.4899999,-10.11789608001709,-1.482010841369629,-0.14604631066322327,-8.1024169921875,0.2899169921875,16.571044921875
17.5099999,-10.177751541137695,-1.2018892765045166,-0.33039984107017517,1.4190673828125,-2.532958984375,17.8375244140625
17.5299999,-10.113107681274414,-0.7206547260284424,-0.12449848651885986,20.69091796875,-15.44189453125,20.050048828125
17.5499999,-10.067618370056152,-0.08379705995321274,-0.08858546614646912,38.87939453125,-15.5181884765625,20.538330078125
17.5699999,-9.962273597717285,0.5267243981361389,0.4572925269603729,51.971435546875,-7.6904296875,8.4686279296875
17.589999900000002,-9.816226959228516,1.0534487962722778,0.6775590777397156,55.5877685546875,-0.8544921875,-0.42724609375
17.609999900000002,-9.72285270690918,1.41257905960083,1.1468225717544556,55.48095703125,-1.434326171875,-4.5623779296875
17.6299999,-9.706093788146973,1.558625340461731,1.115697979927063,47.7447509765625,5.9661865234375,-5.43212890625
17.6499999,-9.737217903137207,1.6065093278884888,1.0295066833496094,40.9393310546875,9.552001953125,-5.950927734375
17.6699999,-9.751583099365234,1.5179238319396973,0.7326257228851318,37.9791259765625,4.0435791015625,-11.627197265625
17.6899999,-9.849745750427246,1.3263877630233765,0.3447650372982025,36.3311767578125,-3.3111572265625,-12.939453125
17.7099999,-9.959878921508789,1.0749965906143188,0.011971008032560349,32.77587890625,-8.97216796875,-12.420654296875
17.7299999,-10.062829971313477,0.7805097699165344,-0.07182604819536209,22.8118896484375,-10.589599609375,-10.223388671875
17.749999900000002,-10.120290756225586,0.5530605912208557,0.15801730751991272,4.0435791015625,-4.791259765625,-2.3651123046875
17.769999900000002,-10.11550235748291,0.38307225704193115,0.4189853072166443,-15.2587890625,3.692626953125,3.265380859375
17.7899999,-10.0580415725708,0.3016694188117981,0.6033388376235962,-21.881103515625,3.84521484375,8.941650390625
17.8099999,-10.017339706420898,0.24899697303771973,0.5386953949928284,-18.73779296875,-0.8697509765625,13.8397216796875
17.8299999,-10.000580787658691,0.2585737705230713,0.3687070608139038,-12.1002197265625,-6.2103271484375,11.5509033203125
17.8499999,-9.99339771270752,0.3064578175544739,0.2777273952960968,-9.796142578125,-8.758544921875,9.6282958984375
17.8699999,-9.947908401489258,0.42856210470199585,0.40701428055763245,-12.8936767578125,-3.35693359375,12.7105712890625
17.8899999,-9.876082420349121,0.7182605266571045,0.6823474764823914,-18.157958984375,3.570556640625,13.885498046875
17.909999900000003,-9.830592155456543,0.9648633003234863,0.8379706144332886,-17.3797607421875,10.4827880859375,6.439208984375
17.929999900000002,-9.816226959228516,1.1827356815338135,0.8523358106613159,-1.64794921875,5.9967041015625,-3.72314453125
17.9499999,-9.832986831665039,1.2545616626739502,0.730231523513794,14.6636962890625,-4.0740966796875,-5.157470703125
17.9699999,-9.890447616577148,1.1109095811843872,0.5410895943641663,19.1802978515625,-2.288818359375,-4.669189453125
17.9899999,-9.926360130310059,0.9241618514060974,0.4620809257030487,19.2413330078125,0.6866455078125,-3.509521484375
18.0099999,-9.945513725280762,0.7398083209991455,0.4572925269603729,17.852783203125,1.1749267578125,-0.1220703125
18.0299999,-9.947908401489258,0.6631938815116882,0.5003881454467773,14.95361328125,1.7852783203125,1.4495849609375
18.0499999,-9.952696800231934,0.6823474764823914,0.49320554733276367,9.6893310546875,3.11279296875,1.0833740234375
18.0699999,-9.998186111450195,0.8092401623725891,0.5267243981361389,9.429931640625,1.983642578125,-1.8768310546875
18.089999900000002,-9.959878921508789,0.8882488012313843,0.49320554733276367,9.2620849609375,2.0751953125,-4.608154296875
18.109999900000002,-9.981427192687988,0.9481038451194763,0.4668693244457245,9.5672607421875,3.23486328125,-2.74658203125
18.1299999,-9.921571731567383,0.8834604024887085,0.42616790533065796,9.9639892578125,0.732421875,-2.4566650390625
18.1499999,-9.890447616577148,0.8140285611152649,0.40940847992897034,9.307861328125,0,-0.9307861328125
18.1699999,-9.892841339111328,0.7661445140838623,0.4165911078453064,7.01904296875,0.9002685546875,0.1220703125
18.1899999,-9.904812812805176,0.730231523513794,0.4189853072166443,4.7149658203125,2.3956298828125,0.2288818359375
18.2099999,-10.036493301391602,0.6631938815116882,0.2346317619085312,8.544921875,2.0294189453125,-0.457763671875
18.2299999,-10.101137161254883,0.6248866319656372,0.10295066982507706,29.8919677734375,-9.9334716796875,-3.173828125
18.249999900000002,-9.99339771270752,0.35913026332855225,0.22505496442317963,49.0264892578125,-19.2718505859375,-5.2032470703125
18.269999900000002,-10.098742485046387,0.6368576288223267,0.24660277366638184,46.0052490234375,-12.176513671875,-10.0860595703125
18.2899999,-9.904812812805176,0.5746083855628967,0.5937620401382446,44.8150634765625,-0.7171630859375,-15.2587890625
18.3099999,-9.9000244140625,0.9193734526634216,0.8643068075180054,43.45703125,0.9918212890625,-8.5601806640625
18.3299999,-9.981427192687988,1.0534487962722778,0.9385270476341248,35.888671875,10.2996826171875,-10.7421875
18.3499999,-10.067618370056152,1.039083480834961,1.072602391242981,24.932861328125,12.8936767578125,-10.8642578125
18.3699999,-10.137049674987793,0.9193734526634216,0.9768342971801758,6.8359375,17.2882080078125,-4.241943359375
18.3899999,-10.122684478759766,0.6991068720817566,0.768538773059845,-1.983642578125,12.75634765625,1.9989013671875
18.409999900000003,-10.180145263671875,0.49799394607543945,0.4381389021873474,0.0152587890625,9.9945068359375,5.2032470703125
18.429999900000002,-9.998186111450195,0.2992752194404602,-0.05985504388809204,6.2103271484375,3.692626953125,1.8463134765625
18.4499999,-10.086771965026855,0.26096799969673157,-0.40701428055763245,20.111083984375,-3.814697265625,2.960205078125
18.4699999,-10.04846477508545,0.21547815203666687,-0.5985504388809204,28.7628173828125,-13.5498046875,5.340576171875
18.4899999,-10.098742485046387,0.3280056416988373,-0.45250412821769714,27.8778076171875,-13.97705078125,7.8277587890625
18.5099999,-10.132261276245117,0.4812345504760742,0.019153613597154617,19.073486328125,-6.3934326171875,5.6915283203125
18.5299999,-10.014945983886719,0.7709329724311829,0.569819986820221,2.899169921875,4.94384765625,1.40380859375
18.5499999,-10.0580415725708,1.0773907899856567,0.9744400978088379,-6.0272216796875,11.1083984375,7.4615478515625
18.5699999,-9.876082420349121,1.3263877630233765,1.0438719987869263,-4.1961669921875,11.1083984375,2.38037109375
18.589999900000002,-9.828198432922363,1.3646949529647827,0.8068459630012512,7.476806640625,3.0975341796875,-7.476806640625
18.609999900000002,-9.880870819091797,1.280897855758667,0.47165772318840027,17.9443359375,1.739501953125,-8.11767578125
18.6299999,-9.952696800231934,1.0295066833496094,0.11971008777618408,22.796630859375,0.518798828125,-5.889892578125
18.6499999,-9.995792388916016,0.7757213711738586,0.0071826050989329815,26.2908935546875,-4.6234130859375,-3.1890869140625
18.6699999,-10.237606048583984,0.5674257874488831,0.035913024097681046,27.4505615234375,-0.2593994140625,-4.486083984375
18.6899999,-10.400412559509277,0.47165772318840027,0.1867477297782898,22.735595703125,-0.54931640625,-6.195068359375
18.7099999,-10.541669845581055,0.5315127968788147,0.3902548849582672,13.7786865234375,0.946044921875,-3.7994384765625
18.7299999,-10.316615104675293,0.6105214357376099,0.4213795065879822,5.9356689453125,4.6539306640625,-0.0762939453125
18.749999900000002,-10.201693534851074,0.8595184087753296,0.44771572947502136,6.103515625,8.4228515625,8.056640625
18.769999900000002,-9.66539192199707,0.8930372595787048,0.3471592366695404,8.880615234375,2.8076171875,-13.031005859375
18.7899999,-9.765948295593262,1.0558429956436157,0.28969839215278625,5.889892578125,5.523681640625,-14.6942138671875
18.8099999,-9.710882186889648,0.9888052940368652,0.2322375625371933,0.5645751953125,5.92041015625,-3.5552978515625
18.8299999,-9.744400978088379,0.8523358106613159,0.14365209639072418,-1.3275146484375,4.33349609375,-0.8697509765625
18.8499999,-10.02452278137207,0.7015010714530945,0.07900865375995636,5.0506591796875,1.9683837890625,-1.28173828125
18.8699999,-9.967061996459961,0.5051765441894531,-0.06224924325942993,9.490966796875,-2.7008056640625,-16.11328125
18.8899999,-10.393229484558105,0.4381389021873474,-0.08858546614646912,9.429931640625,-0.9002685546875,-8.148193359375
18.909999900000003,-10.390835762023926,0.47884035110473633,-0.10295066982507706,4.9896240234375,-2.899169921875,-1.2664794921875
18.929999900000002,-10.76193618774414,0.6009446382522583,-0.021547814831137657,1.89208984375,3.9215087890625,3.2958984375
18.9499999,-10.584765434265137,0.7206547260284424,0.047884032130241394,0.0152587890625,-1.3885498046875,-17.2271728515625
18.9699999,-10.793061256408691,0.790086567401886,0.10055647045373917,-0.1220703125,-4.33349609375,-13.7481689453125
18.9899999,-10.824186325073242,0.7637503147125244,0.12689268589019775,0.7781982421875,-0.30517578125,-6.0882568359375
19.0099999,-10.773907661437988,0.6272808313369751,0.10534487664699554,-0.3662109375,-1.617431640625,-23.590087890625
19.0299999,-10.66137981414795,0.45250412821769714,0.3256114423274994,-2.197265625,10.467529296875,-27.587890625
19.0499999,-10.431536674499512,0.44771572947502136,0.3663128614425659,-15.838623046875,23.0712890625,-25.3448486328125
19.0699999,-10.041281700134277,0.3280056416988373,0.4908113479614258,-34.912109375,29.998779296875,-20.7366943359375
19.089999900000002,-9.548076629638672,0.2082955539226532,-0.12449848651885986,-15.0909423828125,33.2794189453125,-14.007568359375
19.109999900000002,-9.524134635925293,0.031124621629714966,-0.6751648783683777,5.7830810546875,22.430419921875,-18.1427001953125
19.1299999,-9.610325813293457,-0.11013327538967133,-1.173158884048462,24.6124267578125,5.3558349609375,-19.3939208984375
19.1499999,-9.66539192199707,-0.2082955539226532,-1.4532804489135742,39.1082763671875,-11.23046875,-12.9241943359375
19.1699999,-9.622296333312988,-0.2082955539226532,-1.455674648284912,47.1649169921875,-20.44677734375,4.08935546875
19.1899999,-9.548076629638672,-0.090979665517807,-1.1827356815338135,51.0406494140625,-23.529052734375,20.477294921875
19.2099999,-9.531316757202148,0.17477671802043915,-0.727837324142456,50.3692626953125,-28.4881591796875,23.86474609375
19.2299999,-9.636661529541016,0.5339069962501526,-0.1843535304069519,46.0662841796875,-29.7088623046875,7.4462890625
19.249999900000002,-9.816226959228516,0.8595184087753296,0.33279404044151306,41.351318359375,-25.57373046875,-16.2353515625
19.269999900000002,-9.947908401489258,1.0558429956436157,0.7541735172271729,34.942626953125,-15.9912109375,-30.6243896484375
19.2899999,-9.96945571899414,1.0342950820922852,0.9983820915222168,31.158447265625,-4.2266845703125,-38.3758544921875
19.3099999,-9.835380554199219,0.7852981686592102,1.072602391242981,29.754638671875,-2.1514892578125,-39.215087890625
19.3299999,-9.641449928283691,0.40222588181495667,0.9983820915222168,28.564453125,-6.5765380859375,-29.0679931640625
19.3499999,-9.473855972290039,0,0.8331822156906128,27.6947021484375,-10.80322265625,-17.8070068359375
19.3699999,-9.363722801208496,-0.3447650372982025,0.7038952708244324,25.054931640625,-21.6064453125,-14.6484375
19.3899999,-9.246406555175781,-0.5674257874488831,0.727837324142456,19.866943359375,-31.6925048828125,-12.1612548828125
19.409999900000003,-9.184157371520996,-0.6847416758537292,0.7948749661445618,15.899658203125,-8.6212158203125,-5.7220458984375
19.429999900000002,-9.215282440185547,-0.7230489253997803,0.9097966551780701,17.6239013671875,20.5230712890625,-10.6048583984375
19.4499999,-9.332598686218262,-0.7230489253997803,0.9528923034667969,18.49365234375,19.561767578125,-24.8260498046875
19.4699999,-9.5408935546875,-0.7254431247711182,0.8690952062606812,15.228271484375,6.134033203125,-33.905029296875
19.4899999,-9.715670585632324,-0.7086837291717529,0.7613561153411865,13.12255859375,-2.197265625,-29.60205078125
19.5099999,-9.732429504394531,-0.7038952708244324,0.6584054827690125,11.444091796875,-1.28173828125,-18.951416015625
19.5299999,-9.636661529541016,-0.667982280254364,0.6009446382522583,9.7503662109375,6.622314453125,-16.632080078125
19.5499999,-9.53849983215332,-0.5770025849342346,0.5578489899635315,6.9580078125,14.83154296875,-23.529052734375
19.5699999,-9.497797966003418,-0.4596867263317108,0.5363011956214905,2.3345947265625,15.19775390625,-28.228759765625
19.589999900000002,-9.512163162231445,-0.3663128614425659,0.49559974670410156,-2.0904541015625,14.70947265625,-28.472900390625
19.609999900000002,-9.57441234588623,-0.31603461503982544,0.4213795065879822,-3.60107421875,21.087646484375,-29.6783447265625
19.6299999,-9.727641105651855,-0.33279404044151306,0.26096799969673157,-0.2288818359375,27.77099609375,-35.5224609375
19.6499999,-9.93354320526123,-0.4141969084739685,-0.009576806798577309,7.8582763671875,19.53125,-49.407958984375
19.6699999,-10.127472877502441,-0.6320692300796509,-0.3232172429561615,16.41845703125,-9.033203125,-67.4896240234375
19.6899999,-10.237606048583984,-0.9457096457481384,-0.5770025849342346,23.3154296875,-30.2276611328125,-76.1566162109375
19.7099999,-10.11789608001709,-1.4221558570861816,-0.6655880808830261,29.571533203125,-31.646728515625,-77.33154296875
19.7299999,-9.9000244140625,-1.9105730056762695,-0.5267243981361389,33.9813232421875,-24.0936279296875,-76.0040283203125
19.749999900000002,-9.62947940826416,-2.3965959548950195,-0.2585737705230713,37.0330810546875,-19.47021484375,-74.76806640625
19.769999900000002,-9.44752025604248,-2.782062292098999,0.040701430290937424,39.7796630859375,-28.6712646484375,-73.8525390625
19.7899999,-9.387664794921875,-2.978386878967285,0.31124621629714966,41.7022705078125,-45.2117919921875,-73.8525390625
19.8099999,-9.457097053527832,-3.028665065765381,0.507570743560791,42.816162109375,-52.5665283203125,-81.1614990234375
19.8299999,-9.528923034667969,-2.999934673309326,0.6799532771110535,43.8995361328125,-50.3692626953125,-97.10693359375
19.8499999,-9.555258750915527,-2.9759926795959473,0.8571242094039917,42.7093505859375,-43.304443359375,-112.396240234375
19.8699999,-9.473855972290039,-3.0573954582214355,0.993593692779541,39.48974609375,-28.289794921875,-122.6806640625
19.8899999,-9.289502143859863,-3.268085241317749,1.1994950771331787,34.515380859375,-22.4151611328125,-132.5836181640625
19.909999900000003,-8.968679428100586,-3.5889084339141846,1.403002142906189,24.0325927734375,-23.162841796875,-142.303466796875
19.929999900000002,-8.547300338745117,-4.02465295791626,1.7142484188079834,11.3677978515625,-17.39501953125,-144.2718505859375
19.9499999,-7.8529815673828125,-4.587290287017822,2.142810583114624,-0.48828125,-0.762939453125,-135.4522705078125
19.9699999,-6.957550048828125,-5.195417881011963,2.650381326675415,-11.138916015625,29.541015625,-118.3319091796875
