# Time (seconds),Accel_X,Accel_Y,Accel_Z,Gyro_X,Gyro_Y,Gyro_Z
0.0099999,-1.0965443849563599,-9.919178009033203,0.8307880163192749,0.1678466796875,-38.0096435546875,5.035400390625
0.029999900000000003,-1.5897499322891235,-9.952696800231934,0.5817909836769104,-0.4119873046875,-76.2786865234375,12.4664306640625
0.0499999,-2.0590133666992188,-10.050858497619629,0.3758896589279175,0.6561279296875,-104.248046875,12.1307373046875
0.0699999,-2.389413356781006,-10.266336441040039,0.30885201692581177,11.444091796875,-111.5875244140625,4.486083984375
0.08999990000000001,-2.542642116546631,-10.51054573059082,0.38546648621559143,29.84619140625,-106.8115234375,-11.0015869140625
0.10999990000000001,-2.4588451385498047,-10.809821128845215,0.6584054827690125,48.1109619140625,-97.3358154296875,-31.280517578125
0.1299999,-2.2170307636260986,-11.044452667236328,1.0007762908935547,60.7147216796875,-76.812744140625,-51.605224609375
0.14999990000000002,-1.8076223134994507,-11.209651947021484,1.3862427473068237,68.1915283203125,-55.1910400390625,-64.239501953125
0.1699999,-1.2952631711959839,-11.338939666748047,1.7525556087493896,72.0672607421875,-46.0662841796875,-65.460205078125
0.1899999,-0.7637503147125244,-11.42752456665039,2.0470423698425293,72.1893310546875,-50.750732421875,-58.135986328125
0.20999990000000002,-0.22266076505184174,-11.463438034057617,2.3104045391082764,69.4122314453125,-61.4776611328125,-49.3316650390625
0.2299999,0.21787235140800476,-11.382035255432129,2.5761611461639404,67.2607421875,-63.3392333984375,-46.8292236328125
0.2499999,0.5578489899635315,-11.164162635803223,2.8371291160583496,65.765380859375,-57.8155517578125,-49.346923828125
0.2699999,0.8331822156906128,-10.845733642578125,3.1268274784088135,61.737060546875,-58.3648681640625,-51.3153076171875
0.28999990000000003,1.0749965906143188,-10.47702693939209,3.3877954483032227,55.572509765625,-59.478759765625,-51.4373779296875
0.3099999,1.2952631711959839,-10.077195167541504,3.584120035171509,48.88916015625,-52.0477294921875,-50.10986328125
0.3299999,1.5538369417190552,-9.751583099365234,3.732560396194458,43.060302734375,-45.7305908203125,-51.666259765625
0.34999990000000003,1.8579005002975464,-9.421183586120605,3.804386615753174,38.14697265625,-41.5191650390625,-47.4090576171875
0.3699999,2.1954829692840576,-9.141061782836914,3.818751811981201,32.1044921875,-36.2396240234375,-48.1414794921875
0.3899999,2.5043349266052246,-8.913613319396973,3.825934410095215,26.947021484375,-29.3121337890625,-50.4913330078125
0.40999990000000003,2.7317841053009033,-8.671798706054688,3.7852327823638916,22.5067138671875,-22.796630859375,-45.3033447265625
0.4299999,2.8993782997131348,-8.432378768920898,3.780444383621216,18.37158203125,-26.4434814453125,-40.313720703125
0.4499999,2.985569477081299,-8.145073890686035,3.7828385829925537,13.85498046875,-28.5797119140625,-41.2139892578125
0.4699999,3.0573954582214355,-7.817068576812744,3.801992416381836,9.307861328125,-20.965576171875,-43.304443359375
0.4899999,3.1699230670928955,-7.493851184844971,3.821146011352539,4.8065185546875,-15.2587890625,-42.8619384765625
0.5099999,3.332728862762451,-7.2352776527404785,3.8355112075805664,-0.3509521484375,-16.082763671875,-39.520263671875
0.5299999,3.5170822143554688,-7.060500621795654,3.823540210723877,-5.7830810546875,-14.58740234375,-35.5987548828125
0.5499999,3.711012601852417,-6.94079065322876,3.758896589279175,-10.80322265625,-10.7421875,-33.3251953125
0.5699999,3.9193081855773926,-6.845022678375244,3.7014358043670654,-13.5498046875,-14.7705078125,-34.2864990234375
0.5899998999999999,4.134786128997803,-6.732495307922363,3.6727054119110107,-14.9993896484375,-14.6636962890625,-36.7889404296875
0.6099998999999999,4.343081951141357,-6.62236213684082,3.670311212539673,-18.4173583984375,-1.89208984375,-38.4979248046875
0.6299999,4.565742492675781,-6.507440090179443,3.7445313930511475,-25.7568359375,8.6212158203125,-36.8194580078125
0.6499999,4.7189717292785645,-6.421248912811279,3.8714241981506348,-38.4063720703125,9.6282958984375,-33.660888671875
0.6699999,4.802768707275391,-6.323086738586426,3.998316764831543,-54.901123046875,6.103515625,-32.623291015625
0.6899999,4.879383087158203,-6.294356346130371,4.005499362945557,-69.915771484375,6.561279296875,-35.21728515625
0.7099999,4.93923807144165,-6.323086738586426,3.9408559799194336,-77.667236328125,11.444091796875,-38.055419921875
0.7299998999999999,5.061342239379883,-6.449979305267334,3.557783842086792,-78.3843994140625,4.638671875,-36.5753173828125
0.7499998999999999,5.212177276611328,-6.7277069091796875,3.095702886581421,-72.2503662109375,-12.481689453125,-29.72412109375
0.7699999,5.398924827575684,-7.005434036254883,2.518700122833252,-63.3087158203125,-18.585205078125,-23.6358642578125
0.7899999,5.604825973510742,-7.357381820678711,1.98958158493042,-53.5430908203125,-10.162353515625,-21.4996337890625
0.8099999,5.78678560256958,-7.587224960327148,1.5682021379470825,-46.051025390625,-4.058837890625,-19.10400390625
0.8299999,5.875370979309082,-7.783549785614014,1.2042834758758545,-37.3077392578125,-8.0413818359375,-15.2435302734375
0.8499998999999999,5.872976779937744,-7.8960771560668945,0.9361328482627869,-27.3895263671875,-15.5029296875,-12.115478515625
0.8699998999999999,5.803544998168945,-7.967903137207031,0.706289529800415,-18.096923828125,-15.4571533203125,-10.0555419921875
0.8899999,5.758055210113525,-7.9846625328063965,0.5746083855628967,-10.6353759765625,-9.94873046875,-9.9945068359375
0.9099999,5.765237808227539,-7.960720539093018,0.4884171485900879,-3.60107421875,-1.556396484375,-13.12255859375
0.9299999,5.827486991882324,-7.953537940979004,0.43095630407333374,3.8299560546875,4.9285888671875,-14.9688720703125
0.9499999,5.863399982452393,-7.922413349151611,0.4189853072166443,9.70458984375,3.5400390625,-13.3514404296875
0.9699998999999999,5.87776517868042,-7.864952564239502,0.43095630407333374,12.6495361328125,0.42724609375,-11.90185546875
0.9899998999999999,5.839457988739014,-7.814674377441406,0.49799394607543945,13.3819580078125,-1.8463134765625,-13.0462646484375
1.0099999,5.789179801940918,-7.63989782333374,0.6320692300796509,12.786865234375,-4.8675537109375,-15.2587890625
1.0299999,5.846640586853027,-7.529764175415039,0.7876923680305481,10.3912353515625,-5.5084228515625,-15.44189453125
1.0499999,5.95677375793457,-7.412448406219482,0.9481038451194763,7.8125,-2.349853515625,-13.24462890625
1.0699999,6.14831018447876,-7.462726593017578,1.113303780555725,5.5999755859375,4.119873046875,-8.2550048828125
1.0899999,6.248866558074951,-7.508216381072998,1.259350061416626,2.197265625,5.2947998046875,-1.9989013671875
1.1099999,6.251260757446289,-7.649474620819092,1.3551181554794312,-1.953125,0.6256103515625,1.922607421875
1.1299999,6.150704383850098,-7.680599212646484,1.4532804489135742,-5.9967041015625,-3.47900390625,-0.946044921875
1.1499999,6.038176536560059,-7.7883381843566895,1.4724340438842773,-8.5906982421875,-0.579833984375,-6.134033203125
1.1699998999999999,5.947196960449219,-7.7643961906433105,1.482010841369629,-9.2926025390625,4.486083984375,-7.75146484375
1.1899998999999999,5.896918773651123,-7.876923561096191,1.455674648284912,-9.6435546875,5.6610107421875,-7.5225830078125
1.2099999,5.863399982452393,-7.898471355438232,1.41257905960083,-9.796142578125,4.913330078125,-8.4075927734375
1.2299999,5.8203043937683105,-8.02536392211914,1.3838485479354858,-8.4686279296875,5.828857421875,-10.711669921875
1.2499999,5.813121795654297,-8.08282470703125,1.3527239561080933,-5.7830810546875,7.7362060546875,-11.1236572265625
1.2699999,5.779603004455566,-8.192957878112793,1.338358759880066,-2.349853515625,6.4239501953125,-9.429931640625
1.2899999,5.796362400054932,-8.202534675598145,1.316810965538025,1.129150390625,2.532958984375,-9.4146728515625
1.3099999,5.770026206970215,-8.197746276855469,1.3215993642807007,4.45556640625,2.1209716796875,-12.75634765625
1.3299999,5.801150798797607,-8.094796180725098,1.3239935636520386,7.38525390625,0.8544921875,-14.556884765625
1.3499999,5.791574001312256,-7.977479934692383,1.3718775510787964,8.7127685546875,-2.593994140625,-13.3819580078125
1.3699999,5.832275390625,-7.838616371154785,1.4484920501708984,8.514404296875,-5.1422119140625,-12.3291015625
1.3899999,5.841852188110352,-7.692570209503174,1.5490485429763794,6.6986083984375,-3.814697265625,-13.885498046875
1.4099999,5.944802761077881,-7.582436561584473,1.6519991159439087,4.364013671875,2.9449462890625,-16.4337158203125
1.4299998999999999,6.028599739074707,-7.465120792388916,1.721431016921997,3.3416748046875,7.9498291015625,-16.0369873046875
1.4499999,6.18182897567749,-7.4316020011901855,1.766920804977417,3.5858154296875,4.2724609375,-10.6658935546875
1.4699999,6.2392897605896,-7.374141216278076,1.7597382068634033,3.997802734375,-2.7923583984375,-3.631591796875
1.4899999,6.289567947387695,-7.357381820678711,1.7764976024627686,3.387451171875,-5.0048828125,-0.091552734375
1.5099999,6.246472358703613,-7.29034423828125,1.7741034030914307,2.3040771484375,-1.220703125,-2.2430419921875
1.5299999,6.2201361656188965,-7.259219646453857,1.802833914756775,1.89208984375,4.730224609375,-6.317138671875
1.5499999,6.124367713928223,-7.218518257141113,1.7764976024627686,2.685546875,6.317138671875,-8.0718994140625
1.5699999,6.081272125244141,-7.261613845825195,1.7357962131500244,3.7689208984375,-1.739501953125,-7.659912109375
1.5899999,6.035782337188721,-7.3238630294799805,1.6687586307525635,4.0740966796875,-10.986328125,-6.7901611328125
1.6099999,6.069301128387451,-7.359776020050049,1.6304513216018677,3.570556640625,-13.00048828125,-8.4228515625
1.6299999,6.18182897567749,-7.378929615020752,1.623268723487854,1.0528564453125,-5.462646484375,-10.2386474609375
1.6499999,6.294356346130371,-7.419631004333496,1.534683346748352,-1.068115234375,5.889892578125,-10.8795166015625
1.6699999,6.323086738586426,-7.55131196975708,1.2497732639312744,8.087158203125,5.7373046875,-9.4451904296875
1.6899998999999999,6.378153324127197,-7.618350028991699,1.0055646896362305,38.5589599609375,-5.8746337890625,-8.2550048828125
1.7099999,6.358999729156494,-7.690176010131836,0.7757213711738586,50.3082275390625,0.5340576171875,-8.30078125
1.7299999,6.4380083084106445,-7.534552574157715,0.8523358106613159,46.44775390625,13.916015625,-9.7198486328125
1.7499999,6.555324077606201,-7.254431247711182,1.1875240802764893,38.9251708984375,24.3988037109375,-11.871337890625
1.7699999,6.672640323638916,-6.938396453857422,1.6376339197158813,31.0211181640625,29.5867919921875,-13.397216796875
1.7899999,6.72531270980835,-6.67982292175293,2.0398597717285156,23.712158203125,30.9906005859375,-13.3209228515625
1.8099999,6.7061591148376465,-6.531382083892822,2.346317768096924,18.4326171875,24.810791015625,-12.02392578125
1.8299999,6.63433313369751,-6.4834980964660645,2.542642116546631,13.3056640625,14.739990234375,-8.4228515625
1.8499999,6.521805286407471,-6.490680694580078,2.6599581241607666,9.0789794921875,7.62939453125,-5.3558349609375
1.8699999,6.4164605140686035,-6.531382083892822,2.7437551021575928,5.55419921875,5.6915283203125,-4.4403076171875
1.8899999,6.335057735443115,-6.562506675720215,2.8107926845550537,2.0904541015625,6.0577392578125,-4.69970703125
1.9099999,6.279991149902344,-6.581660270690918,2.875436305999756,-1.6021728515625,6.134033203125,-4.8370361328125
1.9299998999999999,6.256049156188965,-6.596025466918945,2.9305028915405273,-5.7373046875,7.8277587890625,-5.3253173828125
1.9499999,6.260837554931641,-6.600813865661621,2.9664158821105957,-9.4146728515625,11.1541748046875,-6.134033203125
1.9699999,6.303933143615723,-6.610390663146973,2.9879636764526367,-11.90185546875,13.24462890625,-7.50732421875
1.9899999,6.36378812789917,-6.6127848625183105,2.983175277709961,-13.763427734375,14.7247314453125,-8.5906982421875
2.0099999,6.4380083084106445,-6.610390663146973,2.964021682739258,-14.892578125,14.7705078125,-8.23974609375
2.0299999,6.50025749206543,-6.615179061889648,2.937685489654541,-14.9993896484375,13.73291015625,-6.8817138671875
2.0499999,6.531382083892822,-6.629544734954834,2.911349296569824,-14.6636962890625,12.420654296875,-5.218505859375
2.0699999,6.5265936851501465,-6.66785192489624,2.8802247047424316,-14.4805908203125,10.2386474609375,-4.1961669921875
2.0899999,6.485892295837402,-6.732495307922363,2.851494312286377,-14.2364501953125,6.256103515625,-3.173828125
2.1099999,6.430825710296631,-6.806715488433838,2.82515811920166,-13.85498046875,2.1209716796875,-1.8310546875
2.1299999,6.382941722869873,-6.871358871459961,2.8131868839263916,-13.336181640625,0.6866455078125,-1.5106201171875
2.1499999,6.3518171310424805,-6.914454460144043,2.8179752826690674,-13.4124755859375,2.44140625,-3.204345703125
2.1699999,6.335057735443115,-6.919242858886719,2.832340717315674,-13.5650634765625,4.791259765625,-5.7373046875
2.1899999,6.335057735443115,-6.907271862030029,2.8395233154296875,-13.0157470703125,5.3253173828125,-8.4686279296875
2.2099999,6.344634532928467,-6.885724067687988,2.80361008644104,-10.6964111328125,-0.244140625,-10.833740234375
2.2299999,6.3733649253845215,-6.876147270202637,2.760514497756958,-9.4451904296875,-4.0740966796875,-10.43701171875
2.2499999,6.418854713439941,-6.854599475860596,2.7054479122161865,-9.002685546875,-9.185791015625,-9.7198486328125
2.2699999,6.4834980964660645,-6.809109687805176,2.647987127304077,-8.6212158203125,-13.458251953125,-7.6751708984375
2.2899999,6.567295074462891,-6.744466304779053,2.58813214302063,-8.7127685546875,-14.1448974609375,-5.4779052734375
2.3099999,6.63433313369751,-6.670246124267578,2.5282769203186035,-9.246826171875,-15.0604248046875,-3.3721923828125
2.3299999,6.665457725524902,-6.57926607131958,2.449268341064453,-10.7879638671875,-20.4010009765625,-1.46484375
2.3499999,6.677428722381592,-6.464344501495361,2.3989901542663574,-14.129638671875,-27.9388427734375,-0.4730224609375
2.3699999,6.6630635261535645,-6.370970726013184,2.363077163696289,-19.9737548828125,-24.4293212890625,-2.4261474609375
2.3899999,6.737283706665039,-6.246472358703613,2.470816135406494,-27.6947021484375,-12.51220703125,-5.0048828125
2.4099999,6.9024834632873535,-5.95677375793457,2.8419175148010254,-46.0205078125,15.7928466796875,-7.7362060546875
2.4299999,6.976703643798828,-5.92325496673584,2.8610711097717285,-80.1544189453125,50.78125,-12.7716064453125
2.4499999,6.979097843170166,-5.896918773651123,2.808398485183716,-97.2137451171875,36.0107421875,-13.18359375
2.4699999,6.825869083404541,-6.210559368133545,2.252943754196167,-89.263916015625,-3.6773681640625,-6.0577392578125
2.4899999,6.6127848625183105,-6.687005519866943,1.482010841369629,-75.927734375,-25.4364013671875,-2.105712890625
2.5099999,6.507440090179443,-7.144298076629639,0.7829039692878723,-59.99755859375,-21.6827392578125,-3.84521484375
2.5299999,6.586448669433594,-7.553706169128418,0.24660277366638184,-40.4510498046875,-3.9215087890625,-8.5296630859375
2.5499999,6.732495307922363,-7.886500358581543,-0.1412578970193863,-18.524169921875,10.3302001953125,-7.8582763671875
2.5699999,6.890512466430664,-8.08043098449707,-0.37828385829925537,2.9296875,4.547119140625,0.18310546875
2.5899999,6.979097843170166,-8.145073890686035,-0.4596867263317108,19.6533203125,-16.510009765625,10.19287109375
2.6099999,6.98628044128418,-7.95832633972168,-0.33518823981285095,28.717041015625,-26.5045166015625,12.6495361328125
2.6299999,6.952761650085449,-7.637503623962402,-0.06224924325942993,32.073974609375,-17.7764892578125,7.293701171875
2.6499999,6.888118267059326,-7.266402244567871,0.3256114423274994,31.707763671875,-6.195068359375,2.838134765625
2.6699999,6.801927089691162,-6.976703643798828,0.6967126727104187,27.740478515625,-7.1258544921875,1.1749267578125
2.6899999,6.718130111694336,-6.789956092834473,0.9959878921508789,21.2860107421875,-13.00048828125,0.1068115234375
2.7099999,6.658275127410889,-6.694188117980957,1.213860273361206,13.7176513671875,-13.427734375,-0.640869140625
2.7299999,6.682217121124268,-6.6127848625183105,1.3311761617660522,6.4697265625,-9.307861328125,-0.091552734375
2.7499999,6.718130111694336,-6.564900875091553,1.3623007535934448,0.4119873046875,-5.55419921875,1.190185546875
2.7699999,6.785167694091797,-6.531382083892822,1.3192051649093628,-3.90625,-6.4849853515625,2.471923828125
2.7899999,6.8043212890625,-6.54574728012085,1.1994950771331787,-6.3934326171875,-8.3465576171875,3.4637451171875
2.8099999,6.785167694091797,-6.629544734954834,1.039083480834961,-7.8887939453125,-12.6495361328125,4.9591064453125
2.8299999,6.768408298492432,-6.7492547035217285,0.8786720037460327,-8.7738037109375,-15.167236328125,6.011962890625
2.8499999,6.742072105407715,-6.892906665802002,0.7182605266571045,-8.4686279296875,-11.1846923828125,5.4168701171875
2.8699999,6.739677906036377,-7.0126166343688965,0.6009446382522583,-7.476806640625,-7.4462890625,4.9285888671875
2.8899999,6.718130111694336,-7.082048416137695,0.5027823448181152,-6.3934326171875,-7.14111328125,4.9591064453125
2.9099999,6.687005519866943,-7.113173484802246,0.4357447028160095,-4.9896240234375,-8.819580078125,4.974365234375
2.9299999,6.677428722381592,-7.091625213623047,0.38546648621559143,-3.082275390625,-8.1787109375,4.1656494140625
2.9499999,6.694188117980957,-7.082048416137695,0.3711012601852417,-1.2359619140625,-3.72314453125,3.631591796875
2.9699999,6.732495307922363,-7.060500621795654,0.3687070608139038,0.1220703125,-1.0223388671875,4.21142578125
2.9899999,6.773196697235107,-7.0772600173950195,0.36152446269989014,1.373291015625,-0.762939453125,5.1116943359375
3.0099999,6.797138690948486,-7.146692276000977,0.35673606395721436,2.62451171875,-1.922607421875,5.0506591796875
3.0299999,6.787561893463135,-7.240066051483154,0.35434186458587646,3.23486328125,-1.9683837890625,4.3487548828125
3.0499999,6.751648902893066,-7.33583402633667,0.3471592366695404,3.9215087890625,-0.48828125,3.631591796875
3.0699999,6.698976516723633,-7.412448406219482,0.35434186458587646,4.608154296875,-0.8087158203125,2.7008056640625
3.0899999,6.63433313369751,-7.3885064125061035,0.38307225704193115,6.011962890625,-1.678466796875,1.0986328125
3.1099999,6.617573261260986,-7.362170219421387,0.3926490843296051,8.514404296875,0.2593994140625,-0.42724609375
3.1299999,6.651092529296875,-7.3693528175354,0.40462008118629456,11.4593505859375,4.119873046875,0.274658203125
3.1499999,6.646304130554199,-7.441178798675537,0.17717093229293823,16.2506103515625,9.429931640625,2.044677734375
3.1699999,6.658275127410889,-7.663839817047119,-0.06703764945268631,39.520263671875,2.5177001953125,3.90625
3.1899999,6.6391215324401855,-7.762001991271973,-0.3256114423274994,72.113037109375,-5.3863525390625,3.7078857421875
3.2099999,6.641515731811523,-7.7883381843566895,-0.3447650372982025,82.3974609375,0.4425048828125,3.631591796875
3.2299999,6.732495307922363,-7.5632829666137695,0.004788403399288654,74.5086669921875,9.46044921875,4.6234130859375
3.2499999,6.833051681518555,-7.208941459655762,0.6129156351089478,62.5,21.2249755859375,5.2337646484375
3.2699999,6.878541469573975,-6.828263282775879,1.2761094570159912,50.7049560546875,30.8380126953125,5.8135986328125
3.2899999,6.818686485290527,-6.509834289550781,1.8387469053268433,38.75732421875,29.1595458984375,6.134033203125
3.3099999,6.660669326782227,-6.301538944244385,2.2385785579681396,26.0467529296875,18.646240234375,4.8675537109375
3.3299999000000002,6.476315498352051,-6.215347766876221,2.4899697303771973,15.9149169921875,12.176513671875,5.035400390625
3.3499999,6.308721542358398,-6.22731876373291,2.6408045291900635,5.43212890625,13.336181640625,5.9051513671875
3.3699999,6.217741966247559,-6.31829833984375,2.738966703414917,-3.7994384765625,14.984130859375,7.476806640625
3.3899999,6.169857978820801,-6.464344501495361,2.784456491470337,-11.627197265625,14.129638671875,7.659912109375
3.4099999,6.160281181335449,-6.6391215324401855,2.779668092727661,-17.4407958984375,13.214111328125,7.110595703125
3.4299999,6.174646377563477,-6.825869083404541,2.7293899059295654,-21.1639404296875,13.0615234375,7.32421875
3.4499999,6.210559368133545,-7.01979923248291,2.6455929279327393,-22.6287841796875,13.2904052734375,7.7056884765625
3.4699999,6.244078159332275,-7.206547260284424,2.535459518432617,-22.2015380859375,13.2293701171875,7.4615478515625
3.4899999,6.256049156188965,-7.371747016906738,2.406172752380371,-19.10400390625,12.14599609375,6.9427490234375
3.5099999,6.229712963104248,-7.508216381072998,2.276885747909546,-15.411376953125,9.70458984375,6.591796875
3.5299999,6.169857978820801,-7.601590633392334,2.1523873805999756,-11.4898681640625,6.4849853515625,5.401611328125
3.5499999,6.09324312210083,-7.654263019561768,2.054224967956543,-6.77490234375,2.4261474609375,3.2501220703125
3.5699999,6.028599739074707,-7.666234016418457,1.9919757843017578,-2.5177001953125,-0.5645751953125,0.5950927734375
3.5899999,6.009446144104004,-7.644686222076416,1.9704279899597168,0.732421875,-1.52587890625,-0.885009765625
3.6099999,6.035782337188721,-7.592013359069824,1.9943699836730957,3.265380859375,-0.8392333984375,-1.434326171875
3.6299999,6.090848922729492,-7.522581577301025,2.0446481704711914,4.730224609375,1.5716552734375,-1.89208984375
3.6499999,6.145915985107422,-7.436390399932861,2.099714994430542,5.43212890625,3.35693359375,-2.105712890625
3.6699999,6.172252178192139,-7.347805023193359,2.1499931812286377,5.767822265625,2.13623046875,-1.861572265625
3.6899999,6.160281181335449,-7.266402244567871,2.183511972427368,5.279541015625,-2.410888671875,-1.312255859375
3.7099999,6.133944988250732,-7.19936466217041,2.2146365642547607,4.0130615234375,-9.246826171875,0
3.7299999,6.095637321472168,-7.139509677886963,2.250549554824829,1.739501953125,-16.0980224609375,2.8533935546875
3.7499999,6.071695327758789,-7.0988078117370605,2.2816741466522217,-2.38037109375,-22.76611328125,7.0648193359375
3.7699999,6.086060523986816,-7.062894821166992,2.3487119674682617,-8.4991455078125,-30.76171875,10.7421875
3.7899999,6.200982570648193,-6.971915245056152,2.5234885215759277,-16.29638671875,-27.6641845703125,10.9405517578125
3.8099999,6.378153324127197,-6.8043212890625,2.808398485183716,-35.8734130859375,-0.54931640625,7.598876953125
3.8299999000000002,6.4834980964660645,-6.687005519866943,2.9712042808532715,-62.8814697265625,29.4189453125,5.18798828125
3.8499999,6.507440090179443,-6.610390663146973,3.0095114707946777,-81.1614990234375,30.242919921875,0.9613037109375
3.8699999,6.315904140472412,-6.8043212890625,2.5713725090026855,-81.2530517578125,13.97705078125,-1.7547607421875
3.8899999,6.026205539703369,-7.163451671600342,1.9057846069335938,-66.6961669921875,-11.77978515625,-0.06103515625
3.9099999,5.805939197540283,-7.568071365356445,1.1037269830703735,-51.9256591796875,-30.6396484375,0.9002685546875
3.9299999,5.7556610107421875,-8.02536392211914,0.4405331015586853,-34.820556640625,-22.8424072265625,-2.5177001953125
3.9499999,5.832275390625,-8.317456245422363,-0.0454898327589035,-16.29638671875,-3.5400390625,-5.9356689453125
3.9699999,5.9974751472473145,-8.504204750061035,-0.3016694188117981,1.495361328125,-0.3509521484375,-3.9825439453125
3.9899999,6.157886981964111,-8.530540466308594,-0.38546648621559143,16.2811279296875,-10.6201171875,0.1983642578125
4.0099999,6.258443355560303,-8.427590370178223,-0.3447650372982025,26.2298583984375,-12.237548828125,0.2593994140625
4.029999900000001,6.308721542358398,-8.200140953063965,-0.15562310814857483,32.3486328125,-4.21142578125,-2.2430419921875
4.0499999,6.320692539215088,-7.982268333435059,0.07182604819536209,34.2559814453125,-2.44140625,-3.1280517578125
4.069999900000001,6.277596950531006,-7.745242595672607,0.35434186458587646,32.5469970703125,-7.38525390625,-2.50244140625
4.0899999000000005,6.234501361846924,-7.515398979187012,0.6631938815116882,27.9388427734375,-11.8408203125,-1.495361328125
4.1099999,6.184223175048828,-7.297526836395264,0.933738648891449,20.7977294921875,-9.9945068359375,-1.2969970703125
4.1299999000000005,6.1770405769348145,-7.096413612365723,1.2018892765045166,12.664794921875,-6.0882568359375,-0.3662109375
4.1499999,6.19379997253418,-6.947973251342773,1.381454348564148,4.0740966796875,-6.134033203125,1.220703125
4.1699999000000005,6.210559368133545,-6.900089263916016,1.4700398445129395,-3.5247802734375,-4.2266845703125,1.40380859375
4.1899999,6.2392897605896,-6.950367450714111,1.4772224426269531,-9.979248046875,0.18310546875,1.40380859375
4.209999900000001,6.258443355560303,-7.0988078117370605,1.3838485479354858,-14.5416259765625,2.50244140625,2.4871826171875
4.2299999,6.251260757446289,-7.295132637023926,1.237802267074585,-15.9454345703125,2.3956298828125,3.0670166015625
4.249999900000001,6.232107162475586,-7.489062786102295,1.039083480834961,-15.1214599609375,-0.335693359375,3.6468505859375
4.2699999,6.186617374420166,-7.637503623962402,0.8619126081466675,-12.9547119140625,-3.3416748046875,4.8675537109375
4.289999900000001,6.1530985832214355,-7.714118003845215,0.7158663272857666,-10.345458984375,-5.5084228515625,5.523681640625
4.3099999,6.121973514556885,-7.752425193786621,0.6153098344802856,-7.0648193359375,-1.678466796875,3.8604736328125
4.329999900000001,6.119579315185547,-7.750030994415283,0.5746083855628967,-2.9144287109375,4.1656494140625,1.4190673828125
4.3499999,6.119579315185547,-7.747636795043945,0.5506663918495178,1.068115234375,3.47900390625,0.5645751953125
4.369999900000001,6.1315507888793945,-7.7643961906433105,0.5554547905921936,4.150390625,-0.18310546875,0.79345703125
4.3899999,6.138733386993408,-7.797914981842041,0.5937620401382446,6.011962890625,-0.823974609375,0.06103515625
4.409999900000001,6.133944988250732,-7.829039573669434,0.6560112833976746,6.77490234375,-0.6561279296875,-1.1749267578125
4.4299999,6.124367713928223,-7.850587368011475,0.7230489253997803,6.5460205078125,0.1068115234375,-2.1514892578125
4.449999900000001,6.1052141189575195,-7.802703380584717,0.8092401623725891,5.37109375,-0.4730224609375,-2.3040771484375
4.4699999,6.088454723358154,-7.704541206359863,0.8954314589500427,2.8839111328125,-2.6702880859375,-2.0599365234375
4.489999900000001,6.074089527130127,-7.5632829666137695,0.9481038451194763,0.457763671875,-4.8980712890625,-1.3885498046875
4.5099999,6.050147533416748,-7.419631004333496,0.9816226959228516,-0.3204345703125,-10.4522705078125,0.8087158203125
4.529999900000001,6.107608318328857,-7.417236804962158,0.9696516990661621,-0.3509521484375,-16.265869140625,3.631591796875
4.5499999,6.107608318328857,-7.469909191131592,0.7445967197418213,4.1046142578125,-8.1787109375,2.685546875
4.569999900000001,6.145915985107422,-7.781155586242676,0.35913026332855225,32.5775146484375,-3.936767578125,-0.6103515625
4.5899999000000005,6.169857978820801,-8.003816604614258,0.023942016065120697,65.12451171875,-7.9193115234375,-1.3885498046875
4.609999900000001,6.1985883712768555,-8.169015884399414,-0.20350714027881622,74.005126953125,-6.7138671875,0.8087158203125
4.6299999000000005,6.277596950531006,-8.1139497756958,-0.023942016065120697,69.5953369140625,0.0762939453125,1.6632080078125
4.6499999,6.3733649253845215,-7.850587368011475,0.4644751250743866,61.1572265625,10.6964111328125,1.7547607421875
4.6699999000000005,6.4164605140686035,-7.50582218170166,1.072602391242981,47.454833984375,18.157958984375,-0.2899169921875
4.6899999,6.380547523498535,-7.182605266571045,1.6424223184585571,34.881591796875,15.8233642578125,-0.5645751953125
4.709999900000001,6.265625953674316,-6.94079065322876,2.0829553604125977,23.2391357421875,9.674072265625,-0.30517578125
4.7299999,6.13633918762207,-6.809109687805176,2.3798365592956543,11.444091796875,7.6141357421875,-1.03759765625
4.749999900000001,6.016628742218018,-6.768408298492432,2.540247917175293,0.3509521484375,10.8642578125,-1.922607421875
4.7699999,5.947196960449219,-6.811503887176514,2.6001031398773193,-9.002685546875,12.908935546875,-2.50244140625
4.789999900000001,5.918466567993164,-6.914454460144043,2.5713725090026855,-16.2506103515625,12.7105712890625,-2.532958984375
4.8099999,5.920860767364502,-7.043741226196289,2.477998733520508,-20.8282470703125,13.5498046875,-1.8768310546875
4.829999900000001,5.954379558563232,-7.187393665313721,2.3558945655822754,-22.705078125,14.801025390625,-1.129150390625
4.8499999,6.00226354598999,-7.321468830108643,2.212242364883423,-22.5067138671875,15.5181884765625,0.1678466796875
4.869999900000001,6.045359134674072,-7.433996200561523,2.070984363555908,-21.1029052734375,14.892578125,1.3580322265625
4.8899999,6.066906929016113,-7.532158374786377,1.9297266006469727,-18.5699462890625,13.671875,1.3885498046875
4.909999900000001,6.069301128387451,-7.6111674308776855,1.8124107122421265,-14.6942138671875,11.7950439453125,1.0528564453125
4.9299999,6.045359134674072,-7.6782050132751465,1.721431016921997,-9.796142578125,9.765625,0.701904296875
4.949999900000001,6.009446144104004,-7.723694801330566,1.6687586307525635,-4.2724609375,6.561279296875,0.5950927734375
4.9699999,5.978321552276611,-7.7428483963012695,1.659181833267212,0.640869140625,3.4027099609375,0.1220703125
4.989999900000001,5.9519853591918945,-7.735665798187256,1.6855180263519287,4.7149658203125,3.9825439453125,-1.068115234375
5.0099999,5.937620162963867,-7.704541206359863,1.7381904125213623,7.4462890625,6.103515625,-1.8157958984375
5.029999900000001,5.932831764221191,-7.65186882019043,1.8076223134994507,10.223388671875,5.9051513671875,-2.1209716796875
5.0499999,5.920860767364502,-7.599195957183838,1.8770540952682495,13.4429931640625,3.96728515625,-3.1280517578125
5.069999900000001,5.913678169250488,-7.5417351722717285,1.9488801956176758,15.380859375,1.1749267578125,-3.2958984375
5.0899999000000005,5.92325496673584,-7.481880187988281,2.0254945755004883,15.7470703125,-1.40380859375,-2.13623046875
5.109999900000001,5.95677375793457,-7.4316020011901855,2.1116859912872314,14.801025390625,-3.0364990234375,-0.732421875
5.1299999000000005,6.009446144104004,-7.38132381439209,2.1954829692840576,13.3819580078125,-3.0517578125,0.5340576171875
5.1499999,6.0621185302734375,-7.33583402633667,2.2697031497955322,11.3525390625,-2.1820068359375,1.373291015625
5.1699999000000005,6.095637321472168,-7.297526836395264,2.3271639347076416,8.4381103515625,-1.2664794921875,2.0294189453125
5.1899999,6.100425720214844,-7.264008045196533,2.365471363067627,5.462646484375,-0.9918212890625,1.9073486328125
5.209999900000001,6.071695327758789,-7.240066051483154,2.38462495803833,2.13623046875,-0.30517578125,0.3662109375
5.2299999,6.026205539703369,-7.232883453369141,2.3798365592956543,-1.312255859375,0.640869140625,-1.190185546875
5.249999900000001,5.987898349761963,-7.242460250854492,2.3582887649536133,-3.9520263671875,0.0762939453125,-1.5106201171875
5.2699999,5.971138954162598,-7.271190643310547,2.322375535964966,-5.828857421875,-1.0833740234375,-1.2664794921875
5.289999900000001,5.983109951019287,-7.311892032623291,2.279279947280884,-6.7291259765625,-0.8697509765625,-1.068115234375
5.3099999,6.009446144104004,-7.354987621307373,2.231395959854126,-7.14111328125,1.251220703125,-0.91552734375
5.329999900000001,6.028599739074707,-7.393294811248779,2.1739351749420166,-6.77490234375,3.5400390625,-0.6561279296875
5.3499999,6.023811340332031,-7.429207801818848,2.1116859912872314,-5.5389404296875,3.173828125,-0.1678466796875
5.369999900000001,5.992686748504639,-7.462726593017578,2.0422539710998535,-3.4942626953125,1.068115234375,0.06103515625
5.3899999,5.949591159820557,-7.493851184844971,1.9847931861877441,-1.007080078125,-0.91552734375,0.0152587890625
5.409999900000001,5.916072368621826,-7.5201873779296875,1.946485996246338,1.0986328125,-1.373291015625,-0.2288818359375
5.4299999,5.913678169250488,-7.536946773529053,1.9321208000183105,2.716064453125,-0.5035400390625,-0.5340576171875
5.449999900000001,5.940014362335205,-7.539340972900391,1.941697597503662,4.1961669921875,0.8697509765625,-0.9002685546875
5.4699999,5.980715751647949,-7.532158374786377,1.9608511924743652,5.1422119140625,1.617431640625,-0.8697509765625
5.489999900000001,6.026205539703369,-7.515398979187012,1.9919757843017578,5.706787109375,1.3885498046875,-0.518798828125
5.5099999,6.0597243309021,-7.493851184844971,2.030282974243164,5.8441162109375,0.6561279296875,-0.48828125
5.529999900000001,6.0836663246154785,-7.46033239364624,2.0685901641845703,5.5389404296875,0.2593994140625,-0.6561279296875
5.5499999,6.1052141189575195,-7.422025203704834,2.1164743900299072,4.913330078125,0.5950927734375,-0.79345703125
5.569999900000001,6.124367713928223,-7.376535415649414,2.166752576828003,4.08935546875,1.6326904296875,-0.5950927734375
5.5899999000000005,6.138733386993408,-7.33583402633667,2.212242364883423,2.9296875,3.082275390625,-0.2288818359375
5.609999900000001,6.129156112670898,-7.3023152351379395,2.248155355453491,1.9378662109375,3.936767578125,-0.2899169921875
5.6299999000000005,6.1052141189575195,-7.283161640167236,2.2697031497955322,1.556396484375,3.5858154296875,-0.54931640625
5.6499999,6.071695327758789,-7.275979042053223,2.279279947280884,1.312255859375,3.0364990234375,-0.579833984375
5.6699999000000005,6.035782337188721,-7.273584842681885,2.2816741466522217,1.03759765625,2.74658203125,0
5.6899999,6.021417140960693,-7.275979042053223,2.2816741466522217,1.220703125,2.166748046875,0.823974609375
5.709999900000001,6.016628742218018,-7.283161640167236,2.276885747909546,1.220703125,1.6632080078125,1.2664794921875
5.7299999,6.033388137817383,-7.295132637023926,2.276885747909546,1.312255859375,1.5106201171875,1.4495849609375
5.749999900000001,6.042964935302734,-7.311892032623291,2.274491548538208,1.3427734375,1.495361328125,1.77001953125
5.7699999,6.045359134674072,-7.331045627593994,2.279279947280884,1.1749267578125,1.2054443359375,2.1820068359375
5.789999900000001,6.033388137817383,-7.347805023193359,2.276885747909546,1.0528564453125,1.3275146484375,2.13623046875
5.8099999,6.01423454284668,-7.3693528175354,2.274491548538208,1.4801025390625,1.7852783203125,1.5869140625
5.829999900000001,5.992686748504639,-7.390900611877441,2.2697031497955322,2.2125244140625,1.9683837890625,1.220703125
5.8499999,5.9735331535339355,-7.412448406219482,2.2649147510528564,2.9754638671875,1.28173828125,1.495361328125
5.869999900000001,5.95677375793457,-7.4316020011901855,2.2577321529388428,3.47900390625,0.091552734375,2.0599365234375
5.8899999,5.932831764221191,-7.445967197418213,2.250549554824829,3.8299560546875,-1.190185546875,2.3956298828125
5.909999900000001,5.906495571136475,-7.462726593017578,2.2409727573394775,4.21142578125,-2.899169921875,2.593994140625
5.9299999,5.884947776794434,-7.479485988616943,2.2457611560821533,4.7149658203125,-5.3253173828125,2.5787353515625
5.949999900000001,5.87776517868042,-7.496245384216309,2.2577321529388428,4.6539306640625,-5.67626953125,1.8157958984375
5.9699999,5.882553577423096,-7.50582218170166,2.2840683460235596,3.7841796875,-3.143310546875,0.5340576171875
5.989999900000001,5.861005783081055,-7.503427982330322,2.3056161403656006,2.8839111328125,0.6256103515625,-1.3427734375
6.0099999,5.805939197540283,-7.486668586730957,2.315192937850952,2.4566650390625,2.166748046875,-5.4779052734375
6.029999900000001,5.738901615142822,-7.484274387359619,2.3247697353363037,2.3345947265625,1.2969970703125,-12.2528076171875
6.0499999,5.6910176277160645,-7.4986395835876465,2.346317768096924,3.143310546875,0.6256103515625,-18.280029296875
6.069999900000001,5.724536418914795,-7.510610580444336,2.3965959548950195,3.4942626953125,3.4027099609375,-21.9879150390625
6.0899999000000005,5.875370979309082,-7.5201873779296875,2.5067291259765625,-1.0986328125,13.0462646484375,-25.45166015625
6.109999900000001,6.088454723358154,-7.501033782958984,2.6168625354766846,-1.953125,27.801513671875,-28.7933349609375
6.1299999000000005,6.4834980964660645,-7.352593421936035,2.786850690841675,-9.796142578125,35.3546142578125,-29.0985107421875
6.149999900000001,6.54574728012085,-7.247248649597168,2.806004285812378,-13.8702392578125,31.0211181640625,-27.2216796875
6.1699999000000005,6.509834289550781,-7.137115478515625,2.7988216876983643,-15.93017578125,27.862548828125,-26.702880859375
6.1899999,6.414066314697266,-7.024587631225586,2.7892448902130127,-17.822265625,21.42333984375,-26.8402099609375
6.209999900000001,6.308721542358398,-6.921637058258057,2.7964274883270264,-21.05712890625,16.1285400390625,-26.7486572265625
6.2299999,6.236895561218262,-6.830657482147217,2.801215887069702,-23.956298828125,16.4031982421875,-27.069091796875
6.249999900000001,6.205770969390869,-6.768408298492432,2.801215887069702,-24.871826171875,14.984130859375,-27.3284912109375
6.2699999,6.2201361656188965,-6.7277069091796875,2.762908697128296,-24.71923828125,6.8817138671875,-25.421142578125
6.289999900000001,6.282385349273682,-6.715735912322998,2.7006595134735107,-24.383544921875,-4.3792724609375,-21.4080810546875
6.3099999,6.399701118469238,-6.703764915466309,2.6240451335906982,-24.2462158203125,-8.5601806640625,-18.341064453125
6.329999900000001,6.617573261260986,-6.701370716094971,2.557007312774658,-23.49853515625,-3.5552978515625,-16.7083740234375
6.3499999,6.931213855743408,-6.701370716094971,2.5115175247192383,-22.64404296875,2.74658203125,-11.3372802734375
6.369999900000001,7.2783732414245605,-6.71334171295166,2.454056739807129,-21.8505859375,4.058837890625,1.3275146484375
6.3899999,7.55131196975708,-6.72531270980835,2.3918075561523438,-22.5982666015625,-1.0223388671875,19.10400390625
6.409999900000001,7.60637903213501,-6.691793918609619,2.300827741622925,-23.37646484375,-2.74658203125,30.4107666015625
6.4299999,7.407660007476807,-6.62236213684082,2.190694570541382,-21.2249755859375,3.5552978515625,27.5726318359375
6.449999900000001,6.988674640655518,-6.5265936851501465,2.051830768585205,-18.2342529296875,10.7574462890625,15.5792236328125
6.4699999,6.48828649520874,-6.476315498352051,1.8914192914962769,-14.0380859375,10.19287109375,3.72314453125
6.489999900000001,6.076483726501465,-6.502651691436768,1.742978811264038,-9.9334716796875,4.94384765625,-2.9449462890625
6.5099999,5.882553577423096,-6.619967937469482,1.6711528301239014,-7.1258544921875,4.425048828125,-7.4615478515625
6.529999900000001,5.913678169250488,-6.785167694091797,1.659181833267212,-4.7454833984375,13.36669921875,-10.9405517578125
6.5499999,6.13633918762207,-6.962338447570801,1.7094600200653076,-3.41796875,16.8914794921875,-10.284423828125
6.569999900000001,6.402095317840576,-7.105990409851074,1.7477672100067139,-0.9613037109375,6.1187744140625,-3.8299560546875
6.5899999000000005,6.6391215324401855,-7.194576263427734,1.7621324062347412,1.129150390625,-12.26806640625,5.9661865234375
6.609999900000001,6.787561893463135,-7.206547260284424,1.7741034030914307,0.8392333984375,-23.5137939453125,14.190673828125
6.6299999000000005,6.847416877746582,-7.15387487411499,1.8052281141281128,-0.1678466796875,-20.4010009765625,17.2576904296875
6.649999900000001,6.825869083404541,-7.0557122230529785,1.8555063009262085,-1.3580322265625,-13.336181640625,18.98193359375
6.6699999000000005,6.734889507293701,-6.955155849456787,1.886630892753601,-3.021240234375,-11.077880859375,20.721435546875
6.6899999,6.57926607131958,-6.888118267059326,1.8579005002975464,-3.9825439453125,-13.7176513671875,22.3388671875
6.709999900000001,6.392518520355225,-6.864176273345947,1.766920804977417,-3.96728515625,-19.1192626953125,23.86474609375
6.7299999,6.205770969390869,-6.876147270202637,1.6376339197158813,-3.448486328125,-24.658203125,23.5748291015625
6.749999900000001,6.078877925872803,-6.921637058258057,1.5131354331970215,-2.74658203125,-26.7791748046875,20.3094482421875
6.7699999,6.033388137817383,-6.983886241912842,1.414973258972168,-2.227783203125,-23.5748291015625,17.242431640625
6.789999900000001,6.1052141189575195,-7.072471618652344,1.37906014919281,-2.8533935546875,-16.8609619140625,16.815185546875
6.8099999,6.251260757446289,-7.182605266571045,1.3694833517074585,-2.7618408203125,-7.9498291015625,17.39501953125
6.829999900000001,6.418854713439941,-7.309497833251953,1.381454348564148,-1.495361328125,-2.0294189453125,18.6767578125
6.8499999,6.560112476348877,-7.436390399932861,1.3742717504501343,0.0152587890625,-0.9918212890625,22.125244140625
6.869999900000001,6.643909931182861,-7.553706169128418,1.3670891523361206,0.640869140625,-1.4190673828125,27.2064208984375
6.8899999,6.641515731811523,-7.649474620819092,1.3503297567367554,1.1749267578125,2.3651123046875,32.9742431640625
6.909999900000001,6.538564682006836,-7.718906402587891,1.3407529592514038,2.8533935546875,6.3629150390625,37.3992919921875
6.9299999,6.311115741729736,-7.754819393157959,1.3239935636520386,5.92041015625,2.9754638671875,38.39111328125
6.949999900000001,5.990292549133301,-7.769184589385986,1.3000515699386597,10.55908203125,-7.1563720703125,36.529541015625
6.9699999,5.657498836517334,-7.778761386871338,1.292868971824646,14.068603515625,-15.2435302734375,33.1268310546875
6.989999900000001,5.398924827575684,-7.807491779327393,1.3287819623947144,15.07568359375,-12.664794921875,30.029296875
7.0099999,5.243301868438721,-7.8529815673828125,1.4101848602294922,15.80810546875,-3.3416748046875,27.9998779296875
7.029999900000001,5.188235282897949,-7.915230751037598,1.5107412338256836,18.218994140625,3.5247802734375,25.5889892578125
7.0499999,5.190629482269287,-7.975085735321045,1.599326729774475,20.9503173828125,5.18798828125,23.2696533203125
7.069999900000001,5.245696067810059,-8.037335395812988,1.6615760326385498,23.2696533203125,4.6234130859375,22.52197265625
7.0899999000000005,5.34625244140625,-8.097189903259277,1.7166426181793213,24.444580078125,5.157470703125,25.2685546875
7.109999900000001,5.480327606201172,-8.157045364379883,1.7812861204147339,24.932861328125,8.636474609375,31.5704345703125
7.1299999000000005,5.566518783569336,-8.209717750549316,1.8531121015548706,26.0772705078125,12.63427734375,39.4287109375
7.149999900000001,5.56173038482666,-8.238448143005371,1.9297266006469727,27.7252197265625,11.7340087890625,45.8526611328125
7.1699999000000005,5.4252610206604,-8.24084186553955,2.006340980529785,28.8848876953125,6.8817138671875,50.0030517578125
7.1899999,5.190629482269287,-8.221688270568848,2.094926595687866,29.47998046875,2.7618408203125,52.5970458984375
7.209999900000001,4.900930881500244,-8.185775756835938,2.209848165512085,29.0069580078125,2.0751953125,53.3905029296875
7.2299999,4.644751071929932,-8.149862289428711,2.343923568725586,27.9083251953125,2.6397705078125,53.3599853515625
7.249999900000001,4.4077253341674805,-8.152256965637207,2.4875755310058594,26.519775390625,-0.2288818359375,55.1605224609375
7.2699999,4.197035789489746,-8.17141056060791,2.63362193107605,24.84130859375,-4.4403076171875,59.38720703125
7.289999900000001,4.010287761688232,-8.214506149291992,2.782062292098999,23.25439453125,-4.45556640625,61.8133544921875
7.3099999,3.8714241981506348,-8.245630264282227,2.920926094055176,22.4151611328125,-1.129150390625,61.9659423828125
7.329999900000001,3.823540210723877,-8.288725852966309,3.0573954582214355,17.913818359375,0.48828125,64.3463134765625
7.3499999,3.7876269817352295,-8.339004516601562,3.157952070236206,13.458251953125,0.0457763671875,75.836181640625
7.369999900000001,3.737348794937134,-8.396465301513672,3.246537446975708,10.0555419921875,-0.091552734375,88.7908935546875
7.3899999,3.5721490383148193,-8.44434928894043,3.2992098331451416,6.5155029296875,4.21142578125,93.292236328125
7.409999900000001,3.2848446369171143,-8.489839553833008,3.339911460876465,2.5634765625,7.781982421875,94.024658203125
7.4299999,2.868253707885742,-8.513781547546387,3.3638534545898438,-2.1209716796875,6.6680908203125,97.8546142578125
7.449999900000001,2.360682964324951,-8.542511940002441,3.3638534545898438,-6.9427490234375,4.058837890625,99.3194580078125
7.4699999,1.7956513166427612,-8.592789649963379,3.35667085647583,-11.5814208984375,1.922607421875,93.56689453125
7.489999900000001,1.1755530834197998,-8.698134422302246,3.3207578659057617,-16.2811279296875,-0.79345703125,84.930419921875
7.5099999,0.5626373887062073,-8.808267593383789,3.2752678394317627,-18.8446044921875,-5.035400390625,74.27978515625
7.529999900000001,-0.002394201699644327,-8.956708908081055,3.2130186557769775,-20.5078125,-5.2032470703125,56.0760498046875
7.5499999,-0.4429273009300232,-9.141061782836914,3.1316158771514893,-21.9573974609375,-0.9613037109375,34.149169921875
7.569999900000001,-0.6967126727104187,-9.339780807495117,3.0310592651367188,-21.2554931640625,-0.518798828125,17.547607421875
7.5899999000000005,-0.7182605266571045,-9.586383819580078,2.889801502227783,-19.683837890625,-3.5858154296875,9.246826171875
7.609999900000001,-0.5339069962501526,-9.864110946655273,2.7317841053009033,-17.4560546875,-7.904052734375,7.354736328125
7.6299999000000005,-0.2298433631658554,-10.125079154968262,2.5737667083740234,-14.556884765625,-10.833740234375,11.138916015625
7.649999900000001,0.07661445438861847,-10.299856185913086,2.434903144836426,-11.04736328125,-11.1541748046875,16.2506103515625
7.6699999000000005,0.31124621629714966,-10.381258964538574,2.3295583724975586,-9.552001953125,-10.9100341796875,21.78955078125
7.6899999,0.40222588181495667,-10.350133895874023,2.255337953567505,-7.9193115234375,-11.444091796875,26.275634765625
7.709999900000001,0.33758243918418884,-10.230423927307129,2.205059766769409,-6.7291259765625,-10.101318359375,26.947021484375
7.7299999,0.14604631066322327,-10.079588890075684,2.169146776199341,-5.859375,-7.5225830078125,23.956298828125
7.749999900000001,-0.10773907601833344,-9.926360130310059,2.1547815799713135,-5.828857421875,-6.439208984375,20.263671875
7.7699999,-0.3495534360408783,-9.816226959228516,2.1523873805999756,-7.2479248046875,-5.6610107421875,16.41845703125
7.789999900000001,-0.5147533416748047,-9.758766174316406,2.166752576828003,-9.82666015625,-3.72314453125,12.7105712890625
7.8099999,-0.5961562395095825,-9.775525093078613,2.1954829692840576,-13.0615234375,-1.4495849609375,10.7574462890625
7.829999900000001,-0.6272808313369751,-9.84495735168457,2.255337953567505,-18.2342529296875,1.8157958984375,10.8795166015625
7.8499999,-0.6392518281936646,-9.923966407775879,2.322375535964966,-27.2216796875,8.758544921875,9.307861328125
7.869999900000001,-0.6631938815116882,-9.971850395202637,2.3798365592956543,-38.87939453125,17.63916015625,2.166748046875
7.8899999,-0.6871358752250671,-9.962273597717285,2.3965959548950195,-50.2471923828125,26.0467529296875,-7.87353515625
7.909999900000001,-0.7230489253997803,-9.911994934082031,2.31758713722229,-59.0667724609375,34.2559814453125,-17.7764892578125
7.9299999,-0.7565677165985107,-9.828198432922363,2.166752576828003,-68.0999755859375,42.4957275390625,-30.3497314453125
7.949999900000001,-0.7757213711738586,-9.770736694335938,1.9129672050476074,-77.94189453125,53.9093017578125,-47.2259521484375
7.9699999,-0.7398083209991455,-9.732429504394531,1.5969325304031372,-85.9832763671875,64.9871826171875,-63.9190673828125
7.989999900000001,-0.629675030708313,-9.72285270690918,1.216254472732544,-91.97998046875,73.2421875,-77.20947265625
8.0099999,-0.42616790533065796,-9.742006301879883,0.7661445140838623,-94.8333740234375,79.4677734375,-87.6617431640625
8.0299999,-0.15322890877723694,-9.792284965515137,0.272938996553421,-92.8802490234375,77.5909423828125,-95.2911376953125
8.049999900000001,0.15562310814857483,-9.852140426635742,-0.23942017555236816,-86.5020751953125,67.2149658203125,-97.991943359375
8.069999900000001,0.524330198764801,-9.904812812805176,-0.7134721279144287,-77.57568359375,52.215576171875,-96.6339111328125
8.0899999,0.9457096457481384,-9.952696800231934,-1.0965443849563599,-67.7947998046875,40.1153564453125,-94.4061279296875
8.1099999,1.4053963422775269,-9.976638793945312,-1.3551181554794312,-57.06787109375,33.6761474609375,-89.569091796875
8.129999900000001,1.9033904075622559,-9.96945571899414,-1.5083470344543457,-47.210693359375,28.0303955078125,-81.329345703125
8.149999900000001,2.43011474609375,-9.93354320526123,-1.556231141090393,-37.53662109375,22.8729248046875,-72.7081298828125
8.1699999,3.043030261993408,-9.770736694335938,-1.3263877630233765,-28.9459228515625,31.280517578125,-64.483642578125
8.1899999,3.620033025741577,-9.550470352172852,-1.091755986213684,-39.5355224609375,59.14306640625,-53.619384765625
8.2099999,4.003105163574219,-9.23443603515625,-0.7996633648872375,-57.342529296875,72.8302001953125,-38.1622314453125
8.229999900000001,4.146757125854492,-9.026140213012695,-0.7493851184844971,-60.791015625,49.102783203125,-29.9072265625
8.2499999,4.02465295791626,-8.880094528198242,-0.9528923034667969,-53.8330078125,11.9171142578125,-25.7110595703125
8.2699999,3.797203779220581,-8.9064302444458,-1.3646949529647827,-42.5262451171875,-5.4473876953125,-21.4080810546875
8.2899999,3.691859006881714,-8.901641845703125,-1.7477672100067139,-30.242919921875,-3.753662109375,-17.9901123046875
8.309999900000001,3.7229835987091064,-8.992621421813965,-2.10210919380188,-17.2576904296875,8.514404296875,-18.6309814453125
8.3299999,3.88818359375,-9.078812599182129,-2.3726539611816406,-3.35693359375,13.7176513671875,-18.1732177734375
8.3499999,4.01268196105957,-9.14345645904541,-2.564189910888672,10.467529296875,10.986328125,-12.8936767578125
8.3699999,4.079719543457031,-9.165003776550293,-2.7269957065582275,23.1170654296875,4.8370361328125,-7.080078125
8.389999900000001,4.019864559173584,-9.057265281677246,-2.7269957065582275,32.806396484375,-10.7574462890625,-4.7607421875
8.4099999,3.9624037742614746,-8.858546257019043,-2.604891538619995,38.7115478515625,-27.5726318359375,-3.8299560546875
8.4299999,3.931279182434082,-8.640673637390137,-2.3104045391082764,41.0003662109375,-29.327392578125,-2.471923828125
8.4499999,3.993528366088867,-8.485051155090332,-1.941697597503662,39.6575927734375,-16.2353515625,-2.6092529296875
8.469999900000001,4.098873138427734,-8.413225173950195,-1.5945383310317993,36.468505859375,-5.37109375,-3.021240234375
8.4899999,4.125209331512451,-8.398859977722168,-1.3239935636520386,32.318115234375,-8.6212158203125,1.46484375
8.5099999,4.082113742828369,-8.422801971435547,-1.139639973640442,26.7791748046875,-20.69091796875,9.70458984375
8.5299999,3.993528366088867,-8.453926086425781,-1.0414776802062988,20.8587646484375,-26.458740234375,13.18359375
8.549999900000001,3.88818359375,-8.468291282653809,-0.912190854549408,14.068603515625,-18.585205078125,9.8724365234375
8.569999900000001,3.8594532012939453,-8.485051155090332,-0.8619126081466675,6.439208984375,-6.9580078125,6.77490234375
8.5899999,3.861847400665283,-8.549694061279297,-0.849941611289978,0.1220703125,-5.7830810546875,8.6212158203125
8.6099999,3.861847400665283,-8.69334602355957,-0.9241618514060974,-4.21142578125,-13.1683349609375,13.1378173828125
8.629999900000001,3.845088005065918,-8.904036521911621,-1.0654197931289673,-5.4931640625,-16.6015625,14.3585205078125
8.649999900000001,3.77565598487854,-9.08838939666748,-1.2090718746185303,-4.9896240234375,-13.031005859375,11.688232421875
8.6699999,3.670311212539673,-9.23443603515625,-1.359906554222107,-2.2735595703125,-8.392333984375,8.7432861328125
8.6899999,3.5745432376861572,-9.41639518737793,-1.5179238319396973,4.08935546875,-8.97216796875,8.1329345703125
8.709999900000001,3.4835634231567383,-9.481039047241211,-1.6903064250946045,11.65771484375,-18.2647705078125,10.498046875
8.729999900000001,3.3518824577331543,-9.9000244140625,-2.9281086921691895,28.62548828125,-24.322509765625,12.1307373046875
8.7499999,3.3016040325164795,-10.02691650390625,-3.442862033843994,69.061279296875,-29.0985107421875,12.0849609375
8.7699999,3.246537446975708,-10.20887565612793,-4.367023944854736,94.451904296875,-31.3720703125,13.275146484375
8.7899999,3.2417490482330322,-10.08437728881836,-4.180276393890381,96.86279296875,-33.966064453125,16.7694091796875
8.809999900000001,3.2992098331451416,-9.744400978088379,-3.227383852005005,89.1876220703125,-35.369873046875,18.6309814453125
8.8299999,3.359065055847168,-9.35893440246582,-1.9512743949890137,78.3843994140625,-27.7557373046875,17.1966552734375
8.8499999,3.3854012489318848,-9.01895809173584,-0.727837324142456,68.2525634765625,-15.4266357421875,14.129638671875
8.8699999,3.3446998596191406,-8.796297073364258,0.2059013396501541,59.234619140625,-9.7503662109375,11.383056640625
8.889999900000001,3.2393548488616943,-8.722076416015625,0.7829039692878723,51.8341064453125,-11.566162109375,9.7503662109375
8.9099999,3.0885202884674072,-8.755595207214355,1.0534487962722778,45.5780029296875,-13.3209228515625,8.819580078125
8.9299999,2.937685489654541,-8.863334655761719,1.1324573755264282,38.0706787109375,-12.7105712890625,7.3394775390625
8.9499999,2.832340717315674,-8.990227699279785,1.139639973640442,30.94482421875,-12.8021240234375,6.072998046875
8.969999900000001,2.779668092727661,-9.107542991638184,1.1300631761550903,24.444580078125,-12.87841796875,6.2408447265625
8.9899999,2.779668092727661,-9.20091724395752,1.1348515748977661,18.341064453125,-11.0321044921875,6.805419921875
9.0099999,2.806004285812378,-9.275136947631836,1.1420341730117798,14.4195556640625,-8.4075927734375,7.01904296875
9.0299999,2.8395233154296875,-9.330204010009766,1.1563993692398071,12.6800537109375,-7.293701171875,6.744384765625
9.049999900000001,2.849100112915039,-9.370905876159668,1.161187767982483,11.199951171875,-6.7138671875,6.04248046875
9.069999900000001,2.827552318572998,-9.402029991149902,1.158793568611145,9.368896484375,-6.4697265625,5.4473876953125
9.0899999,2.784456491470337,-9.428366661071777,1.1516109704971313,7.75146484375,-7.14111328125,4.2877197265625
9.1099999,2.738966703414917,-9.457097053527832,1.1324573755264282,6.744384765625,-7.110595703125,2.2430419921875
9.129999900000001,2.7078421115875244,-9.490615844726562,1.0989385843276978,7.080078125,-6.16455078125,0.5035400390625
9.149999900000001,2.7054479122161865,-9.531316757202148,1.0534487962722778,8.6822509765625,-6.0577392578125,-0.2593994140625
9.1699999,2.717418909072876,-9.57441234588623,1.0055646896362305,10.7269287109375,-7.2021484375,-0.274658203125
9.1899999,2.7293899059295654,-9.605537414550781,0.9576807022094727,12.8936767578125,-9.063720703125,-0.579833984375
9.209999900000001,2.734178304672241,-9.619902610778809,0.9289502501487732,15.625,-10.3912353515625,-1.6021728515625
9.229999900000001,2.741360902786255,-9.615114212036133,0.9169792532920837,18.4326171875,-10.6048583984375,-2.4261474609375
9.2499999,2.7485435009002686,-9.591172218322754,0.9265560507774353,21.942138671875,-10.25390625,-2.0294189453125
9.2699999,2.7724854946136475,-9.543288230895996,0.9576807022094727,26.3214111328125,-10.284423828125,-1.03759765625
9.2899999,2.8203697204589844,-9.48343276977539,1.01753568649292,28.7322998046875,-10.162353515625,-1.708984375
9.309999900000001,2.875436305999756,-9.423578262329102,1.091755986213684,30.6396484375,-8.5296630859375,-1.3427734375
9.3299999,2.9233202934265137,-9.370905876159668,1.1803414821624756,32.5469970703125,-7.38525390625,0.4119873046875
9.3499999,2.9520506858825684,-9.344569206237793,1.2856862545013428,34.8052978515625,-6.7138671875,1.3580322265625
9.3699999,2.9472622871398926,-9.337387084960938,1.3934253454208374,36.8499755859375,-4.8370361328125,1.15966796875
9.389999900000001,2.920926094055176,-9.342175483703613,1.5059528350830078,38.2537841796875,-2.9449462890625,0.5340576171875
9.4099999,2.8850131034851074,-9.344569206237793,1.6208745241165161,39.9322509765625,-2.8228759765625,-0.091552734375
9.4299999,2.8443117141723633,-9.344569206237793,1.7334020137786865,42.4041748046875,-4.425048828125,-0.823974609375
9.4499999,2.808398485183716,-9.332598686218262,1.8602946996688843,44.769287109375,-5.9051513671875,-1.8768310546875
9.469999900000001,2.779668092727661,-9.308655738830566,1.9967641830444336,46.3104248046875,-6.28662109375,-2.899169921875
9.4899999,2.765302896499634,-9.258378028869629,2.1523873805999756,46.8597412109375,-7.7056884765625,-3.6468505859375
9.5099999,2.7724854946136475,-9.196128845214844,2.31758713722229,47.332763671875,-9.9029541015625,-4.1961669921875
9.5299999,2.806004285812378,-9.121908187866211,2.4899697303771973,47.3480224609375,-9.5367431640625,-4.4097900390625
9.549999900000001,2.8586769104003906,-9.042900085449219,2.6599581241607666,46.5545654296875,-6.0272216796875,-4.0435791015625
9.569999900000001,2.9257144927978516,-8.96149730682373,2.829946517944336,45.7763671875,-2.9754638671875,-3.6773681640625
9.5899999,2.9975404739379883,-8.87051773071289,2.999934673309326,44.6624755859375,-0.4425048828125,-4.1961669921875
9.6099999,3.047818660736084,-8.769960403442383,3.160346269607544,42.205810546875,3.41796875,-5.4473876953125
9.629999900000001,3.0765492916107178,-8.669404029846191,3.2968156337738037,39.581298828125,5.523681640625,-6.7596435546875
9.649999900000001,3.090914487838745,-8.585607528686523,3.421314239501953,38.9404296875,3.8299560546875,-7.232666015625
9.6699999,3.1004912853240967,-8.528146743774414,3.531447410583496,38.818359375,2.3651123046875,-6.7291259765625
9.6899999,3.098097085952759,-8.487444877624512,3.643975019454956,37.933349609375,4.69970703125,-5.31005859375
9.709999900000001,3.093308687210083,-8.446743965148926,3.758896589279175,36.9110107421875,7.38525390625,-4.241943359375
9.729999900000001,3.07415509223938,-8.396465301513672,3.8786067962646484,37.0330810546875,7.4310302734375,-4.7149658203125
9.7499999,3.045424461364746,-8.341399192810059,3.9863457679748535,37.2161865234375,7.32421875,-5.828857421875
9.7699999,3.021482467651367,-8.293514251708984,4.089296340942383,37.4908447265625,8.2244873046875,-6.0882568359375
9.7899999,3.0166940689086914,-8.259995460510254,4.194641590118408,38.14697265625,8.4075927734375,-6.134033203125
9.809999900000001,3.0358476638793945,-8.2312650680542,4.299986362457275,38.5894775390625,8.3770751953125,-6.3323974609375
9.8299999,3.0597896575927734,-8.200140953063965,4.398148536682129,39.9169921875,8.026123046875,-6.28662109375
9.8499999,3.0789434909820557,-8.159439086914062,4.49870491027832,41.656494140625,6.77490234375,-6.0882568359375
9.8699999,3.0885202884674072,-8.11634349822998,4.6040496826171875,44.25048828125,6.3323974609375,-5.218505859375
9.889999900000001,3.0837318897247314,-8.061277389526367,4.716577529907227,46.478271484375,7.0037841796875,-4.5623779296875
9.9099999,3.07415509223938,-7.989450931549072,4.841075897216797,48.492431640625,6.256103515625,-4.425048828125
9.9299999,3.0813376903533936,-7.8960771560668945,4.982333660125732,50.3082275390625,4.364013671875,-3.9215087890625
9.9499999,3.098097085952759,-7.781155586242676,5.125985622406006,50.6439208984375,3.997802734375,-3.7841796875
9.969999900000001,3.1220390796661377,-7.6566572189331055,5.284003257751465,50.4302978515625,4.39453125,-3.692626953125
9.9899999,3.1459810733795166,-7.532158374786377,5.453991413116455,50.78125,5.3558349609375,-3.5858154296875
10.0099999,3.1507694721221924,-7.407660007476807,5.623979568481445,50.079345703125,7.5531005859375,-3.8299560546875
10.0299999,3.0885202884674072,-7.12035608291626,5.9304375648498535,45.47119140625,9.3841552734375,-4.9591064453125
10.049999900000001,3.0310592651367188,-6.955155849456787,6.057330131530762,45.7611083984375,6.4239501953125,-5.2947998046875
10.069999900000001,2.9903578758239746,-6.8043212890625,6.179434776306152,45.5322265625,3.8299560546875,-5.4931640625
10.0899999,2.978386878967285,-6.677428722381592,6.301538944244385,44.921875,1.9989013671875,-5.3863525390625
10.1099999,3.0095114707946777,-6.5696892738342285,6.4380083084106445,43.1671142578125,0.2288818359375,-4.4403076171875
10.129999900000001,3.0813376903533936,-6.490680694580078,6.5912370681762695,40.52734375,-0.3814697265625,-2.7923583984375
10.149999900000001,3.1483752727508545,-6.423643112182617,6.751648902893066,35.980224609375,1.922607421875,-0.30517578125
10.1699999,3.1866824626922607,-6.358999729156494,6.909666061401367,30.57861328125,3.9520263671875,1.861572265625
10.1899999,3.179499864578247,-6.277596950531006,7.062894821166992,26.153564453125,4.2572021484375,1.983642578125
10.209999900000001,3.1268274784088135,-6.186617374420166,7.223306655883789,21.575927734375,5.4931640625,-0.3814697265625
10.229999900000001,3.050212860107422,-6.078877925872803,7.3885064125061035,14.068603515625,8.0108642578125,-3.173828125
10.2499999,2.9759926795959473,-5.978321552276611,7.565677165985107,5.279541015625,6.561279296875,-4.2724609375
10.2699999,2.9328970909118652,-5.906495571136475,7.73087739944458,-2.86865234375,2.5482177734375,-4.2877197265625
10.2899999,2.9328970909118652,-5.870582580566406,7.845798969268799,-12.2222900390625,2.532958984375,-3.9215087890625
10.309999900000001,2.9664158821105957,-5.880159378051758,7.891288757324219,-20.050048828125,3.265380859375,-5.0506591796875
10.3299999,3.028665065765381,-5.925649166107178,7.841010570526123,-26.06201171875,5.8135986328125,-5.401611328125
10.3499999,3.0813376903533936,-5.999869346618652,7.704541206359863,-29.0069580078125,8.3465576171875,-4.9896240234375
10.3699999,3.1100680828094482,-6.095637321472168,7.491456985473633,-28.5491943359375,9.246826171875,-4.974365234375
10.389999900000001,3.1028854846954346,-6.205770969390869,7.232883453369141,-26.8096923828125,8.697509765625,-5.096435546875
10.4099999,3.07415509223938,-6.323086738586426,6.962338447570801,-23.8800048828125,5.7373046875,-4.08935546875
10.4299999,3.0382418632507324,-6.435614109039307,6.72531270980835,-20.233154296875,1.52587890625,-2.6092529296875
10.4499999,3.0166940689086914,-6.5265936851501465,6.540958881378174,-15.5487060546875,-0.5950927734375,-1.708984375
10.469999900000001,3.0095114707946777,-6.5912370681762695,6.418854713439941,-11.29150390625,-0.8697509765625,-1.5411376953125
10.4899999,3.0190882682800293,-6.62236213684082,6.349422931671143,-7.4920654296875,-3.3721923828125,-1.0833740234375
10.5099999,3.0526070594787598,-6.63433313369751,6.31829833984375,-3.60107421875,-7.4920654296875,0.1678466796875
10.5299999,3.1004912853240967,-6.631938934326172,6.325480937957764,-0.4425048828125,-8.636474609375,1.8310546875
10.549999900000001,3.157952070236206,-6.6127848625183105,6.3518171310424805,1.15966796875,-5.859375,2.3651123046875
10.569999900000001,3.201047658920288,-6.588842868804932,6.390124320983887,2.0599365234375,-4.21142578125,1.4190673828125
10.5899999,3.227383852005005,-6.552929878234863,6.418854713439941,2.86865234375,-4.852294921875,0.9765625
10.6099999,3.227383852005005,-6.524199485778809,6.4380083084106445,3.143310546875,-5.4473876953125,1.28173828125
10.629999900000001,3.205836057662964,-6.5050458908081055,6.452373504638672,2.9144287109375,-4.6539306640625,1.2969970703125
10.649999900000001,3.1747114658355713,-6.495469093322754,6.466738700866699,2.38037109375,-3.2501220703125,1.3885498046875
10.6699999,3.136404275894165,-6.502651691436768,6.493074893951416,1.40380859375,-3.5400390625,1.6632080078125
10.6899999,3.093308687210083,-6.5265936851501465,6.536170482635498,-0.1068115234375,-3.3416748046875,2.227783203125
10.709999900000001,3.028665065765381,-6.586448669433594,6.615179061889648,-2.166748046875,-1.8157958984375,2.0599365234375
10.729999900000001,2.8610711097717285,-6.670246124267578,6.72531270980835,-4.5623779296875,-3.631591796875,-0.30517578125
10.7499999,2.58813214302063,-6.787561893463135,6.933608055114746,-7.354736328125,-11.993408203125,-8.11767578125
10.7699999,2.2194249629974365,-6.88332986831665,7.2113356590271,-12.9241943359375,-16.0675048828125,-22.216796875
10.7899999,1.843535304069519,-6.97430944442749,7.544129371643066,-19.7906494140625,-15.2130126953125,-41.3818359375
10.809999900000001,1.5753847360610962,-7.017405033111572,7.8529815673828125,-28.594970703125,-18.0206298828125,-62.8509521484375
10.8299999,1.50355863571167,-7.036558628082275,8.04691219329834,-38.360595703125,-25.08544921875,-84.7015380859375
10.8499999,1.6903064250946045,-7.050923824310303,8.070854187011719,-47.5311279296875,-34.0576171875,-102.386474609375
10.8699999,2.1571757793426514,-7.084442615509033,7.934384346008301,-56.732177734375,-41.68701171875,-109.7259521484375
10.889999900000001,2.8419175148010254,-7.146692276000977,7.654263019561768,-65.765380859375,-46.2188720703125,-107.36083984375
10.9099999,3.622427225112915,-7.206547260284424,7.252037048339844,-72.1893310546875,-50.5218505859375,-98.7396240234375
10.9299999,4.357447147369385,-7.259219646453857,6.737283706665039,-74.0814208984375,-56.9610595703125,-85.99853515625
10.9499999,4.912901878356934,-7.2113356590271,6.169857978820801,-79.0863037109375,-65.2923583984375,-79.833984375
10.969999900000001,5.2911858558654785,-7.12035608291626,5.556941986083984,-82.0159912109375,-66.58935546875,-76.9805908203125
10.9899999,5.501875400543213,-6.936002254486084,4.970362663269043,-87.738037109375,-60.455322265625,-78.521728515625
11.0099999,5.635950565338135,-6.737283706665039,4.431667327880859,-88.775634765625,-55.023193359375,-82.427978515625
11.0299999,5.758055210113525,-6.5265936851501465,3.936067581176758,-85.5865478515625,-49.9725341796875,-85.7696533203125
11.049999900000001,5.925649166107178,-6.335057735443115,3.4739866256713867,-80.5206298828125,-44.9371337890625,-87.677001953125
11.069999900000001,6.169857978820801,-6.179434776306152,3.047818660736084,-73.089599609375,-41.290283203125,-88.6383056640625
11.0899999,6.481103897094727,-6.023811340332031,2.6455929279327393,-63.7664794921875,-36.7889404296875,-87.9364013671875
11.1099999,6.845022678375244,-5.834669589996338,2.2697031497955322,-53.6041259765625,-32.65380859375,-86.0748291015625
11.129999900000001,7.240066051483154,-5.612008571624756,1.9249382019042969,-43.4112548828125,-31.25,-83.709716796875
11.149999900000001,7.599195957183838,-5.336675643920898,1.6160861253738403,-33.050537109375,-30.4718017578125,-78.826904296875
11.1699999,7.929595947265625,-5.032611846923828,1.3551181554794312,-22.125244140625,-27.28271484375,-71.9757080078125
11.1899999,8.188169479370117,-4.726154327392578,1.1635819673538208,-11.9171142578125,-22.3846435546875,-67.3065185546875
11.209999900000001,8.40843677520752,-4.422090530395508,1.0271124839782715,-2.8839111328125,-17.822265625,-62.43896484375
11.229999900000001,8.56884765625,-4.137180328369141,0.9457096457481384,5.2032470703125,-16.66259765625,-53.6956787109375
11.2499999,8.671798706054688,-3.8594532012939453,0.8930372595787048,12.0849609375,-18.157958984375,-42.1600341796875
11.2699999,8.729259490966797,-3.5936968326568604,0.871489405632019,17.3797607421875,-19.5770263671875,-33.2794189453125
11.2899999,8.760383605957031,-3.3303346633911133,0.8762778043746948,20.721435546875,-18.218994140625,-28.7628173828125
11.309999900000001,8.80587387084961,-3.1028854846954346,0.9050082564353943,23.162841796875,-13.9617919921875,-25.848388671875
11.3299999,8.882488250732422,-2.937685489654541,0.9624691009521484,25.3448486328125,-6.8359375,-21.4385986328125
11.3499999,8.951920509338379,-2.8562827110290527,1.0271124839782715,26.7333984375,2.01416015625,-15.777587890625
11.3699999,8.992621421813965,-2.832340717315674,1.1037269830703735,27.7557373046875,6.8511962890625,-11.444091796875
11.389999900000001,8.937555313110352,-2.8131868839263916,1.1683704853057861,28.3660888671875,6.5460205078125,-8.5296630859375
11.4099999,8.815450668334961,-2.7557260990142822,1.2234370708465576,28.533935546875,0.5340576171875,-6.500244140625
11.4299999,8.62391471862793,-2.674323320388794,1.2761094570159912,27.2674560546875,-10.528564453125,-4.94384765625
11.4499999,8.485051155090332,-2.631227731704712,1.4197616577148438,23.4222412109375,-26.7791748046875,1.9989013671875
11.469999900000001,8.518569946289062,-2.609679937362671,1.8267759084701538,15.167236328125,-47.2259521484375,16.8914794921875
11.4899999,8.777143478393555,-2.5450363159179688,2.559401512145996,-15.2435302734375,-37.9180908203125,29.327392578125
11.5099999,9.095572471618652,-2.4827871322631836,3.179499864578247,-59.6771240234375,-5.218505859375,32.89794921875
11.5299999,9.315838813781738,-2.5306711196899414,3.663128614425659,-78.1402587890625,-0.518798828125,35.94970703125
11.549999900000001,9.23682975769043,-2.75812029838562,3.490746021270752,-78.4454345703125,-8.636474609375,36.31591796875
11.569999900000001,8.987833023071289,-3.354276657104492,2.7892448902130127,-64.51416015625,-8.6517333984375,23.8037109375
11.5899999,8.607154846191406,-4.242525577545166,1.680729627609253,-29.9072265625,8.9874267578125,3.5247802734375
11.6099999,8.329427719116211,-5.185841083526611,0.629675030708313,18.00537109375,21.9573974609375,-10.284423828125
11.629999900000001,8.145073890686035,-5.9304375648498535,-0.24899697303771973,47.9888916015625,16.2353515625,-12.7410888671875
11.649999900000001,8.022970199584961,-6.282385349273682,-0.6248866319656372,64.117431640625,-1.2969970703125,-11.4593505859375
11.6699999,7.994239330291748,-6.1267619132995605,-0.5147533416748047,67.5811767578125,-15.7623291015625,-13.2904052734375
11.6899999,8.030152320861816,-5.578489780426025,-0.06703764945268631,64.7735595703125,-19.9432373046875,-15.380859375
11.709999900000001,8.145073890686035,-4.857835292816162,0.5482721924781799,59.356689453125,-20.233154296875,-14.7552490234375
11.729999900000001,8.291120529174805,-4.158728122711182,1.1492167711257935,51.300048828125,-17.547607421875,-12.664794921875
11.7499999,8.456320762634277,-3.5889084339141846,1.623268723487854,40.6341552734375,-11.71875,-11.199951171875
11.7699999,8.614337921142578,-3.2082302570343018,1.944091796875,28.7017822265625,-2.8076171875,-12.26806640625
11.7899999,8.755595207214355,-3.021482467651367,2.1068975925445557,17.1051025390625,7.1563720703125,-13.031005859375
11.809999900000001,8.87291145324707,-3.0119056701660156,2.1523873805999756,7.3089599609375,12.7410888671875,-9.979248046875
11.8299999,8.975862503051758,-3.1268274784088135,2.1356279850006104,-1.0986328125,11.3677978515625,-3.6468505859375
11.8499999,9.035717010498047,-3.308786630630493,2.1068975925445557,-9.2620849609375,10.2386474609375,1.7547607421875
11.8699999,9.050082206726074,-3.4835634231567383,2.0805611610412598,-16.387939453125,11.6729736328125,5.31005859375
11.889999900000001,9.030928611755371,-3.6296098232269287,2.078166961669922,-21.42333984375,9.8876953125,8.636474609375
11.9099999,8.966285705566406,-3.737348794937134,2.0685901641845703,-24.4598388671875,5.0506591796875,12.115478515625
11.9299999,8.882488250732422,-3.8067808151245117,2.051830768585205,-26.2603759765625,0.335693359375,14.5416259765625
11.9499999,8.78432559967041,-3.8522706031799316,2.0207061767578125,-27.4505615234375,-1.8463134765625,14.862060546875
11.969999900000001,8.698134422302246,-3.890577793121338,1.9776105880737305,-27.28271484375,-2.288818359375,13.97705078125
11.9899999,8.628703117370605,-3.9480385780334473,1.9249382019042969,-25.726318359375,-2.6397705078125,13.8702392578125
12.0099999,8.578424453735352,-4.036623954772949,1.867477297782898,-23.3154296875,-1.4801025390625,14.5111083984375
12.0299999,8.53532886505127,-4.14915132522583,1.7956513166427612,-20.111083984375,1.0833740234375,14.312744140625
12.049999900000001,8.494627952575684,-4.264073371887207,1.7094600200653076,-15.8843994140625,2.3956298828125,13.0462646484375
12.069999900000001,8.437167167663574,-4.376600742340088,1.6065093278884888,-10.8184814453125,1.2054443359375,11.4288330078125
12.0899999,8.38449478149414,-4.474762916564941,1.4939818382263184,-6.072998046875,-2.227783203125,10.4217529296875
12.1099999,8.339004516601562,-4.563348293304443,1.3934253454208374,-1.7852783203125,-6.53076171875,9.8876953125
12.129999900000001,8.317456245422363,-4.632780075073242,1.3048399686813354,2.0599365234375,-9.4146728515625,9.2926025390625
12.149999900000001,8.329427719116211,-4.683058738708496,1.2497732639312744,5.4931640625,-11.016845703125,8.2550048828125
12.1699999,8.372523307800293,-4.714183330535889,1.2330138683319092,7.8887939453125,-11.16943359375,7.4462890625
12.1899999,8.422801971435547,-4.726154327392578,1.2425906658172607,8.7127685546875,-8.758544921875,7.598876953125
12.209999900000001,8.463502883911133,-4.721365928649902,1.2737152576446533,8.2855224609375,-6.5460205078125,7.8277587890625
12.229999900000001,8.47786808013916,-4.702212333679199,1.3024457693099976,6.9580078125,-5.18798828125,7.0953369140625
12.2499999,8.470685958862305,-4.671087741851807,1.3192051649093628,5.401611328125,-4.2877197265625,6.2713623046875
12.2699999,8.453926086425781,-4.644751071929932,1.3215993642807007,3.8604736328125,-2.5787353515625,5.67626953125
12.289999900000002,8.432378768920898,-4.639962673187256,1.3192051649093628,2.0751953125,0.091552734375,5.43212890625
12.309999900000001,8.40843677520752,-4.661510944366455,1.314416766166687,0.1678466796875,1.800537109375,5.9051513671875
12.3299999,8.382100105285645,-4.702212333679199,1.3120225667953491,-1.4190673828125,2.3040771484375,6.439208984375
12.3499999,8.355764389038086,-4.752490520477295,1.3096283674240112,-2.4566650390625,2.3345947265625,6.0882568359375
12.3699999,8.341399192810059,-4.795586109161377,1.3120225667953491,-3.387451171875,3.41796875,4.9591064453125
12.389999900000001,8.334216117858887,-4.8267107009887695,1.3192051649093628,-4.1351318359375,6.5460205078125,3.997802734375
12.4099999,8.324639320373535,-4.843470096588135,1.3192051649093628,-4.4403076171875,8.9569091796875,3.23486328125
12.4299999,8.305485725402832,-4.8602294921875,1.3215993642807007,-3.9825439453125,7.7667236328125,2.044677734375
12.4499999,8.288725852966309,-4.879383087158203,1.3239935636520386,-2.99072265625,6.134033203125,1.2969970703125
12.469999900000001,8.274360656738281,-4.900930881500244,1.3287819623947144,-1.8157958984375,7.1868896484375,1.373291015625
12.4899999,8.269572257995605,-4.920084476470947,1.3479355573654175,-0.4730224609375,8.97216796875,1.5106201171875
12.5099999,8.26239013671875,-4.927267074584961,1.3694833517074585,0.640869140625,9.46044921875,1.007080078125
12.5299999,8.248024940490723,-4.920084476470947,1.3934253454208374,1.40380859375,8.4991455078125,-0.1068115234375
12.549999900000001,8.238448143005371,-4.898536682128906,1.414973258972168,2.2735595703125,7.4462890625,-1.220703125
12.569999900000001,8.24084186553955,-4.876988887786865,1.4460978507995605,3.448486328125,6.89697265625,-1.708984375
12.5899999,8.257601737976074,-4.862623691558838,1.4844050407409668,4.57763671875,6.9732666015625,-1.617431640625
12.6099999,8.276755332946777,-4.850652694702148,1.5298948287963867,5.3253173828125,7.0037841796875,-1.312255859375
12.629999900000001,8.29590892791748,-4.833893299102783,1.5825673341751099,5.859375,6.805419921875,-1.52587890625
12.649999900000001,8.300697326660156,-4.809951305389404,1.6424223184585571,6.4239501953125,7.080078125,-2.288818359375
12.6699999,8.274360656738281,-4.759673118591309,1.7094600200653076,6.6070556640625,8.270263671875,-3.0670166015625
12.6899999,8.188169479370117,-4.663905143737793,1.7597382068634033,5.8135986328125,6.8817138671875,-3.11279296875
12.709999900000001,8.092401504516602,-4.577713489532471,1.8124107122421265,3.662109375,-5.767822265625,-0.8087158203125
12.729999900000001,8.097189903259277,-4.51067590713501,1.9560627937316895,-0.91552734375,-29.7698974609375,6.7596435546875
12.7499999,8.346187591552734,-4.228160381317139,2.5282769203186035,-16.754150390625,-24.96337890625,17.852783203125
12.7699999,8.62630844116211,-4.043806552886963,2.956839084625244,-58.441162109375,24.71923828125,21.2554931640625
12.789999900000002,8.856152534484863,-3.801992416381836,3.464409828186035,-93.017578125,37.628173828125,20.8282470703125
12.809999900000001,8.856152534484863,-3.73016619682312,3.4189200401306152,-105.3466796875,11.7950439453125,22.52197265625
12.8299999,8.56645393371582,-4.027047157287598,2.875436305999756,-101.1199951171875,-7.26318359375,20.7977294921875
12.8499999,8.212111473083496,-4.489128112792969,1.9919757843017578,-90.179443359375,-12.4969482421875,16.9525146484375
12.8699999,7.922413349151611,-5.135562419891357,1.0558429956436157,-69.4122314453125,-8.941650390625,9.6588134765625
12.889999900000001,7.759607791900635,-5.70777702331543,0.2106897532939911,-43.3349609375,-3.35693359375,2.5787353515625
12.9099999,7.694964408874512,-6.2392897605896,-0.4405331015586853,-18.3258056640625,-7.2479248046875,1.77001953125
12.9299999,7.738059997558594,-6.555324077606201,-0.8092401623725891,3.7384033203125,-17.1661376953125,3.1280517578125
12.9499999,7.7883381843566895,-6.66785192489624,-0.9768342971801758,23.3154296875,-16.2353515625,-1.0986328125
12.969999900000001,7.805097579956055,-6.5696892738342285,-0.8906430602073669,38.4063720703125,-9.5672607421875,-7.4462890625
12.9899999,7.785943984985352,-6.260837554931641,-0.7086837291717529,48.2940673828125,-15.5792236328125,-9.185791015625
13.0099999,7.800309181213379,-5.832275390625,-0.35434186458587646,52.5970458984375,-25.6195068359375,-9.3231201171875
13.0299999,7.886500358581543,-5.442020416259766,0.016759412363171577,51.1474609375,-20.416259765625,-12.420654296875
13.049999900000001,8.044517517089844,-5.114014625549316,0.4141969084739685,44.891357421875,-3.35693359375,-14.1143798828125
13.069999900000001,8.226476669311523,-4.920084476470947,0.7829039692878723,36.1785888671875,1.8768310546875,-10.6201171875
13.0899999,8.348581314086914,-4.833893299102783,1.0247182846069336,26.214599609375,-6.5765380859375,-6.1492919921875
13.1099999,8.406042098999023,-4.786009311676025,1.2186486721038818,16.326904296875,-13.336181640625,-2.6702880859375
13.129999900000001,8.413225173950195,-4.754884719848633,1.3335703611373901,6.5765380859375,-10.80322265625,0.152587890625
13.149999900000001,8.406042098999023,-4.699818134307861,1.357512354850769,-3.0975341796875,-2.044677734375,0.6866455078125
13.1699999,8.401253700256348,-4.671087741851807,1.3862427473068237,-10.7269287109375,6.256103515625,-0.91552734375
13.1899999,8.372523307800293,-4.721365928649902,1.2832920551300049,-14.678955078125,11.5966796875,-1.2664794921875
13.209999900000001,8.346187591552734,-4.888959884643555,1.1228805780410767,-13.8702392578125,11.138916015625,-0.8087158203125
13.229999900000001,8.315062522888184,-5.147533416748047,0.8786720037460327,-9.2315673828125,7.8887939453125,-1.4190673828125
13.2499999,8.22887134552002,-5.382165431976318,0.524330198764801,-1.4190673828125,7.50732421875,-2.2735595703125
13.2699999,8.08043098449707,-5.74129581451416,0.0694318488240242,22.1710205078125,3.0517578125,-4.0435791015625
13.289999900000002,7.975085735321045,-5.837063789367676,-0.272938996553421,58.6090087890625,-6.8359375,-7.965087890625
13.309999900000001,7.872135162353516,-5.899312973022461,-0.4213795065879822,77.484130859375,-6.0882568359375,-11.0015869140625
13.3299999,7.884106159210205,-5.693411827087402,-0.24899697303771973,77.08740234375,0.274658203125,-13.4735107421875
13.3499999,7.970297336578369,-5.298368453979492,0.2346317619085312,67.901611328125,6.8359375,-17.1051025390625
13.3699999,8.078036308288574,-4.845864295959473,0.8331822156906128,56.4727783203125,14.0228271484375,-21.209716796875
13.389999900000001,8.176198959350586,-4.4532151222229,1.3982137441635132,45.2728271484375,18.890380859375,-23.7884521484375
13.4099999,8.248024940490723,-4.180276393890381,1.8267759084701538,34.7442626953125,16.3726806640625,-22.9339599609375
13.4299999,8.315062522888184,-4.048594951629639,2.10210919380188,25.299072265625,9.2926025390625,-18.1884765625
13.4499999,8.38449478149414,-4.027047157287598,2.2409727573394775,16.693115234375,5.0811767578125,-12.0086669921875
13.469999900000001,8.47547435760498,-4.065354347229004,2.296039342880249,9.033203125,5.43212890625,-6.3934326171875
13.4899999,8.583212852478027,-4.1180267333984375,2.315192937850952,2.13623046875,7.4920654296875,-2.25830078125
13.5099999,8.669404029846191,-4.156333923339844,2.3127987384796143,-4.058837890625,10.7421875,0.48828125
13.5299999,8.705317497253418,-4.165910720825195,2.296039342880249,-9.185791015625,14.1448974609375,2.62451171875
13.549999900000001,8.69095230102539,-4.163516521453857,2.274491548538208,-12.786865234375,16.4794921875,3.6773681640625
13.569999900000001,8.621520042419434,-4.163516521453857,2.233790159225464,-14.9383544921875,17.9290771484375,3.7841796875
13.5899999,8.530540466308594,-4.19224739074707,2.1954829692840576,-15.899658203125,18.00537109375,3.814697265625
13.6099999,8.42040729522705,-4.2544965744018555,2.1595699787139893,-15.6097412109375,17.1966552734375,4.57763671875
13.629999900000001,8.315062522888184,-4.345476150512695,2.1332337856292725,-14.2669677734375,15.5487060546875,5.3863525390625
13.649999900000001,8.221688270568848,-4.4508209228515625,2.1284453868865967,-11.90185546875,13.0157470703125,4.791259765625
13.6699999,8.157045364379883,-4.546588897705078,2.1356279850006104,-8.941650390625,10.772705078125,3.8299560546875
13.6899999,8.128314971923828,-4.6255974769592285,2.1547815799713135,-5.7220458984375,8.636474609375,3.7384033203125
13.709999900000001,8.123526573181152,-4.683058738708496,2.1763293743133545,-2.3956298828125,6.2255859375,4.4708251953125
13.729999900000001,8.135497093200684,-4.721365928649902,2.1954829692840576,0.8392333984375,4.2877197265625,5.096435546875
13.7499999,8.149862289428711,-4.742913722991943,2.209848165512085,3.509521484375,3.448486328125,5.126953125
13.7699999,8.154650688171387,-4.752490520477295,2.2242133617401123,5.5084228515625,3.7689208984375,4.9591064453125
13.789999900000002,8.145073890686035,-4.752490520477295,2.231395959854126,6.927490234375,3.4637451171875,4.9896240234375
13.809999900000001,8.135497093200684,-4.747702121734619,2.2433669567108154,7.6904296875,1.28173828125,4.5013427734375
13.8299999,8.128314971923828,-4.738125324249268,2.2577321529388428,7.5531005859375,0.1678466796875,3.4332275390625
13.8499999,8.17380428314209,-4.7189717292785645,2.276885747909546,5.6915283203125,0.6256103515625,3.1890869140625
13.8699999,8.219294548034668,-4.7189717292785645,2.2864625453948975,4.33349609375,0.0457763671875,3.5400390625
13.889999900000001,8.252813339233398,-4.728548526763916,2.298433542251587,2.74658203125,1.6632080078125,3.448486328125
13.9099999,8.267178535461426,-4.738125324249268,2.3127987384796143,0.9307861328125,4.5318603515625,2.62451171875
13.9299999,8.252813339233398,-4.745307922363281,2.3247697353363037,-0.6866455078125,6.16455078125,1.7242431640625
13.9499999,8.209717750549316,-4.742913722991943,2.3247697353363037,-1.617431640625,6.1187744140625,1.4495849609375
13.969999900000001,8.159439086914062,-4.738125324249268,2.3104045391082764,-1.617431640625,4.608154296875,1.5716552734375
13.9899999,8.121131896972656,-4.738125324249268,2.300827741622925,-1.068115234375,2.8533935546875,1.5716552734375
14.0099999,8.10437297821045,-4.747702121734619,2.298433542251587,-0.5340576171875,2.6397705078125,1.9683837890625
14.0299999,8.109161376953125,-4.764461517333984,2.3032219409942627,-0.213623046875,3.265380859375,2.7923583984375
14.049999900000001,8.13789176940918,-4.788403511047363,2.31758713722229,0.0762939453125,3.0364990234375,3.8604736328125
14.069999900000001,8.164227485656738,-4.81473970413208,2.3367409706115723,0.30517578125,3.23486328125,4.730224609375
14.0899999,8.17141056060791,-4.838681697845459,2.3511061668395996,0.42724609375,4.6844482421875,5.157470703125
14.1099999,8.147468566894531,-4.8602294921875,2.363077163696289,0.5035400390625,4.5318603515625,4.9285888671875
14.129999900000001,8.094796180725098,-4.876988887786865,2.367865562438965,0.823974609375,1.9073486328125,3.9215087890625
14.149999900000001,8.042123794555664,-4.888959884643555,2.3774423599243164,0.9765625,-0.0152587890625,2.227783203125
14.1699999,8.010998725891113,-4.903325080871582,2.389413356781006,0.640869140625,0.91552734375,0.67138671875
14.1899999,8.006210327148438,-4.920084476470947,2.403778553009033,0.1068115234375,3.2806396484375,0.2288818359375
14.209999900000001,8.010998725891113,-4.934449672698975,2.4181437492370605,-0.06103515625,3.8299560546875,0.2288818359375
14.229999900000001,8.008605003356934,-4.934449672698975,2.4157495498657227,0.2593994140625,2.6092529296875,-0.48828125
14.2499999,8.006210327148438,-4.922478675842285,2.406172752380371,0.6256103515625,1.556396484375,-1.89208984375
14.2699999,8.01339340209961,-4.900930881500244,2.389413356781006,0.91552734375,1.6632080078125,-2.532958984375
14.289999900000002,8.039729118347168,-4.881777286529541,2.3774423599243164,1.1444091796875,2.044677734375,-1.7242431640625
14.309999900000001,8.075642585754395,-4.862623691558838,2.3726539611816406,1.5106201171875,1.89208984375,-0.2593994140625
14.3299999,8.106766700744629,-4.841075897216797,2.3750481605529785,1.739501953125,2.2430419921875,0.4425048828125
14.3499999,8.118738174438477,-4.812345504760742,2.387019157409668,1.922607421875,3.0670166015625,0.335693359375
14.3699999,8.10437297821045,-4.786009311676025,2.4013843536376953,1.9073486328125,3.204345703125,0.213623046875
14.389999900000001,8.08043098449707,-4.7620673179626465,2.4133553504943848,1.9989013671875,1.9378662109375,0.4730224609375
14.4099999,8.061277389526367,-4.745307922363281,2.4229321479797363,2.1820068359375,0.4730224609375,0.640869140625
14.4299999,8.063671112060547,-4.745307922363281,2.4420857429504395,1.9989013671875,0.9613037109375,0.732421875
14.4499999,8.078036308288574,-4.750096321105957,2.4612393379211426,1.5411376953125,3.47900390625,1.190185546875
14.469999900000001,8.087613105773926,-4.766855716705322,2.4803929328918457,1.5106201171875,4.8065185546875,1.4190673828125
14.4899999,8.08282470703125,-4.78122091293335,2.492363929748535,1.7547607421875,3.5858154296875,1.007080078125
14.5099999,8.054094314575195,-4.795586109161377,2.499546527862549,2.197265625,2.25830078125,0.762939453125
14.5299999,7.987056732177734,-4.8051629066467285,2.5091233253479004,2.960205078125,0.5950927734375,1.556396484375
14.549999900000001,7.881711959838867,-4.807557106018066,2.5330653190612793,2.288818359375,-6.40869140625,4.3487548828125
14.569999900000001,7.73087739944458,-4.776432514190674,2.612074136734009,-1.6632080078125,-19.8974609375,7.110595703125
14.5899999,7.620744228363037,-4.73573112487793,2.734178304672241,-8.758544921875,-31.67724609375,6.927490234375
14.6099999,7.627926826477051,-4.565742492675781,3.1531636714935303,-20.233154296875,-35.4461669921875,6.134033203125
14.629999900000001,7.778761386871338,-4.304774761199951,3.5649664402008057,-51.9561767578125,-17.7154541015625,5.828857421875
14.649999900000001,7.95832633972168,-4.156333923339844,3.9671921730041504,-89.447021484375,-2.25830078125,3.1280517578125
14.6699999,8.209717750549316,-3.993528366088867,4.084507942199707,-113.2965087890625,-10.6658935546875,1.46484375
14.6899999,8.324639320373535,-4.177882194519043,3.6774938106536865,-114.3646240234375,-10.19287109375,-0.1678466796875
14.709999900000001,8.413225173950195,-4.568136692047119,2.894589900970459,-104.8583984375,-9.4451904296875,1.861572265625
14.729999900000001,8.398859977722168,-5.0254292488098145,1.8770540952682495,-90.1641845703125,-22.7203369140625,9.9029541015625
14.7499999,8.362946510314941,-5.5760955810546875,0.8810662031173706,-71.71630859375,-32.958984375,15.045166015625
14.7699999,8.197746276855469,-5.894524574279785,0.090979665517807,-51.8035888671875,-29.144287109375,12.847900390625
14.789999900000002,8.001421928405762,-6.0836663246154785,-0.45010992884635925,-31.9061279296875,-28.4576416015625,8.7738037109375
14.809999900000001,7.814674377441406,-6.09324312210083,-0.7445967197418213,-14.1448974609375,-35.70556640625,5.1422119140625
14.8299999,7.706935405731201,-6.050147533416748,-0.8379706144332886,0.42724609375,-35.5987548828125,0.42724609375
14.8499999,7.682993412017822,-5.978321552276611,-0.8403648138046265,10.986328125,-29.6478271484375,-2.5787353515625
14.8699999,7.769184589385986,-5.8657941818237305,-0.7206547260284424,17.852783203125,-26.2451171875,-4.1351318359375
14.889999900000001,7.888894557952881,-5.729324817657471,-0.5602431893348694,21.5606689453125,-22.7203369140625,-5.7525634765625
14.9099999,8.015787124633789,-5.549759387969971,-0.42616790533065796,22.0184326171875,-18.6004638671875,-7.3089599609375
14.9299999,8.11634349822998,-5.367800235748291,-0.2753331959247589,21.2249755859375,-15.0909423828125,-6.3323974609375
14.9499999,8.20732307434082,-5.25527286529541,-0.18914192914962769,19.34814453125,-15.655517578125,-3.6163330078125
14.969999900000001,8.24084186553955,-5.219359874725342,-0.12449848651885986,15.93017578125,-15.777587890625,-2.01416015625
14.9899999,8.245630264282227,-5.252878665924072,-0.06703764945268631,12.3748779296875,-12.451171875,-1.9989013671875
15.0099999,8.224082946777344,-5.341464042663574,-0.06464344263076782,9.5672607421875,-7.049560546875,-2.3040771484375
15.0299999,8.183381080627441,-5.418078422546387,-0.0933738648891449,7.3394775390625,-6.3323974609375,0.3509521484375
15.049999900000001,8.142680168151855,-5.403713226318359,-0.07661445438861847,4.150390625,-7.8277587890625,3.90625
15.069999900000001,8.087613105773926,-5.355829238891602,-0.11013327538967133,0.0457763671875,-4.7149658203125,3.326416015625
15.0899999,8.073247909545898,-5.260061264038086,-0.09816227108240128,-2.227783203125,2.532958984375,1.556396484375
15.1099999,8.061277389526367,-5.22175407409668,-0.08858546614646912,-2.716064453125,5.096435546875,2.6092529296875
15.129999900000001,8.068459510803223,-5.252878665924072,-0.12928688526153564,-2.38037109375,3.7078857421875,4.69970703125
15.149999900000001,8.063671112060547,-5.351040840148926,-0.14844051003456116,-2.2430419921875,2.3193359375,4.69970703125
15.1699999,8.054094314575195,-5.480327606201172,-0.1388636976480484,-2.5482177734375,3.082275390625,2.5787353515625
15.1899999,8.042123794555664,-5.614402770996094,-0.1173158809542656,-2.3040771484375,4.5928955078125,0.48828125
15.209999900000001,8.039729118347168,-5.69580602645874,-0.1149216815829277,-1.46484375,6.195068359375,-0.091552734375
15.229999900000001,8.04691219329834,-5.698200225830078,-0.07661445438861847,0.3509521484375,6.77490234375,0.518798828125
15.2499999,8.030152320861816,-5.631162166595459,-0.090979665517807,2.0599365234375,5.462646484375,0.701904296875
15.2699999,8.01339340209961,-5.497087001800537,-0.06224924325942993,3.1280517578125,4.1351318359375,-0.335693359375
15.289999900000002,8.034940719604492,-5.398924827575684,-0.0694318488240242,5.0506591796875,6.2255859375,-2.6397705078125
15.309999900000001,8.051700592041016,-5.418078422546387,-0.07900865375995636,9.9945068359375,9.1094970703125,-4.08935546875
15.3299999,8.063671112060547,-5.559336185455322,-0.3423708379268646,19.866943359375,14.923095703125,-3.8604736328125
15.3499999,8.044517517089844,-5.808333396911621,-0.6248866319656372,47.6531982421875,12.7105712890625,-5.6915283203125
15.3699999,7.989450931549072,-5.954379558563232,-0.8954314589500427,79.498291015625,9.82666015625,-10.1776123046875
15.389999900000001,7.929595947265625,-5.959167957305908,-0.950498104095459,88.0279541015625,15.655517578125,-14.556884765625
15.4099999,7.922413349151611,-5.74129581451416,-0.6368576288223267,81.2225341796875,21.2249755859375,-16.9525146484375
15.4299999,7.960720539093018,-5.408501625061035,-0.040701430290937424,69.6868896484375,28.8848876953125,-19.0277099609375
15.4499999,8.030152320861816,-5.073313236236572,0.6440402865409851,55.4656982421875,38.3148193359375,-20.7977294921875
15.469999900000001,8.101978302001953,-4.812345504760742,1.2689268589019775,41.2750244140625,41.2445068359375,-19.439697265625
15.4899999,8.149862289428711,-4.661510944366455,1.7477672100067139,29.4189453125,36.4227294921875,-14.8773193359375
15.5099999,8.17380428314209,-4.6040496826171875,2.056619167327881,18.9208984375,30.6243896484375,-8.941650390625
15.5299999,8.185775756835938,-4.608838081359863,2.2409727573394775,9.5367431640625,28.228759765625,-4.33349609375
15.549999900000001,8.212111473083496,-4.639962673187256,2.3487119674682617,1.7852783203125,28.289794921875,-0.946044921875
15.569999900000001,8.238448143005371,-4.671087741851807,2.3989901542663574,-4.425048828125,27.52685546875,2.655029296875
15.5899999,8.252813339233398,-4.687847137451172,2.410961151123047,-9.4451904296875,23.92578125,7.080078125
15.6099999,8.26239013671875,-4.680664539337158,2.3942017555236816,-13.48876953125,19.5465087890625,11.2762451171875
15.629999900000001,8.310274124145508,-4.675876140594482,2.3750481605529785,-16.387939453125,18.6004638671875,13.9617919921875
15.649999900000001,8.44434928894043,-4.666299343109131,2.3726539611816406,-18.37158203125,25.726318359375,17.303466796875
15.6699999,8.686163902282715,-4.680664539337158,2.387019157409668,-20.0958251953125,40.8172607421875,23.3306884765625
15.6899999,8.944737434387207,-4.716577529907227,2.406172752380371,-20.7366943359375,55.694580078125,33.0352783203125
15.709999900000001,9.117119789123535,-4.771644115447998,2.403778553009033,-20.0653076171875,62.6068115234375,46.356201171875
15.729999900000001,9.069235801696777,-4.855441093444824,2.389413356781006,-17.4102783203125,58.6090087890625,60.3485107421875
15.7499999,8.765172004699707,-4.9583916664123535,2.3726539611816406,-13.336181640625,47.7294921875,73.4405517578125
15.7699999,8.29830265045166,-5.066130638122559,2.3942017555236816,-8.0413818359375,34.2559814453125,82.855224609375
15.789999900000002,7.819462776184082,-5.183446884155273,2.5067291259765625,-2.777099609375,25.4974365234375,87.432861328125
15.809999900000001,7.429207801818848,-5.286397457122803,2.671929121017456,1.373291015625,30.120849609375,90.9271240234375
15.8299999,7.184999465942383,-5.410895824432373,2.9065608978271484,4.8675537109375,38.9251708984375,95.1690673828125
15.8499999,7.017405033111572,-5.547365188598633,3.162740468978882,6.134033203125,46.0052490234375,99.67041015625
15.869999900000002,6.782773494720459,-5.705382823944092,3.406949043273926,6.866455078125,54.3060302734375,103.424072265625
15.889999900000001,6.375759124755859,-5.853823184967041,3.600879430770874,7.080078125,57.9376220703125,100.982666015625
15.9099999,5.772420406341553,-6.01423454284668,3.7397429943084717,7.0343017578125,45.0592041015625,90.6829833984375
15.9299999,5.066130638122559,-6.196194171905518,3.8331170082092285,5.37109375,21.4996337890625,79.4219970703125
15.9499999,4.434061527252197,-6.4380083084106445,3.9169139862060547,2.3193359375,6.16455078125,70.2056884765625
15.969999900000001,3.993528366088867,-6.7492547035217285,4.019864559173584,-1.4801025390625,4.058837890625,62.6983642578125
15.9899999,3.7708675861358643,-7.0988078117370605,4.120420932769775,-5.9051513671875,5.0506591796875,57.06787109375
16.0099999,3.7158010005950928,-7.438784599304199,4.182670593261719,-9.9945068359375,0.152587890625,52.1697998046875
16.0299999,3.77565598487854,-7.754819393157959,4.19224739074707,-14.5416259765625,-6.0882568359375,48.33984375
16.0499999,3.869029998779297,-8.020575523376465,4.132391929626465,-19.287109375,-3.9520263671875,46.32568359375
16.0699999,3.97916316986084,-8.2312650680542,4.019864559173584,-23.040771484375,1.617431640625,45.8831787109375
16.089999900000002,4.043806552886963,-8.394071578979492,3.861847400665283,-26.611328125,4.5623779296875,45.95947265625
16.109999900000002,4.027047157287598,-8.501810073852539,3.648763418197632,-29.2205810546875,6.7138671875,46.722412109375
16.1299999,3.93367338180542,-8.571242332458496,3.4141316413879395,-30.4718017578125,8.941650390625,47.943115234375
16.1499999,3.7924153804779053,-8.619126319885254,3.1675288677215576,-30.4107666015625,11.3677978515625,49.560546875
16.1699999,3.6104562282562256,-8.664615631103516,2.935291290283203,-29.388427734375,10.3912353515625,53.5125732421875
16.1899999,3.428496837615967,-8.710105895996094,2.7293899059295654,-28.6102294921875,6.89697265625,58.77685546875
16.2099999,3.251325845718384,-8.762778282165527,2.5665841102600098,-27.9541015625,6.7291259765625,62.9730224609375
16.2299999,3.0885202884674072,-8.822632789611816,2.4396915435791016,-26.9622802734375,9.3231201171875,67.1234130859375
16.249999900000002,2.889801502227783,-8.877699851989746,2.3535003662109375,-25.5889892578125,9.5062255859375,71.7620849609375
16.269999900000002,2.6360161304473877,-8.920795440673828,2.2816741466522217,-24.0325927734375,6.5765380859375,73.638916015625
16.2899999,2.3319525718688965,-8.96149730682373,2.233790159225464,-22.2930908203125,2.13623046875,71.136474609375
16.3099999,2.0183119773864746,-9.042900085449219,2.2002713680267334,-21.2249755859375,-1.6021728515625,69.9005126953125
16.3299999,1.7166426181793213,-9.136273384094238,2.188300371170044,-20.9808349609375,-3.875732421875,70.9686279296875
16.3499999,1.4460978507995605,-9.260771751403809,2.1930887699127197,-19.4854736328125,-2.8228759765625,67.4285888671875
16.3699999,1.213860273361206,-9.390059471130371,2.2146365642547607,-16.937255859375,1.4190673828125,59.99755859375
16.3899999,0.9816226959228516,-9.526528358459473,2.2409727573394775,-15.0909423828125,5.3558349609375,56.915283203125
16.4099999,0.7445967197418213,-9.639056205749512,2.250549554824829,-13.641357421875,5.126953125,57.342529296875
16.429999900000002,0.5027823448181152,-9.761159896850586,2.2409727573394775,-11.5509033203125,2.6702880859375,53.466796875
16.4499999,0.26096799969673157,-9.852140426635742,2.1930887699127197,-8.3770751953125,2.6397705078125,45.623779296875
16.4699999,0.0694318488240242,-9.950302124023438,2.1356279850006104,-4.6844482421875,2.288818359375,40.71044921875
16.4899999,-0.07422025501728058,-10.022128105163574,2.070984363555908,-2.0294189453125,-0.6561279296875,40.6951904296875
16.5099999,-0.14365209639072418,-10.089165687561035,2.0231003761291504,-0.152587890625,-3.8909912109375,40.2679443359375
16.5299999,-0.17477671802043915,-10.122684478759766,2.0039467811584473,2.25830078125,-5.2490234375,38.2843017578125
16.5499999,-0.2082955539226532,-10.113107681274414,2.008735179901123,4.3182373046875,-4.547119140625,38.360595703125
16.5699999,-0.26096799969673157,-10.055646896362305,2.0446481704711914,4.3792724609375,-4.8828125,40.1458740234375
16.589999900000002,-0.363918662071228,-9.962273597717285,2.10210919380188,2.960205078125,-4.8065185546875,38.1622314453125
16.609999900000002,-0.5339069962501526,-9.825803756713867,2.169146776199341,1.1749267578125,-3.3416748046875,32.012939453125
16.6299999,-0.7326257228851318,-9.68694019317627,2.233790159225464,-0.9002685546875,-1.2969970703125,25.6500244140625
16.6499999,-0.9193734526634216,-9.579200744628906,2.2888567447662354,-3.0670166015625,0.4425048828125,21.2860107421875
16.6699999,-1.0654197931289673,-9.516951560974121,2.3247697353363037,-5.1116943359375,2.288818359375,17.852783203125
16.6899999,-1.1516109704971313,-9.516951560974121,2.3271639347076416,-6.28662109375,3.082275390625,14.495849609375
16.7099999,-1.2066776752471924,-9.53849983215332,2.319981336593628,-7.87353515625,0.030517578125,13.12255859375
16.7299999,-1.1109095811843872,-9.667786598205566,2.2361843585968018,-11.0321044921875,4.9591064453125,8.8958740234375
16.749999900000002,-0.9528923034667969,-9.710882186889648,2.300827741622925,-10.2386474609375,20.2178955078125,5.7220458984375
16.769999900000002,-0.7613561153411865,-9.653421401977539,2.4157495498657227,-21.2860107421875,36.346435546875,7.50732421875
16.7899999,-0.6488286852836609,-9.59596061706543,2.583343744277954,-41.5191650390625,50.262451171875,10.498046875
16.8099999,-0.6799532771110535,-9.476250648498535,2.585737943649292,-53.4210205078125,56.7779541015625,8.72802734375
16.8299999,-0.8930372595787048,-9.536105155944824,2.343923568725586,-53.22265625,52.001953125,6.2713623046875
16.8499999,-1.2210428714752197,-9.68694019317627,1.8315643072128296,-45.95947265625,34.5458984375,7.904052734375
16.8699999,-1.5059528350830078,-9.974244117736816,1.1540051698684692,-32.989501953125,16.5557861328125,8.1939697265625
16.8899999,-1.7764976024627686,-10.307038307189941,0.5051765441894531,-13.9312744140625,8.9874267578125,4.913330078125
16.9099999,-1.9177556037902832,-10.577583312988281,0.004788403399288654,5.889892578125,-0.396728515625,2.3040771484375
16.929999900000002,-1.9800047874450684,-10.690110206604004,-0.21787235140800476,19.439697265625,-17.5323486328125,2.74658203125
16.9499999,-1.946485996246338,-10.680533409118652,-0.1628057211637497,27.4505615234375,-27.862548828125,2.7923583984375
16.9699999,-1.7956513166427612,-10.548852920532227,0.13168109953403473,32.8521728515625,-25.7415771484375,1.28173828125
16.9899999,-1.601720929145813,-10.362105369567871,0.5913678407669067,33.2794189453125,-19.8516845703125,0.2288818359375
17.0099999,-1.4053963422775269,-10.158597946166992,1.072602391242981,29.6783447265625,-19.134521484375,1.3580322265625
17.0299999,-1.256955862045288,-9.940725326538086,1.522712230682373,22.186279296875,-20.751953125,2.197265625
17.0499999,-1.161187767982483,-9.703699111938477,1.8938134908676147,13.3209228515625,-16.4947509765625,1.434326171875
17.0699999,-1.1109095811843872,-9.502586364746094,2.1595699787139893,5.1727294921875,-6.4697265625,-0.457763671875
17.089999900000002,-1.1013327836990356,-9.354146003723145,2.298433542251587,-2.0294189453125,2.5482177734375,-1.3275146484375
17.109999900000002,-1.1420341730117798,-9.318233489990234,2.3127987384796143,-8.11767578125,4.6539306640625,-0.4119873046875
17.1299999,-1.2018892765045166,-9.373299598693848,2.207453966140747,-12.0849609375,3.6163330078125,-0.885009765625
17.1499999,-1.235408067703247,-9.493009567260742,2.0254945755004883,-13.6260986328125,4.8980712890625,-2.410888671875
17.1699999,-1.2521674633026123,-9.624691009521484,1.802833914756775,-13.2293701171875,7.110595703125,-1.3580322265625
17.1899999,-1.2449848651885986,-9.708487510681152,1.6065093278884888,-11.8408203125,5.4931640625,1.8310546875
17.2099999,-1.259350061416626,-9.746794700622559,1.455674648284912,-9.246826171875,0.946044921875,3.326416015625
17.2299999,-1.2856862545013428,-9.749189376831055,1.37906014919281,-6.591796875,-3.0364990234375,2.655029296875
17.249999900000002,-1.3120225667953491,-9.785101890563965,1.3455413579940796,-4.7454833984375,-3.1585693359375,2.25830078125
17.269999900000002,-1.3263877630233765,-9.861717224121094,1.3479355573654175,-2.6092529296875,0.457763671875,1.861572265625
17.2899999,-1.3263877630233765,-9.955090522766113,1.3527239561080933,0.8087158203125,3.0059814453125,0.9613037109375
17.3099999,-1.3479355573654175,-10.034099578857422,1.3527239561080933,4.39453125,0.6866455078125,0.152587890625
17.3299999,-1.3646949529647827,-10.041281700134277,1.3694833517074585,4.5928955078125,-5.55419921875,-1.2969970703125
17.3499999,-1.381454348564148,-9.979032516479492,1.4197616577148438,2.4566650390625,-7.0343017578125,-3.265380859375
17.3699999,-1.3742717504501343,-9.883264541625977,1.482010841369629,1.373291015625,-4.4708251953125,-4.0740966796875
17.3899999,-1.335964560508728,-9.782708168029785,1.580173134803772,1.5411376953125,-2.105712890625,-2.838134765625
17.409999900000003,-1.3000515699386597,-9.715670585632324,1.644816517829895,0.701904296875,-0.946044921875,-1.007080078125
17.429999900000002,-1.2521674633026123,-9.710882186889648,1.6950948238372803,-1.64794921875,-1.28173828125,-0.6561279296875
17.4499999,-1.2234370708465576,-9.739612579345703,1.6950948238372803,-3.9215087890625,-0.54931640625,-1.6021728515625
17.4699999,-1.2018892765045166,-9.799467086791992,1.6376339197158813,-4.45556640625,1.8463134765625,-2.532958984375
17.4899999,-1.1899182796478271,-9.816226959228516,1.5753847360610962,-3.6468505859375,1.800537109375,-2.349853515625
17.5099999,-1.1875240802764893,-9.797073364257812,1.4939818382263184,-2.6702880859375,0.5340576171875,-0.7476806640625
17.5299999,-1.194706678390503,-9.737217903137207,1.455674648284912,-2.899169921875,-1.251220703125,0.1220703125
17.5499999,-1.2066776752471924,-9.672574996948242,1.4484920501708984,-3.2196044921875,-0.579833984375,-0.6561279296875
17.5699999,-1.216254472732544,-9.670180320739746,1.4508862495422363,-2.1820068359375,1.4190673828125,-1.861572265625
17.589999900000002,-1.2042834758758545,-9.720458984375,1.4317326545715332,-0.152587890625,3.0670166015625,-2.13623046875
17.609999900000002,-1.194706678390503,-9.80904483795166,1.4173674583435059,1.5106201171875,3.0975341796875,-1.0223388671875
17.6299999,-1.170764684677124,-9.895236015319824,1.3742717504501343,1.89208984375,-0.8392333984375,1.2359619140625
17.6499999,-1.161187767982483,-9.909601211547852,1.3934253454208374,0.48828125,-3.1890869140625,2.3651123046875
17.6699999,-1.1755530834197998,-9.861717224121094,1.4221558570861816,-0.7476806640625,-0.91552734375,0.732421875
17.6899999,-1.1899182796478271,-9.75637149810791,1.4867992401123047,-0.335693359375,1.6937255859375,-1.4801025390625
17.7099999,-1.2306196689605713,-9.667786598205566,1.5418659448623657,-0.0762939453125,1.8768310546875,-1.64794921875
17.7299999,-1.2449848651885986,-9.646238327026367,1.5705963373184204,-1.007080078125,-0.762939453125,-0.946044921875
17.749999900000002,-1.256955862045288,-9.703699111938477,1.5753847360610962,-1.953125,-1.2054443359375,-0.54931640625
17.769999900000002,-1.2449848651885986,-9.80904483795166,1.5442601442337036,-1.8463134765625,0.9002685546875,-0.1983642578125
17.7899999,-1.2306196689605713,-9.90241813659668,1.4963760375976562,-0.9613037109375,2.1820068359375,0.2288818359375
17.8099999,-1.2210428714752197,-9.916783332824707,1.45806884765625,-0.091552734375,1.556396484375,0.4730224609375
17.8299999,-1.2234370708465576,-9.861717224121094,1.4221558570861816,0.18310546875,-0.5035400390625,0.030517578125
17.8499999,-1.2306196689605713,-9.782708168029785,1.436521053314209,-0.3662109375,-1.220703125,-1.190185546875
17.8699999,-1.2258312702178955,-9.710882186889648,1.4508862495422363,-0.518798828125,-0.2288818359375,-1.0833740234375
17.8899999,-1.2258312702178955,-9.715670585632324,1.4676456451416016,0.244140625,0.640869140625,0.4425048828125
17.909999900000003,-1.2210428714752197,-9.749189376831055,1.4652514457702637,1.15966796875,0.946044921875,1.434326171875
17.929999900000002,-1.2234370708465576,-9.818621635437012,1.4628572463989258,1.129150390625,-0.9002685546875,0.946044921875
17.9499999,-1.235408067703247,-9.861717224121094,1.4413094520568848,0.06103515625,-2.410888671875,-0.30517578125
17.9699999,-1.2330138683319092,-9.861717224121094,1.455674648284912,-0.9307861328125,-1.40380859375,-0.701904296875
17.9899999,-1.2282254695892334,-9.825803756713867,1.4508862495422363,-0.457763671875,0.48828125,-0.396728515625
18.0099999,-1.213860273361206,-9.763554573059082,1.482010841369629,0.396728515625,1.0986328125,0.5035400390625
18.0299999,-1.216254472732544,-9.701305389404297,1.501164436340332,-0.244140625,-0.42724609375,1.5106201171875
18.0499999,-1.2306196689605713,-9.701305389404297,1.5179238319396973,-1.800537109375,-2.1514892578125,1.007080078125
18.0699999,-1.2545616626739502,-9.749189376831055,1.5179238319396973,-2.3345947265625,-0.6866455078125,-0.0457763671875
18.089999900000002,-1.2713210582733154,-9.832986831665039,1.4963760375976562,-1.3427734375,1.4190673828125,-0.1983642578125
18.109999900000002,-1.280897855758667,-9.897629737854004,1.4460978507995605,-0.06103515625,2.13623046875,-0.0762939453125
18.1299999,-1.2761094570159912,-9.890447616577148,1.4413094520568848,0.3509521484375,1.129150390625,-0.5950927734375
18.1499999,-1.2880805730819702,-9.84256362915039,1.4245500564575195,0.1983642578125,0.274658203125,-1.6326904296875
18.1699999,-1.2832920551300049,-9.749189376831055,1.460463047027588,0.06103515625,-1.983642578125,-1.0833740234375
18.1899999,-1.2713210582733154,-9.6989107131958,1.4963760375976562,-0.091552734375,-2.838134765625,-0.1373291015625
18.2099999,-1.259350061416626,-9.706093788146973,1.5298948287963867,-0.0457763671875,-0.091552734375,0.2593994140625
18.2299999,-1.2449848651885986,-9.763554573059082,1.5418659448623657,0.0152587890625,0.946044921875,1.28173828125
18.249999900000002,-1.2401964664459229,-9.84256362915039,1.5418659448623657,-1.129150390625,-0.8087158203125,1.1444091796875
18.269999900000002,-1.2449848651885986,-9.916783332824707,1.4963760375976562,-2.288818359375,-0.9002685546875,-0.701904296875
18.2899999,-1.2473790645599365,-9.93354320526123,1.455674648284912,-1.983642578125,0.7171630859375,-1.89208984375
18.3099999,-1.235408067703247,-9.90241813659668,1.3958195447921753,-0.3509521484375,2.25830078125,-1.7242431640625
18.3299999,-1.2449848651885986,-9.837775230407715,1.359906554222107,1.1444091796875,2.0904541015625,-1.6021728515625
18.3499999,-1.235408067703247,-9.770736694335938,1.3479355573654175,1.739501953125,-0.67138671875,-1.556396484375
18.3699999,-1.237802267074585,-9.751583099365234,1.3479355573654175,1.556396484375,0.030517578125,-1.678466796875
18.3899999,-1.235408067703247,-9.770736694335938,1.3670891523361206,1.9378662109375,2.1820068359375,-1.6632080078125
18.409999900000003,-1.216254472732544,-9.840168952941895,1.3455413579940796,3.2501220703125,2.532958984375,-1.0528564453125
18.429999900000002,-1.2210428714752197,-9.830592155456543,1.3623007535934448,4.39453125,-0.3204345703125,-0.5035400390625
18.4499999,-1.2114660739898682,-9.787496566772461,1.37906014919281,3.692626953125,-1.6326904296875,-1.3885498046875
18.4699999,-1.2018892765045166,-9.785101890563965,1.4053963422775269,2.5787353515625,0.3509521484375,-2.25830078125
18.4899999,-1.1851298809051514,-9.660603523254395,1.4867992401123047,2.197265625,1.434326171875,-0.6256103515625
18.5099999,-1.1563993692398071,-9.765948295593262,1.5179238319396973,2.044677734375,2.349853515625,1.6632080078125
18.5299999,-1.158793568611145,-9.66299819946289,1.5921441316604614,1.617431640625,4.1351318359375,1.7852783203125
18.5499999,-1.158793568611145,-9.732429504394531,1.6136919260025024,0.8392333984375,3.41796875,0.701904296875
18.5699999,-1.213860273361206,-9.720458984375,1.647210717201233,-0.67138671875,0.8697509765625,-0.18310546875
18.589999900000002,-1.2425906658172607,-9.715670585632324,1.656787633895874,-2.044677734375,-1.1749267578125,-0.1373291015625
18.609999900000002,-1.2497732639312744,-9.75397777557373,1.6519991159439087,-2.3040771484375,0.1373291015625,0.152587890625
18.6299999,-1.2330138683319092,-9.780313491821289,1.6280571222305298,-1.28173828125,3.753662109375,0.152587890625
18.6499999,-1.213860273361206,-9.806650161743164,1.5873557329177856,-0.06103515625,4.2877197265625,0.0457763671875
18.6699999,-1.2114660739898682,-9.86889934539795,1.5442601442337036,0.2899169921875,0.396728515625,0.0762939453125
18.6899999,-1.2449848651885986,-9.8784761428833,1.522712230682373,-0.1068115234375,-2.8076171875,0.030517578125
18.7099999,-1.2832920551300049,-9.84256362915039,1.5131354331970215,-0.213623046875,-2.0751953125,-0.1068115234375
18.7299999,-1.2952631711959839,-9.773131370544434,1.5322890281677246,0.3814697265625,0.0152587890625,-0.274658203125
18.749999900000002,-1.292868971824646,-9.708487510681152,1.5466543436050415,1.0986328125,2.349853515625,-0.6561279296875
18.769999900000002,-1.2761094570159912,-9.670180320739746,1.558625340461731,0.9002685546875,0.67138671875,0.030517578125
18.7899999,-1.2689268589019775,-9.674968719482422,1.580173134803772,-0.5645751953125,-2.593994140625,0.885009765625
18.8099999,-1.2761094570159912,-9.718064308166504,1.5849615335464478,-2.227783203125,-2.7923583984375,0.457763671875
18.8299999,-1.2665326595306396,-9.785101890563965,1.5897499322891235,-2.38037109375,-2.0294189453125,-0.1678466796875
18.8499999,-1.2473790645599365,-9.873687744140625,1.5705963373184204,-2.1820068359375,-0.06103515625,0.244140625
18.8699999,-1.2234370708465576,-9.914389610290527,1.5442601442337036,-1.8768310546875,1.2054443359375,0.9765625
18.8899999,-1.1803414821624756,-9.897629737854004,1.5203180313110352,-2.0294189453125,0.2593994140625,0.8697509765625
18.909999900000003,-1.192312479019165,-9.832986831665039,1.501164436340332,-2.3956298828125,-0.701904296875,0.48828125
18.929999900000002,-1.1827356815338135,-9.830592155456543,1.4700398445129395,-1.953125,-1.9073486328125,0.640869140625
18.9499999,-1.1851298809051514,-9.770736694335938,1.4460978507995605,-0.823974609375,-2.9144287109375,1.007080078125
18.9699999,-1.2234370708465576,-9.96945571899414,1.137245774269104,2.6702880859375,0.091552734375,0.0762939453125
18.9899999,-1.2473790645599365,-10.113107681274414,0.912190854549408,24.993896484375,-3.936767578125,-0.18310546875
19.0099999,-1.292868971824646,-10.292673110961914,0.6057330369949341,54.19921875,-16.11328125,-0.54931640625
19.0299999,-1.3287819623947144,-10.335768699645996,0.5937620401382446,61.2335205078125,-21.3775634765625,1.129150390625
19.0499999,-1.3072341680526733,-10.18493366241455,0.9050082564353943,53.0853271484375,-21.3775634765625,1.495361328125
19.0699999,-1.2449848651885986,-9.86650562286377,1.4844050407409668,40.191650390625,-14.6331787109375,0.8544921875
19.089999900000002,-1.158793568611145,-9.495404243469238,2.1499931812286377,25.2532958984375,-4.5166015625,0.091552734375
19.109999900000002,-1.0678139925003052,-9.17697525024414,2.7437551021575928,11.7645263671875,4.3487548828125,-0.1678466796875
19.1299999,-1.0055646896362305,-8.975862503051758,3.160346269607544,0.42724609375,10.8489990234375,0.1068115234375
19.1499999,-0.9959878921508789,-8.904036521911621,3.339911460876465,-9.1705322265625,17.4560546875,-0.0457763671875
19.1699999,-1.036689281463623,-8.949525833129883,3.3231520652770996,-15.594482421875,20.99609375,0
19.1899999,-1.1276689767837524,-9.066842079162598,3.1507694721221924,-19.1192626953125,20.0653076171875,1.3580322265625
19.2099999,-1.2401964664459229,-9.229647636413574,2.892195701599121,-22.552490234375,17.730712890625,1.6632080078125
19.2299999,-1.3479355573654175,-9.399636268615723,2.607285737991333,-24.23095703125,15.716552734375,0.79345703125
19.249999900000002,-1.436521053314209,-9.560047149658203,2.3319525718688965,-23.3154296875,13.7481689453125,-0.213623046875
19.269999900000002,-1.4963760375976562,-9.703699111938477,2.0877439975738525,-19.95849609375,10.711669921875,-0.701904296875
19.2899999,-1.522712230682373,-9.825803756713867,1.886630892753601,-15.2587890625,6.2255859375,-0.946044921875
19.3099999,-1.5059528350830078,-9.983820915222168,1.6376339197158813,-3.4027099609375,0.3814697265625,-2.197265625
19.3299999,-1.4724340438842773,-10.010157585144043,1.599326729774475,1.6937255859375,-0.6256103515625,-2.99072265625
19.3499999,-1.4413094520568848,-9.995792388916016,1.6160861253738403,5.523681640625,-2.3956298828125,-3.5858154296875
19.3699999,-1.414973258972168,-9.93354320526123,1.6711528301239014,8.2244873046875,-4.1656494140625,-4.69970703125
19.3899999,-1.3958195447921753,-9.840168952941895,1.7597382068634033,9.5062255859375,-4.4403076171875,-7.1258544921875
19.409999900000003,-1.3862427473068237,-9.72285270690918,1.8698714971542358,9.0179443359375,-3.997802734375,-9.4451904296875
19.429999900000002,-1.3742717504501343,-9.610325813293457,1.987187385559082,6.7596435546875,-3.9825439453125,-10.498046875
19.4499999,-1.335964560508728,-9.533711433410645,2.099714994430542,3.41796875,-6.53076171875,-10.772705078125
19.4699999,-1.278503656387329,-9.478644371032715,2.207453966140747,-1.2054443359375,-8.0413818359375,-10.25390625
19.4899999,-1.173158884048462,-9.481039047241211,2.2697031497955322,-5.9661865234375,-3.11279296875,-9.368896484375
19.5099999,-1.0558429956436157,-9.497797966003418,2.3343467712402344,-9.185791015625,-0.1373291015625,-6.6986083984375
19.5299999,-0.9385270476341248,-9.550470352172852,2.315192937850952,-12.847900390625,1.556396484375,-3.0670166015625
19.5499999,-0.8523358106613159,-9.593565940856934,2.2864625453948975,-16.510009765625,1.46484375,0.42724609375
19.5699999,-0.7996633648872375,-9.643844604492188,2.183511972427368,-19.2718505859375,2.960205078125,2.13623046875
19.589999900000002,-0.8020575642585754,-9.674968719482422,2.0661959648132324,-20.1568603515625,5.7220458984375,1.983642578125
19.609999900000002,-0.8379706144332886,-9.701305389404297,1.9321208000183105,-20.1416015625,7.293701171875,1.77001953125
19.6299999,-0.9026140570640564,-9.6989107131958,1.8267759084701538,-21.78955078125,7.8887939453125,1.4190673828125
19.6499999,-0.9792284965515137,-9.72285270690918,1.699883222579956,-23.5443115234375,12.5579833984375,-0.8087158203125
19.6699999,-1.0462661981582642,-9.72285270690918,1.6208745241165161,-21.6064453125,12.2222900390625,-1.77001953125
19.6899999,-1.1037269830703735,-9.782708168029785,1.479616641998291,-20.4315185546875,9.1705322265625,-0.6256103515625
19.7099999,-1.161187767982483,-9.823410034179688,1.3479355573654175,-17.5933837890625,2.6397705078125,1.3885498046875
19.7299999,-1.2018892765045166,-9.904812812805176,1.1803414821624756,-12.51220703125,-2.62451171875,1.861572265625
19.749999900000002,-1.2114660739898682,-9.950302124023438,1.070208191871643,-6.866455078125,-5.706787109375,1.068115234375
19.769999900000002,-1.1994950771331787,-10.014945983886719,0.9744400978088379,-2.8228759765625,-3.96728515625,0.274658203125
19.7899999,-1.1635819673538208,-10.053253173828125,0.9528923034667969,1.40380859375,-1.495361328125,0.0762939453125
19.8099999,-1.1276689767837524,-10.06043529510498,0.9624691009521484,5.5999755859375,-0.8087158203125,-1.03759765625
19.8299999,-1.1276689767837524,-10.077195167541504,0.9768342971801758,8.6822509765625,-1.3427734375,-2.6092529296875
19.8499999,-1.1300631761550903,-10.029311180114746,1.0223240852355957,10.345458984375,-2.166748046875,-2.960205078125
19.8699999,-1.1659762859344482,-9.995792388916016,1.072602391242981,10.8489990234375,-4.547119140625,-1.617431640625
19.8899999,-1.1803414821624756,-9.909601211547852,1.161187767982483,9.9945068359375,-8.0108642578125,-0.42724609375
19.909999900000003,-1.1803414821624756,-9.821015357971191,1.2689268589019775,7.7362060546875,-9.429931640625,-0.1068115234375
19.929999900000002,-1.1492167711257935,-9.725247383117676,1.3838485479354858,4.45556640625,-7.0343017578125,-0.67138671875
19.9499999,-1.094150185585022,-9.651026725769043,1.4915876388549805,0.4730224609375,-2.1209716796875,-1.4801025390625
19.9699999,-1.01753568649292,-9.605537414550781,1.5634137392044067,-3.2196044921875,2.86865234375,-1.373291015625
19.9899999,-0.9768342971801758,-9.617507934570312,1.5897499322891235,-5.2947998046875,4.57763671875,-0.213623046875
20.0099999,-0.9409212470054626,-9.653421401977539,1.5658079385757446,-6.4239501953125,4.57763671875,0.42724609375
20.0299999,-0.9528923034667969,-9.701305389404297,1.5107412338256836,-6.622314453125,5.096435546875,0.7171630859375
20.0499999,-0.9983820915222168,-9.77791976928711,1.4173674583435059,-5.79833984375,5.0506591796875,1.15966796875
20.0699999,-1.0462661981582642,-9.799467086791992,1.3287819623947144,-3.326416015625,4.119873046875,0.6866455078125
20.089999900000002,-1.1228805780410767,-9.86650562286377,1.2449848651885986,-0.1373291015625,2.899169921875,-0.6561279296875
20.109999900000002,-1.173158884048462,-9.859322547912598,1.1994950771331787,2.8228759765625,1.2054443359375,-1.434326171875
20.1299999,-1.2210428714752197,-9.9000244140625,1.2018892765045166,4.302978515625,-1.5106201171875,-0.518798828125
20.1499999,-1.235408067703247,-9.8784761428833,1.237802267074585,4.6539306640625,-2.655029296875,0.5035400390625
20.1699999,-1.2186486721038818,-9.864110946655273,1.3096283674240112,4.5623779296875,-3.35693359375,0.30517578125
20.1899999,-1.1827356815338135,-9.832986831665039,1.37906014919281,4.0435791015625,-1.1138916015625,-0.5035400390625
20.2099999,-1.1324573755264282,-9.785101890563965,1.4437036514282227,3.1585693359375,1.6632080078125,-1.0223388671875
20.2299999,-1.0989385843276978,-9.727641105651855,1.4772224426269531,2.50244140625,2.3193359375,-1.129150390625
20.249999900000002,-1.0845733880996704,-9.720458984375,1.4891934394836426,1.4801025390625,0.4730224609375,-1.1138916015625
20.269999900000002,-1.072602391242981,-9.710882186889648,1.4844050407409668,0.030517578125,-1.129150390625,-1.0986328125
