# Time (seconds),Accel_X,Accel_Y,Accel_Z,Gyro_X,Gyro_Y,Gyro_Z
0.0099999,1.968033790588379,-9.75637149810791,0.49799394607543945,6.9427490234375,0.2899169921875,-38.0859375
0.029999900000000003,2.1380221843719482,-9.548076629638672,0.4884171485900879,6.5460205078125,-2.25830078125,-37.689208984375
0.0499999,2.367865562438965,-9.330204010009766,0.4908113479614258,4.638671875,-1.1749267578125,-34.60693359375
0.0699999,2.6192567348480225,-9.097966194152832,0.4884171485900879,1.7547607421875,-1.4190673828125,-29.4342041015625
0.08999990000000001,2.8610711097717285,-8.882488250732422,0.4884171485900879,1.220703125,-5.4931640625,-24.749755859375
0.10999990000000001,3.071760892868042,-8.712499618530273,0.47405192255973816,-2.044677734375,-4.302978515625,-18.06640625
0.1299999,3.220201253890991,-8.588001251220703,0.4668693244457245,-6.3934326171875,0.9002685546875,-10.2081298828125
0.14999990000000002,3.2968156337738037,-8.528146743774414,0.4668693244457245,-9.9945068359375,6.683349609375,-3.204345703125
0.1699999,3.2632968425750732,-8.542511940002441,0.4692635238170624,-10.68115234375,9.9334716796875,-1.2359619140625
0.1899999,3.1459810733795166,-8.597578048706055,0.4668693244457245,-11.474609375,11.627197265625,-4.5623779296875
0.20999990000000002,2.846705913543701,-8.801085472106934,0.4429273009300232,-11.6729736328125,16.8609619140625,-16.4794921875
0.2299999,2.7940332889556885,-8.892065048217773,0.4357447028160095,-9.5062255859375,20.6146240234375,-23.4375
0.2499999,2.8371291160583496,-8.973467826843262,0.5051765441894531,-6.6680908203125,25.787353515625,-29.510498046875
0.2699999,3.021482467651367,-8.975862503051758,0.507570743560791,-0.6561279296875,41.748046875,-34.2864990234375
0.28999990000000003,3.227383852005005,-8.959102630615234,0.5937620401382446,-5.8441162109375,31.585693359375,-34.5916748046875
0.3099999,3.5027170181274414,-8.875306129455566,0.6224924325942993,-6.4849853515625,27.0538330078125,-36.8499755859375
0.3299999,3.751713991165161,-8.789113998413086,0.689530074596405,-6.2103271484375,25.7720947265625,-38.8336181640625
0.34999990000000003,3.9600095748901367,-8.702922821044922,0.7661445140838623,-7.75146484375,23.3917236328125,-36.2701416015625
0.3699999,4.134786128997803,-8.62630844116211,0.8427590131759644,-8.056640625,18.2342529296875,-31.43310546875
0.3899999,4.273650169372559,-8.56884765625,0.9050082564353943,-8.0718994140625,11.3677978515625,-28.656005859375
0.40999990000000003,4.410119533538818,-8.506598472595215,0.9289502501487732,-10.55908203125,7.99560546875,-26.7791748046875
0.4299999,4.546588897705078,-8.451532363891602,0.9145850539207458,-14.16015625,8.5296630859375,-22.613525390625
0.4499999,4.675876140594482,-8.415618896484375,0.8571242094039917,-16.143798828125,9.1552734375,-16.2506103515625
0.4699999,4.774038314819336,-8.38449478149414,0.7565677165985107,-16.41845703125,7.26318359375,-10.009765625
0.4899999,4.831499099731445,-8.374917984008789,0.629675030708313,-17.0135498046875,5.4168701171875,-5.9356689453125
0.5099999,4.829104900360107,-8.391676902770996,0.4884171485900879,-18.5089111328125,4.5928955078125,-1.89208984375
0.5299999,4.802768707275391,-8.418013572692871,0.35673606395721436,-19.6990966796875,3.96728515625,2.716064453125
0.5499999,4.72376012802124,-8.461109161376953,0.22505496442317963,-19.1192626953125,4.7760009765625,5.706787109375
0.5699999,4.606443881988525,-8.504204750061035,0.10055647045373917,-17.6544189453125,5.0201416015625,7.26318359375
0.5899998999999999,4.462791919708252,-8.528146743774414,-0.026336219161748886,-16.0980224609375,4.2266845703125,7.62939453125
0.6099998999999999,4.309563159942627,-8.544905662536621,-0.14844051003456116,-13.885498046875,3.0670166015625,6.9427490234375
0.6299999,4.185064792633057,-8.56884765625,-0.2513911724090576,-10.9100341796875,3.4332275390625,5.523681640625
0.6499999,4.113238334655762,-8.592789649963379,-0.31842881441116333,-7.8125,5.4931640625,4.5928955078125
0.6699999,4.108449935913086,-8.611943244934082,-0.33997663855552673,-5.6304931640625,8.148193359375,5.3863525390625
0.6899999,4.173093795776367,-8.619126319885254,-0.3064578175544739,-4.241943359375,9.765625,7.4462890625
0.7099999,4.252102375030518,-8.607154846191406,-0.24420857429504395,-3.35693359375,10.2691650390625,11.0931396484375
0.7299998999999999,4.323928356170654,-8.607154846191406,-0.15801730751991272,-3.0059814453125,10.528564453125,15.3045654296875
0.7499998999999999,4.359841346740723,-8.638279914855957,-0.06464344263076782,-2.838134765625,13.0767822265625,17.608642578125
0.7699999,4.331110954284668,-8.7268648147583,0.019153613597154617,-2.74658203125,15.869140625,19.3328857421875
0.7899999,4.2329487800598145,-8.875306129455566,0.08619125932455063,-2.5177001953125,14.4805908203125,21.8658447265625
0.8099999,4.077325344085693,-9.062053680419922,0.13407529890537262,-1.5716552734375,12.7410888671875,22.3388671875
0.8299999,3.88818359375,-9.27034854888916,0.16519992053508759,0.579833984375,14.3585205078125,18.2647705078125
0.8499998999999999,3.7014358043670654,-9.461885452270508,0.18914192914962769,2.5482177734375,16.265869140625,13.3209228515625
0.8699998999999999,3.5434184074401855,-9.624691009521484,0.21308395266532898,3.41796875,15.7012939453125,9.6588134765625
0.8899999,3.4332852363586426,-9.72285270690918,0.24181437492370605,4.425048828125,13.3514404296875,5.4473876953125
0.9099999,3.397372245788574,-9.734824180603027,0.2777273952960968,5.5694580078125,11.16943359375,-0.091552734375
0.9299999,3.4739866256713867,-9.646238327026367,0.33039984107017517,5.157470703125,8.7738037109375,-4.241943359375
0.9499999,3.6727054119110107,-9.44752025604248,0.40222588181495667,2.2430419921875,7.4462890625,-3.6468505859375
0.9699998999999999,3.955221176147461,-9.172186851501465,0.48602294921875,-2.5482177734375,7.171630859375,1.3885498046875
0.9899998999999999,4.218583583831787,-8.89445972442627,0.545877993106842,-7.87353515625,7.171630859375,8.3770751953125
1.0099999,4.364629745483398,-8.667010307312012,0.5578489899635315,-12.664794921875,5.9051513671875,14.95361328125
1.0299999,4.3622355461120605,-8.537723541259766,0.5051765441894531,-15.80810546875,5.4779052734375,18.096923828125
1.0499999,4.2090067863464355,-8.518569946289062,0.40222588181495667,-16.8914794921875,7.0953369140625,18.890380859375
1.0699999,3.9671921730041504,-8.595184326171875,0.26336219906806946,-16.7388916015625,8.3465576171875,21.05712890625
1.0899999,3.7014358043670654,-8.707711219787598,0.1149216815829277,-16.0980224609375,6.317138671875,25.2838134765625
1.1099999,3.450044631958008,-8.83699893951416,-0.028730420395731926,-15.3656005859375,3.23486328125,29.9224853515625
1.1299999,3.2393548488616943,-8.913613319396973,-0.14844051003456116,-14.0228271484375,4.3792724609375,32.8216552734375
1.1499999,3.0885202884674072,-8.935160636901855,-0.23942017555236816,-11.2457275390625,7.26318359375,32.989501953125
1.1699998999999999,2.9712042808532715,-8.947132110595703,-0.29209262132644653,-7.75146484375,6.9427490234375,32.623291015625
1.1899998999999999,2.875436305999756,-8.971074104309082,-0.2968810200691223,-4.8370361328125,5.401611328125,33.5845947265625
1.2099999,2.7724854946136475,-9.05247688293457,-0.27054479718208313,-2.2430419921875,7.2174072265625,31.8450927734375
1.2299999,2.674323320388794,-9.184157371520996,-0.22026655077934265,1.15966796875,9.5977783203125,26.9622802734375
1.2499999,2.5929205417633057,-9.38048267364502,-0.15322890877723694,4.608154296875,7.6446533203125,22.796630859375
1.2699999,2.542642116546631,-9.591172218322754,-0.0694318488240242,6.2408447265625,6.1798095703125,20.599365234375
1.2899999,2.537853717803955,-9.801861763000488,0.016759412363171577,7.26318359375,10.284423828125,17.1356201171875
1.3099999,2.5665841102600098,-9.976638793945312,0.12928688526153564,8.270263671875,12.0086669921875,13.85498046875
1.3299999,2.5929205417633057,-10.06043529510498,0.24899697303771973,6.927490234375,9.8724365234375,12.9547119140625
1.3499999,2.5977089405059814,-10.04846477508545,0.395043283700943,2.4871826171875,8.8348388671875,10.9405517578125
1.3699999,2.5761611461639404,-9.95748519897461,0.5339069962501526,-4.6539306640625,12.054443359375,5.4473876953125
1.3899999,2.5115175247192383,-9.828198432922363,0.6823474764823914,-13.763427734375,13.8092041015625,-0.8087158203125
1.4099999,2.473210334777832,-9.6989107131958,0.6823474764823914,-22.3388671875,9.82666015625,-4.3182373046875
1.4299998999999999,2.408566951751709,-9.658209800720215,0.6775590777397156,-26.092529296875,2.777099609375,-2.899169921875
1.4499999,2.3989901542663574,-9.708487510681152,0.4357447028160095,-25.909423828125,2.197265625,-4.180908203125
1.4699999,2.3918075561523438,-9.849745750427246,0.17477671802043915,-19.7906494140625,6.7901611328125,-7.0648193359375
1.4899999,2.382230758666992,-10.019734382629395,-0.16759411990642548,-10.345458984375,5.889892578125,-6.5765380859375
1.5099999,2.387019157409668,-10.11789608001709,-0.5003881454467773,-2.1514892578125,0.7171630859375,-4.9591064453125
1.5299999,2.3295583724975586,-10.170568466186523,-0.7374141216278076,5.6304931640625,0.030517578125,-5.7220458984375
1.5499999,2.2888567447662354,-10.11550235748291,-0.8595184087753296,13.3514404296875,-6.2713623046875,-7.5531005859375
1.5699999,2.27209734916687,-10.017339706420898,-0.8092401623725891,15.68603515625,-12.451171875,-8.3160400390625
1.5899999,2.315192937850952,-9.909601211547852,-0.6344634294509888,13.5955810546875,-8.453369140625,-7.171630859375
1.6099999,2.410961151123047,-9.797073364257812,-0.38067805767059326,11.0321044921875,0.8392333984375,-4.2572021484375
1.6299999,2.494758129119873,-9.715670585632324,-0.15562310814857483,8.23974609375,3.9520263671875,-3.662109375
1.6499999,2.540247917175293,-9.696516990661621,0.002394201699644327,5.9356689453125,-2.44140625,-3.0975341796875
1.6699999,2.5474305152893066,-9.737217903137207,0.07422025501728058,3.143310546875,-6.3629150390625,-1.953125
1.6899998999999999,2.535459518432617,-9.849745750427246,0.06464344263076782,-0.5950927734375,-2.227783203125,-2.716064453125
1.7099999,2.5115175247192383,-10.055646896362305,0.002394201699644327,-1.678466796875,4.7149658203125,-6.8359375
1.7299999,2.477998733520508,-10.287884712219238,-0.0933738648891449,1.6632080078125,2.0294189453125,-9.4451904296875
1.7499999,2.4612393379211426,-10.532093048095703,-0.19153612852096558,6.988525390625,-5.37109375,-11.5509033203125
1.7699999,2.477998733520508,-10.685321807861328,-0.26336219906806946,11.0931396484375,-3.3721923828125,-17.822265625
1.7899999,2.5498247146606445,-10.65898609161377,-0.24660277366638184,13.4124755859375,5.523681640625,-25.543212890625
1.8099999,2.655169725418091,-10.524910926818848,-0.14844051003456116,14.190673828125,8.11767578125,-30.09033203125
1.8299999,2.7676970958709717,-10.24000072479248,-0.004788403399288654,11.505126953125,3.4637451171875,-31.1279296875
1.8499999,2.9161376953125,-9.926360130310059,0.21547815203666687,8.4075927734375,-4.94384765625,-32.2113037109375
1.8699999,3.043030261993408,-9.653421401977539,0.3758896589279175,4.08935546875,-0.030517578125,-33.99658203125
1.8899999,3.136404275894165,-9.452308654785156,0.49559974670410156,1.5869140625,11.5966796875,-35.6292724609375
1.9099999,3.1914708614349365,-9.306262016296387,0.49320554733276367,3.7689208984375,9.8114013671875,-38.055419921875
1.9299998999999999,3.227383852005005,-9.2033109664917,0.4620809257030487,6.2255859375,-0.152587890625,-40.8935546875
1.9499999,3.2968156337738037,-9.090784072875977,0.3998316824436188,5.950927734375,-2.593994140625,-41.07666015625
1.9699999,3.4189200401306152,-8.983044624328613,0.37828385829925537,4.058837890625,0.396728515625,-37.017822265625
1.9899999,3.5889084339141846,-8.911218643188477,0.38546648621559143,2.3956298828125,1.007080078125,-32.53173828125
2.0099999,3.7277719974517822,-8.884882926940918,0.3878606855869293,1.953125,2.7618408203125,-31.158447265625
2.0299999,3.8594532012939453,-8.841787338256836,0.3902548849582672,2.4261474609375,5.1422119140625,-30.4718017578125
2.0499999,3.9408559799194336,-8.798690795898438,0.38067805767059326,3.3111572265625,4.852294921875,-27.374267578125
2.0699999,3.9911341667175293,-8.698134422302246,0.3663128614425659,4.0283203125,1.9073486328125,-22.4609375
2.0899999,4.0078935623168945,-8.53532886505127,0.33997663855552673,5.2032470703125,0.0762939453125,-20.6298828125
2.1099999,4.015076160430908,-8.374917984008789,0.3232172429561615,6.3934326171875,1.2054443359375,-22.15576171875
2.1299999,4.034229755401611,-8.178592681884766,0.3280056416988373,6.011962890625,0.4119873046875,-20.7977294921875
2.1499999,4.10366153717041,-8.003816604614258,0.3495534360408783,4.21142578125,-0.67138671875,-16.6168212890625
2.1699999,4.216189384460449,-7.881711959838867,0.395043283700943,1.8157958984375,-0.5340576171875,-12.603759765625
2.1899999,4.352658748626709,-7.819462776184082,0.43095630407333374,-0.732421875,-0.8697509765625,-7.965087890625
2.2099999,4.484339714050293,-7.8314337730407715,0.4405331015586853,-3.0517578125,-1.3275146484375,-1.6937255859375
2.2299999,4.558559894561768,-7.9415669441223145,0.45250412821769714,-5.3863525390625,-2.86865234375,4.730224609375
2.2499999,4.572925090789795,-8.085219383239746,0.45250412821769714,-8.0718994140625,-1.9683837890625,7.171630859375
2.2699999,4.527435302734375,-8.286332130432129,0.42856210470199585,-9.6435546875,2.6092529296875,5.401611328125
2.2899999,4.467580318450928,-8.468291282653809,0.395043283700943,-9.09423828125,4.8980712890625,4.8980712890625
2.3099999,4.405331134796143,-8.643068313598633,0.33518823981285095,-7.5836181640625,2.1820068359375,8.60595703125
2.3299999,4.345476150512695,-8.777143478393555,0.304063618183136,-6.3934326171875,-1.7852783203125,11.65771484375
2.3499999,4.304774761199951,-8.87291145324707,0.2777273952960968,-5.6610107421875,-0.2593994140625,9.1400146484375
2.3699999,4.261679172515869,-8.949525833129883,0.26575639843940735,-4.2266845703125,4.1351318359375,3.9520263671875
2.3899999,4.244919776916504,-9.014169692993164,0.26575639843940735,-1.922607421875,4.0740966796875,2.4566650390625
2.4099999,4.24970817565918,-9.062053680419922,0.2537853717803955,0.2288818359375,-0.1678466796875,3.2958984375
2.4299999,4.2975921630859375,-9.093177795410156,0.24420857429504395,1.2664794921875,-2.5787353515625,3.5552978515625
2.4499999,4.323928356170654,-9.100360870361328,0.2537853717803955,1.678466796875,-1.4801025390625,2.7618408203125
2.4699999,4.355052947998047,-9.081207275390625,0.26815059781074524,1.7242431640625,-0.2899169921875,1.9989013671875
2.4899999,4.364629745483398,-9.030928611755371,0.2753331959247589,1.5411376953125,1.7242431640625,0.67138671875
2.5099999,4.331110954284668,-8.978256225585938,0.2944868206977844,1.9378662109375,3.3416748046875,-0.8544921875
2.5299999,4.299986362457275,-8.89685344696045,0.29209262132644653,2.38037109375,1.251220703125,-0.274658203125
2.5499999,4.2760443687438965,-8.793902397155762,0.30885201692581177,1.77001953125,-2.0751953125,2.044677734375
2.5699999,4.268861770629883,-8.69334602355957,0.33039984107017517,0.1678466796875,-0.3814697265625,3.0364990234375
2.5899999,4.264073371887207,-8.609549522399902,0.33997663855552673,-1.0986328125,2.838134765625,2.74658203125
2.6099999,4.259284973144531,-8.554482460021973,0.3495534360408783,-0.6866455078125,2.288818359375,2.62451171875
2.6299999,4.242525577545166,-8.540117263793945,0.3256114423274994,0.152587890625,0.0152587890625,3.0517578125
2.6499999,4.206612586975098,-8.56645393371582,0.3232172429561615,-0.2899169921875,-0.0152587890625,2.8533935546875
2.6699999,4.19224739074707,-8.619126319885254,0.30885201692581177,-1.495361328125,1.6632080078125,2.166748046875
2.6899999,4.19224739074707,-8.729259490966797,0.3280056416988373,-1.89208984375,2.1209716796875,3.35693359375
2.7099999,4.199429988861084,-8.83699893951416,0.3280056416988373,-1.46484375,0.762939453125,6.683349609375
2.7299999,4.201824188232422,-8.949525833129883,0.3519476354122162,-1.6632080078125,-0.6103515625,8.941650390625
2.7499999,4.165910720825195,-8.992621421813965,0.3423708379268646,-2.8228759765625,0.213623046875,7.476806640625
2.7699999,4.125209331512451,-8.98543930053711,0.33039984107017517,-2.960205078125,2.0904541015625,3.9215087890625
2.7899999,4.098873138427734,-8.927978515625,0.28969839215278625,-1.373291015625,2.50244140625,2.105712890625
2.8099999,4.0964789390563965,-8.865729331970215,0.2322375625371933,0.8087158203125,1.220703125,3.2806396484375
2.8299999,4.153939723968506,-8.813055992126465,0.2082955539226532,2.01416015625,-1.1749267578125,5.7373046875
2.8499999,4.199429988861084,-8.786720275878906,0.19632454216480255,1.251220703125,-1.678466796875,7.3699951171875
2.8699999,4.242525577545166,-8.796297073364258,0.22505496442317963,0.18310546875,-0.1220703125,7.99560546875
2.8899999,4.235342979431152,-8.829815864562988,0.23942017555236816,-0.457763671875,1.5869140625,9.1705322265625
2.9099999,4.182670593261719,-8.884882926940918,0.23702596127986908,-0.2899169921875,1.0528564453125,10.9710693359375
2.9299999,4.091690540313721,-8.920795440673828,0.21547815203666687,0.579833984375,-0.579833984375,11.8560791015625
2.9499999,3.995922565460205,-8.937555313110352,0.19632454216480255,0.48828125,-1.6632080078125,11.7034912109375
2.9699999,3.912125587463379,-8.9064302444458,0.16759411990642548,-0.3204345703125,-0.1983642578125,11.3372802734375
2.9899999,3.864241600036621,-8.865729331970215,0.15562310814857483,-0.457763671875,3.265380859375,11.0015869140625
3.0099999,3.8522706031799316,-8.844181060791016,0.1388636976480484,-0.2288818359375,5.5694580078125,11.7950439453125
3.0299999,3.866635799407959,-8.834604263305664,0.13407529890537262,-0.8087158203125,5.0506591796875,14.8162841796875
3.0499999,3.864241600036621,-8.856152534484863,0.13407529890537262,-1.434326171875,3.4637451171875,18.5394287109375
3.0699999,3.8498764038085938,-8.882488250732422,0.13168109953403473,-1.8157958984375,2.38037109375,19.8822021484375
3.0899999,3.804386615753174,-8.904036521911621,0.12928688526153564,-3.143310546875,3.082275390625,19.012451171875
3.1099999,3.7421371936798096,-8.925583839416504,0.11013327538967133,-4.547119140625,3.7384033203125,18.7530517578125
3.1299999,3.6822822093963623,-8.923190116882324,0.09816227108240128,-5.79833984375,4.5928955078125,20.751953125
3.1499999,3.6343982219696045,-8.923190116882324,0.09816227108240128,-7.01904296875,4.39453125,22.76611328125
3.1699999,3.5649664402008057,-8.882488250732422,0.09576806426048279,-8.7890625,1.7547607421875,24.3682861328125
3.1899999,3.5170822143554688,-8.808267593383789,0.10055647045373917,-10.3607177734375,-0.7476806640625,26.458740234375
3.2099999,3.4356794357299805,-8.777143478393555,0.0694318488240242,-11.4898681640625,-0.1678466796875,28.25927734375
3.2299999,3.3662476539611816,-8.736441612243652,0.05027823522686958,-11.5966796875,2.166748046875,29.2510986328125
3.2499999,3.2800562381744385,-8.791508674621582,0.002394201699644327,-11.0626220703125,1.1138916015625,30.6549072265625
3.2699999,3.1890766620635986,-8.829815864562988,-0.038307227194309235,-10.5438232421875,-1.922607421875,33.4014892578125
3.2899999,3.098097085952759,-8.908824920654297,-0.08858546614646912,-9.58251953125,-3.021240234375,36.6363525390625
3.3099999,2.9688100814819336,-8.947132110595703,-0.1412578970193863,-8.0413818359375,-1.190185546875,38.116455078125
3.3299999000000002,2.853888511657715,-8.975862503051758,-0.2106897532939911,-6.072998046875,0.6103515625,37.8570556640625
3.3499999,2.7030537128448486,-9.042900085449219,-0.27054479718208313,-3.4332275390625,-0.396728515625,38.5284423828125
3.3699999,2.58813214302063,-9.121908187866211,-0.30885201692581177,-0.06103515625,-7.6446533203125,43.609619140625
3.3899999,2.513911724090576,-9.141061782836914,-0.33758243918418884,2.410888671875,-14.16015625,50.384521484375
3.4099999,2.477998733520508,-9.220070838928223,-0.33279404044151306,4.486083984375,-15.2130126953125,56.5643310546875
3.4299999,2.4013843536376953,-9.208099365234375,-0.33279404044151306,5.7220458984375,-16.0675048828125,63.7359619140625
3.4499999,2.2697031497955322,-9.222464561462402,-0.38546648621559143,6.2103271484375,-15.5181884765625,69.7784423828125
3.4699999,1.9728221893310547,-9.435548782348633,-0.6536170840263367,16.2200927734375,-17.2576904296875,69.1375732421875
3.4899999,1.7070658206939697,-9.526528358459473,-0.8212111592292786,43.5638427734375,-26.580810546875,66.8182373046875
3.5099999,1.4221558570861816,-9.694122314453125,-0.9409212470054626,55.7861328125,-23.284912109375,70.831298828125
3.5299999,1.2473790645599365,-9.670180320739746,-0.7565677165985107,46.7681884765625,-7.5531005859375,72.7996826171875
3.5499999,1.1013327836990356,-9.533711433410645,-0.3016694188117981,35.09521484375,10.55908203125,70.8770751953125
3.5699999,0.8571242094039917,-9.375694274902344,0.2513911724090576,23.101806640625,17.791748046875,69.6563720703125
3.5899999,0.4429273009300232,-9.241618156433105,0.7206547260284424,15.7318115234375,14.34326171875,70.5413818359375
3.6099999,-0.0694318488240242,-9.148244857788086,1.036689281463623,14.495849609375,6.3018798828125,66.46728515625
3.6299999,-0.5506663918495178,-9.0859956741333,1.2066776752471924,12.359619140625,0.3204345703125,56.6558837890625
3.6499999,-0.8738836050033569,-9.05247688293457,1.2713210582733154,6.2713623046875,-2.044677734375,53.1463623046875
3.6699999,-0.9528923034667969,-9.004592895507812,1.2832920551300049,-0.48828125,-4.241943359375,60.5621337890625
3.6899999,-0.8643068075180054,-8.980650901794434,1.278503656387329,-4.8370361328125,-4.2877197265625,68.3441162109375
3.7099999,-0.7637503147125244,-8.939949035644531,1.2617442607879639,-7.4920654296875,-3.2501220703125,75.8514404296875
3.7299999,-0.7565677165985107,-8.863334655761719,1.2210428714752197,-9.735107421875,-6.5765380859375,86.3037109375
3.7499999,-0.8930372595787048,-8.793902397155762,1.1683704853057861,-12.4664306640625,-13.48876953125,95.306396484375
3.7699999,-1.170764684677124,-8.719682693481445,1.091755986213684,-16.54052734375,-14.2974853515625,101.348876953125
3.7899999,-2.0853497982025146,-8.635885238647461,0.9002198576927185,-17.8985595703125,-12.725830078125,117.950439453125
3.8099999,-2.7102363109588623,-8.583212852478027,0.790086567401886,-17.0745849609375,-18.49365234375,122.3907470703125
3.8299999000000002,-3.3925838470458984,-8.513781547546387,0.6967126727104187,-15.7318115234375,-21.759033203125,116.607666015625
3.8499999,-4.089296340942383,-8.451532363891602,0.6344634294509888,-15.380859375,-23.3306884765625,113.46435546875
3.8699999,-4.7189717292785645,-8.358158111572266,0.5985504388809204,-16.54052734375,-26.824951171875,116.455078125
3.8899999,-5.219359874725342,-8.26239013671875,0.608127236366272,-17.27294921875,-28.1982421875,111.0992431640625
3.9099999,-5.564124584197998,-8.169015884399414,0.6655880808830261,-17.9901123046875,-22.3846435546875,101.0894775390625
3.9299999,-5.861005783081055,-8.101978302001953,0.730231523513794,-19.287109375,-15.777587890625,102.9815673828125
3.9499999,-6.1052141189575195,-8.030152320861816,0.7948749661445618,-19.927978515625,-22.0184326171875,113.76953125
3.9699999,-6.361393928527832,-7.943961143493652,0.8379706144332886,-21.6522216796875,-31.707763671875,115.081787109375
3.9899999,-6.564900875091553,-7.793126583099365,0.8595184087753296,-23.651123046875,-29.7393798828125,107.4371337890625
4.0099999,-6.754043102264404,-7.6351094245910645,0.8882488012313843,-25.7568359375,-19.71435546875,108.9935302734375
4.029999900000001,-6.981492042541504,-7.457938194274902,0.9145850539207458,-26.5045166015625,-16.5863037109375,118.5302734375
4.0499999,-7.357381820678711,-7.316680431365967,0.9241618514060974,-24.9481201171875,-24.0936279296875,115.53955078125
4.069999900000001,-7.805097579956055,-7.16584587097168,0.9193734526634216,-23.2391357421875,-37.1246337890625,102.1575927734375
4.0899999000000005,-8.221688270568848,-7.058106422424316,0.9193734526634216,-23.193359375,-47.6531982421875,97.6409912109375
4.1099999,-8.451532363891602,-6.9240312576293945,0.9696516990661621,-24.71923828125,-55.6488037109375,107.635498046875
4.1299999000000005,-8.446743965148926,-6.789956092834473,1.0965443849563599,-27.008056640625,-53.8177490234375,115.29541015625
4.1499999,-8.360552787780762,-6.576871871948242,1.2545616626739502,-27.9083251953125,-44.281005859375,117.767333984375
4.1699999000000005,-8.336610794067383,-6.294356346130371,1.403002142906189,-29.2510986328125,-44.525146484375,126.1749267578125
4.1899999,-8.470685958862305,-5.899312973022461,1.5083470344543457,-32.71484375,-57.0068359375,135.8795166015625
4.209999900000001,-8.767566680908203,-5.453991413116455,1.5849615335464478,-37.750244140625,-61.065673828125,130.55419921875
4.2299999,-9.181763648986816,-5.003881454467773,1.6089035272598267,-41.778564453125,-47.943115234375,115.7379150390625
4.249999900000001,-9.674968719482422,-4.568136692047119,1.5753847360610962,-44.3878173828125,-39.642333984375,108.184814453125
4.2699999,-10.137049674987793,-4.156333923339844,1.4724340438842773,-47.5006103515625,-39.3524169921875,99.945068359375
4.289999900000001,-10.527304649353027,-3.84269380569458,1.3048399686813354,-49.896240234375,-29.022216796875,80.8563232421875
4.3099999,-10.819397926330566,-3.6080620288848877,1.1013327836990356,-50.4913330078125,-12.481689453125,65.582275390625
4.329999900000001,-10.99656867980957,-3.485957622528076,0.8906430602073669,-49.3316650390625,-7.1868896484375,62.225341796875
4.3499999,-11.063606262207031,-3.4572272300720215,0.7015010714530945,-46.2799072265625,-14.0838623046875,59.99755859375
4.369999900000001,-11.0300874710083,-3.49314022064209,0.5410895943641663,-41.412353515625,-16.4947509765625,50.4608154296875
4.3899999,-10.893617630004883,-3.5386300086975098,0.43335050344467163,-35.5224609375,-9.9945068359375,41.8548583984375
4.409999900000001,-10.678139686584473,-3.5458126068115234,0.3734954595565796,-29.5257568359375,-4.5318603515625,41.473388671875
4.4299999,-10.409989356994629,-3.5003228187561035,0.3711012601852417,-24.505615234375,-5.5084228515625,44.25048828125
4.449999900000001,-10.180145263671875,-3.383007049560547,0.3974374830722809,-20.6298828125,-5.0048828125,43.3502197265625
4.4699999,-10.017339706420898,-3.1866824626922607,0.4596867263317108,-17.08984375,-1.7547607421875,40.7257080078125
4.489999900000001,-9.93354320526123,-2.9257144927978516,0.5530605912208557,-14.0380859375,0.823974609375,38.055419921875
4.5099999,-9.904812812805176,-2.647987127304077,0.667982280254364,-11.871337890625,1.0833740234375,31.890869140625
4.529999900000001,-9.911994934082031,-2.3918075561523438,0.790086567401886,-11.04736328125,1.28173828125,23.4375
4.5499999,-9.93354320526123,-2.1978771686553955,0.9169792532920837,-11.0015869140625,4.1656494140625,19.04296875
4.569999900000001,-9.976638793945312,-2.0590133666992188,1.01753568649292,-10.6048583984375,4.8828125,20.93505859375
4.5899999000000005,-9.998186111450195,-1.9704279899597168,1.1013327836990356,-9.429931640625,-0.1068115234375,22.6593017578125
4.609999900000001,-10.002974510192871,-1.886630892753601,1.158793568611145,-8.36181640625,-1.922607421875,21.8658447265625
4.6299999000000005,-9.988609313964844,-1.7956513166427612,1.2114660739898682,-7.659912109375,0.06103515625,23.2391357421875
4.6499999,-10.02691650390625,-1.6519991159439087,1.2713210582733154,-8.087158203125,-1.64794921875,25.6805419921875
4.6699999000000005,-10.086771965026855,-1.479616641998291,1.3479355573654175,-10.1165771484375,-9.185791015625,20.4925537109375
4.6899999,-10.146626472473145,-1.290474772453308,1.4460978507995605,-13.0767822265625,-11.749267578125,10.162353515625
4.709999900000001,-10.158597946166992,-1.1037269830703735,1.5418659448623657,-15.0604248046875,-3.96728515625,4.7607421875
4.7299999,-10.08437728881836,-0.9385270476341248,1.6208745241165161,-15.716552734375,2.8076171875,6.103515625
4.749999900000001,-9.974244117736816,-0.8092401623725891,1.6735470294952393,-16.54052734375,1.5106201171875,7.5531005859375
4.7699999,-9.914389610290527,-0.7086837291717529,1.6950948238372803,-17.5933837890625,-3.0059814453125,8.36181640625
4.789999900000001,-9.919178009033203,-0.6392518281936646,1.6879122257232666,-18.6309814453125,-7.7056884765625,9.5672607421875
4.8099999,-9.919178009033203,-0.608127236366272,1.680729627609253,-19.7906494140625,-9.58251953125,10.6353759765625
4.829999900000001,-9.938331604003906,-0.6033388376235962,1.6663644313812256,-21.0113525390625,-1.77001953125,11.383056640625
4.8499999,-9.981427192687988,-0.6129156351089478,1.644816517829895,-20.9503173828125,4.1046142578125,12.3748779296875
4.869999900000001,-10.050858497619629,-0.608127236366272,1.623268723487854,-21.97265625,-3.143310546875,13.8092041015625
4.8899999,-10.11789608001709,-0.5937620401382446,1.5849615335464478,-23.5595703125,-10.7421875,13.73291015625
4.909999900000001,-10.093954086303711,-0.5817909836769104,1.5394717454910278,-23.62060546875,-8.36181640625,12.847900390625
4.9299999,-9.998186111450195,-0.5793967843055725,1.479616641998291,-22.27783203125,1.52587890625,14.892578125
4.949999900000001,-9.856928825378418,-0.5746083855628967,1.4077905416488647,-20.263671875,6.89697265625,18.890380859375
4.9699999,-9.77791976928711,-0.5722141861915588,1.3407529592514038,-19.4549560546875,7.6751708984375,20.44677734375
4.989999900000001,-10.02452278137207,-0.6105214357376099,1.256955862045288,-19.4091796875,11.627197265625,16.29638671875
5.0099999,-10.146626472473145,-0.6368576288223267,1.1420341730117798,-17.974853515625,12.359619140625,4.3182373046875
5.029999900000001,-10.460267066955566,-0.7230489253997803,1.01753568649292,-14.0838623046875,9.4451904296875,9.735107421875
5.0499999,-10.457873344421387,-0.8068459630012512,0.8690952062606812,-8.4228515625,6.256103515625,10.9405517578125
5.069999900000001,-10.295066833496094,-0.8882488012313843,0.7589619159698486,-2.655029296875,5.523681640625,11.7950439453125
5.0899999000000005,-10.065223693847656,-0.9481038451194763,0.6847416758537292,2.62451171875,4.5318603515625,15.1824951171875
5.109999900000001,-9.943120002746582,-0.9600749015808105,0.7038952708244324,6.744384765625,-0.0152587890625,14.09912109375
5.1299999000000005,-9.818621635437012,-0.8930372595787048,0.7398083209991455,7.232666015625,-7.32421875,7.4005126953125
5.1499999,-9.911994934082031,-0.768538773059845,0.8236053586006165,6.317138671875,-3.5247802734375,13.7481689453125
5.1699999000000005,-9.945513725280762,-0.5674257874488831,0.9026140570640564,5.767822265625,-2.899169921875,15.4266357421875
5.1899999,-9.955090522766113,-0.33758243918418884,1.0055646896362305,4.2266845703125,-3.753662109375,13.5498046875
5.209999900000001,-9.931148529052734,-0.12928688526153564,1.0797849893569946,1.7547607421875,-3.0059814453125,10.7421875
5.2299999,-9.90241813659668,0.06703764945268631,1.139639973640442,1.0528564453125,-2.8076171875,7.8582763671875
5.249999900000001,-9.871294021606445,0.20350714027881622,1.2066776752471924,0.2593994140625,-3.4942626953125,5.279541015625
5.2699999,-9.854534149169922,0.2777273952960968,1.235408067703247,-2.105712890625,-2.166748046875,3.7689208984375
5.289999900000001,-9.86650562286377,0.2801215946674347,1.213860273361206,-1.190185546875,-1.1444091796875,1.7242431640625
5.3099999,-9.890447616577148,0.181959331035614,1.2473790645599365,4.4403076171875,-3.143310546875,-0.518798828125
5.329999900000001,-9.86889934539795,0.090979665517807,1.3551181554794312,5.8746337890625,-2.471923828125,-0.1678466796875
5.3499999,-9.84256362915039,0.009576806798577309,1.5658079385757446,1.4495849609375,4.3182373046875,0.0762939453125
5.369999900000001,-9.794678688049316,-0.05746084079146385,1.8579005002975464,-4.150390625,12.26806640625,-1.4495849609375
5.3899999,-9.715670585632324,-0.12210428714752197,2.0901381969451904,-9.2010498046875,18.4326171875,-1.0223388671875
5.409999900000001,-9.6989107131958,-0.21547815203666687,2.1332337856292725,-12.1917724609375,22.857666015625,2.044677734375
5.4299999,-9.746794700622559,-0.35434186458587646,1.9488801956176758,-11.3372802734375,24.8870849609375,4.57763671875
5.449999900000001,-9.84256362915039,-0.47405192255973816,1.5658079385757446,-7.26318359375,23.5443115234375,6.28662109375
5.4699999,-9.928754806518555,-0.5267243981361389,1.0534487962722778,-1.64794921875,19.3328857421875,7.6446533203125
5.489999900000001,-10.014945983886719,-0.49320554733276367,0.48602294921875,4.4708251953125,12.9852294921875,7.080078125
5.5099999,-10.108319282531738,-0.38067805767059326,-0.031124621629714966,12.5579833984375,5.096435546875,4.2724609375
5.529999900000001,-10.15141487121582,-0.20350714027881622,-0.3519476354122162,19.1192626953125,-3.5400390625,2.7313232421875
5.5499999,-10.182539939880371,0.019153613597154617,-0.4381389021873474,17.5018310546875,-8.2244873046875,2.3193359375
5.569999900000001,-10.15141487121582,0.22266076505184174,-0.2322375625371933,10.9710693359375,-8.1939697265625,-0.8087158203125
5.5899999000000005,-10.079588890075684,0.33518823981285095,0.12689268589019775,3.4027099609375,-6.439208984375,-3.5247802734375
5.609999900000001,-10.007762908935547,0.33518823981285095,0.5123591423034668,-0.54931640625,-5.157470703125,-3.5858154296875
5.6299999000000005,-9.947908401489258,0.2777273952960968,0.8690952062606812,-1.7242431640625,-5.37109375,-2.13623046875
5.6499999,-9.931148529052734,0.15083470940589905,1.115697979927063,-2.410888671875,-3.47900390625,-2.288818359375
5.6699999000000005,-9.916783332824707,-0.002394201699644327,1.1324573755264282,0.30517578125,-2.5482177734375,-3.47900390625
5.6899999,-9.940725326538086,-0.16759411990642548,1.1037269830703735,6.3323974609375,-4.7760009765625,-1.2359619140625
5.709999900000001,-9.962273597717285,-0.35434186458587646,0.9720458984375,11.0626220703125,-7.965087890625,3.4942626953125
5.7299999,-9.979032516479492,-0.44532153010368347,0.8379706144332886,11.6119384765625,-9.0179443359375,6.4697265625
5.749999900000001,-9.998186111450195,-0.5219359993934631,0.7829039692878723,12.2222900390625,-11.0321044921875,7.3699951171875
5.7699999,-9.981427192687988,-0.4572925269603729,0.7565677165985107,17.6239013671875,-16.1895751953125,6.2103271484375
5.789999900000001,-9.923966407775879,-0.2777273952960968,0.950498104095459,18.768310546875,-16.357421875,4.1351318359375
5.8099999,-9.801861763000488,0.05267243832349777,1.278503656387329,5.615234375,-6.8817138671875,0.8544921875
5.829999900000001,-9.677363395690918,0.47165772318840027,1.6974890232086182,-12.5732421875,7.01904296875,-4.1046142578125
5.8499999,-9.641449928283691,0.8020575642585754,2.0422539710998535,-23.7884521484375,14.8468017578125,-7.2021484375
5.869999900000001,-9.658209800720215,0.9193734526634216,2.030282974243164,-24.8565673828125,15.4571533203125,-6.9427490234375
5.8899999,-9.80904483795166,0.6775590777397156,1.742978811264038,-15.625,13.7481689453125,-6.1187744140625
5.909999900000001,-9.96945571899414,0.19871874153614044,1.1252747774124146,1.0223388671875,8.514404296875,-4.7149658203125
5.9299999,-10.146626472473145,-0.3758896589279175,0.5051765441894531,19.561767578125,-3.84521484375,0.335693359375
5.949999900000001,-10.244789123535156,-0.8092401623725891,0,32.8369140625,-19.71435546875,3.6163330078125
5.9699999,-10.261548042297363,-1.0845733880996704,-0.16998831927776337,36.0870361328125,-25.238037109375,2.2735595703125
5.989999900000001,-10.156203269958496,-1.0558429956436157,0.028730420395731926,29.998779296875,-20.965576171875,1.617431640625
6.0099999,-9.95748519897461,-0.7613561153411865,0.5530605912208557,18.829345703125,-12.9547119140625,4.5166015625
6.029999900000001,-9.797073364257812,-0.28730419278144836,1.1899182796478271,6.53076171875,-6.2255859375,7.8277587890625
6.0499999,-9.684545516967773,0.2082955539226532,1.7549498081207275,-2.838134765625,-0.1220703125,6.4544677734375
6.069999900000001,-9.672574996948242,0.6607996821403503,2.1380221843719482,-7.5531005859375,5.584716796875,4.7149658203125
6.0899999000000005,-9.715670585632324,0.9241618514060974,2.2816741466522217,-9.5062255859375,6.53076171875,4.0740966796875
6.109999900000001,-9.780313491821289,0.9792284965515137,2.2385785579681396,-13.9617919921875,3.9215087890625,0.7171630859375
6.1299999000000005,-9.80904483795166,0.8188169598579407,2.0470423698425293,-18.4173583984375,6.65283203125,-5.3558349609375
6.149999900000001,-9.797073364257812,0.5363011956214905,1.778891921043396,-17.7001953125,11.6424560546875,-8.758544921875
6.1699999000000005,-9.823410034179688,0.21308395266532898,1.5298948287963867,-13.00048828125,15.5181884765625,-5.157470703125
6.1899999,-9.821015357971191,-0.10534487664699554,1.2641384601593018,-7.9345703125,14.5263671875,0.274658203125
6.209999900000001,-9.907206535339355,-0.31364041566848755,0.9864110946655273,-1.9989013671875,12.5885009765625,1.1749267578125
6.2299999,-10.007762908935547,-0.40701428055763245,0.7493851184844971,5.9967041015625,8.6212158203125,3.5247802734375
6.249999900000001,-10.093954086303711,-0.4213795065879822,0.5051765441894531,11.53564453125,-2.2430419921875,5.7373046875
6.2699999,-10.132261276245117,-0.3711012601852417,0.37828385829925537,11.65771484375,-10.0555419921875,1.9073486328125
6.289999900000001,-10.098742485046387,-0.2968810200691223,0.3519476354122162,10.6048583984375,-9.2926025390625,-2.8228759765625
6.3099999,-10.022128105163574,-0.17238251864910126,0.49320554733276367,11.5203857421875,-5.157470703125,-2.105712890625
6.329999900000001,-9.940725326538086,-0.05746084079146385,0.7134721279144287,9.7503662109375,-4.119873046875,2.7618408203125
6.3499999,-9.854534149169922,0.10055647045373917,0.9600749015808105,3.7078857421875,-2.9296875,3.6468505859375
6.369999900000001,-9.86889934539795,0.22744916379451752,1.1755530834197998,-0.9613037109375,-0.54931640625,3.875732421875
6.3899999,-9.854534149169922,0.3687070608139038,1.3239935636520386,-3.9825439453125,-2.5787353515625,6.6986083984375
6.409999900000001,-9.880870819091797,0.4118026793003082,1.4532804489135742,-7.8887939453125,-6.9427490234375,4.150390625
6.4299999,-9.880870819091797,0.3974374830722809,1.4772224426269531,-10.0250244140625,-4.8828125,-3.6163330078125
6.449999900000001,-9.883264541625977,0.2753331959247589,1.4532804489135742,-6.9732666015625,0.396728515625,-5.9814453125
6.4699999,-9.883264541625977,0.14604631066322327,1.3958195447921753,-0.54931640625,2.25830078125,0.213623046875
6.489999900000001,-9.871294021606445,-0.028730420395731926,1.3335703611373901,1.40380859375,0.946044921875,4.058837890625
6.5099999,-9.86650562286377,-0.12210428714752197,1.2689268589019775,0.701904296875,2.838134765625,4.058837890625
6.529999900000001,-9.904812812805176,-0.1149216815829277,1.2521674633026123,0.79345703125,4.69970703125,5.1116943359375
6.5499999,-9.885659217834473,0.019153613597154617,1.2641384601593018,-0.8697509765625,2.1514892578125,6.8817138671875
6.569999900000001,-9.945513725280762,0.19153612852096558,1.2234370708465576,-3.7078857421875,-3.143310546875,4.4403076171875
6.5899999000000005,-9.916783332824707,0.35673606395721436,1.2186486721038818,-4.791259765625,-2.9449462890625,-3.326416015625
6.609999900000001,-9.916783332824707,0.44771572947502136,1.194706678390503,-2.0904541015625,0.823974609375,-7.5836181640625
6.6299999000000005,-9.926360130310059,0.4141969084739685,1.1659762859344482,2.25830078125,4.0283203125,-4.425048828125
6.649999900000001,-9.914389610290527,0.40462008118629456,1.2282254695892334,2.2430419921875,3.265380859375,-1.28173828125
6.6699999000000005,-9.897629737854004,0.35434186458587646,1.2665326595306396,-2.2735595703125,6.4239501953125,-2.3956298828125
6.6899999,-9.892841339111328,0.38067805767059326,1.3000515699386597,-4.9896240234375,8.23974609375,-1.7242431640625
6.709999900000001,-9.897629737854004,0.3423708379268646,1.3335703611373901,-5.523681640625,2.4566650390625,-1.77001953125
6.7299999,-9.9000244140625,0.2082955539226532,1.2473790645599365,-5.2947998046875,-1.1444091796875,-5.1116943359375
6.749999900000001,-9.919178009033203,-0.014365210197865963,1.1348515748977661,-0.579833984375,-0.1373291015625,-7.904052734375
6.7699999,-9.892841339111328,-0.21547815203666687,1.0127472877502441,6.0882568359375,2.13623046875,-6.3018798828125
6.789999900000001,-9.888052940368652,-0.3998316824436188,0.9864110946655273,8.575439453125,2.166748046875,0.7171630859375
6.8099999,-9.885659217834473,-0.31124621629714966,1.0773907899856567,1.0528564453125,4.669189453125,3.387451171875
6.829999900000001,-9.86889934539795,-0.17717093229293823,1.1827356815338135,-9.7503662109375,9.4757080078125,4.913330078125
6.8499999,-9.928754806518555,0.10055647045373917,1.278503656387329,-15.5181884765625,7.720947265625,5.06591796875
6.869999900000001,-9.974244117736816,0.2346317619085312,1.139639973640442,-14.0838623046875,-0.1678466796875,3.47900390625
6.8899999,-10.010157585144043,0.2322375625371933,0.8451532125473022,-4.82177734375,-6.591796875,-1.0833740234375
6.909999900000001,-10.079588890075684,0.11971008777618408,0.5267243981361389,9.1094970703125,-11.0931396484375,-5.8746337890625
6.9299999,-10.074800491333008,-0.11252748221158981,0.2968810200691223,22.4609375,-13.4735107421875,-4.5623779296875
6.949999900000001,-10.046070098876953,-0.19632454216480255,0.3423708379268646,26.641845703125,-16.1895751953125,1.0528564453125
6.9699999,-9.96945571899414,-0.16519992053508759,0.6153098344802856,18.5089111328125,-13.671875,4.4097900390625
6.989999900000001,-9.895236015319824,0.0454898327589035,1.1204863786697388,5.5694580078125,-8.4075927734375,4.57763671875
7.0099999,-9.792284965515137,0.3280056416988373,1.656787633895874,-5.4779052734375,-4.1656494140625,2.9144287109375
7.029999900000001,-9.746794700622559,0.5003881454467773,2.0422539710998535,-12.0697021484375,-2.1514892578125,1.0833740234375
7.0499999,-9.710882186889648,0.5147533416748047,2.212242364883423,-12.2833251953125,0.9765625,-2.838134765625
7.069999900000001,-9.706093788146973,0.363918662071228,2.1332337856292725,-9.0484619140625,5.5999755859375,-4.8980712890625
7.0899999000000005,-9.727641105651855,0.17717093229293823,1.9057846069335938,-7.99560546875,10.7269287109375,-2.38037109375
7.109999900000001,-9.758766174316406,0.043095629662275314,1.5897499322891235,-8.453369140625,10.4522705078125,1.8157958984375
7.1299999000000005,-9.849745750427246,0.009576806798577309,1.316810965538025,-9.82666015625,7.415771484375,4.0740966796875
7.149999900000001,-9.940725326538086,0.023942016065120697,1.05105459690094,-9.21630859375,5.7525634765625,4.6234130859375
7.1699999000000005,-10.019734382629395,0.08140286058187485,0.8762778043746948,-2.6397705078125,-1.068115234375,3.2196044921875
7.1899999,-10.101137161254883,0.05985504388809204,0.768538773059845,3.0059814453125,-8.453369140625,0.42724609375
7.209999900000001,-10.089165687561035,0.043095629662275314,0.7374141216278076,6.7138671875,-10.6048583984375,-2.288818359375
7.2299999,-10.031704902648926,-0.002394201699644327,0.8092401623725891,10.467529296875,-9.2010498046875,-3.6773681640625
7.249999900000001,-9.938331604003906,-0.004788403399288654,0.9888052940368652,11.8865966796875,-4.1961669921875,-3.0670166015625
7.2699999,-9.84495735168457,0.07182604819536209,1.2617442607879639,9.6893310546875,-1.190185546875,0.4730224609375
7.289999900000001,-9.782708168029785,0.18914192914962769,1.5203180313110352,2.655029296875,0.79345703125,3.84521484375
7.3099999,-9.792284965515137,0.37828385829925537,1.7836803197860718,-5.3558349609375,3.96728515625,4.0435791015625
7.329999900000001,-9.737217903137207,0.5506663918495178,1.9776105880737305,-13.9923095703125,5.3253173828125,1.2054443359375
7.3499999,-9.75397777557373,0.6009446382522583,2.0159177780151367,-21.9879150390625,7.1258544921875,-1.739501953125
7.369999900000001,-9.75397777557373,0.507570743560791,1.9081788063049316,-21.6217041015625,8.4381103515625,-4.0130615234375
7.3899999,-9.746794700622559,0.3208230137825012,1.6927006244659424,-13.7786865234375,8.941650390625,-5.615234375
7.409999900000001,-9.816226959228516,0.08140286058187485,1.4676456451416016,-8.056640625,13.336181640625,-4.3182373046875
7.4299999,-9.825803756713867,-0.07182604819536209,1.259350061416626,-7.2021484375,16.6473388671875,-0.7781982421875
7.449999900000001,-9.888052940368652,-0.06224924325942993,1.158793568611145,-7.2784423828125,15.2740478515625,0.8544921875
7.4699999,-9.928754806518555,0.0454898327589035,0.9888052940368652,-7.843017578125,11.9476318359375,-0.091552734375
7.489999900000001,-10.029311180114746,0.08140286058187485,0.7589619159698486,-5.3863525390625,5.0201416015625,-1.220703125
7.5099999,-10.189722061157227,-0.1173158809542656,0.1843535304069519,11.688232421875,-13.61083984375,-1.739501953125
7.529999900000001,-10.201693534851074,-0.3687070608139038,0.09816227108240128,22.3541259765625,-19.47021484375,-1.8768310546875
7.5499999,-10.11789608001709,-0.4884171485900879,0.16519992053508759,24.8260498046875,-17.15087890625,-0.9613037109375
7.569999900000001,-10.029311180114746,-0.4118026793003082,0.5147533416748047,19.073486328125,-12.39013671875,3.1890869140625
7.5899999000000005,-9.885659217834473,-0.1412578970193863,1.0199298858642578,8.1634521484375,-10.3302001953125,6.6986083984375
7.609999900000001,-9.758766174316406,0.2561795711517334,1.5921441316604614,-7.8125,-5.523681640625,7.720947265625
7.6299999000000005,-9.734824180603027,0.5626373887062073,2.0254945755004883,-21.3470458984375,2.01416015625,5.3253173828125
7.649999900000001,-9.713275909423828,0.6871358752250671,2.2409727573394775,-24.23095703125,2.899169921875,2.7618408203125
7.6699999000000005,-9.761159896850586,0.5889736413955688,2.190694570541382,-18.1121826171875,-0.0152587890625,1.8157958984375
7.6899999,-9.813833236694336,0.3687070608139038,1.968033790588379,-8.4686279296875,-1.0223388671875,-0.54931640625
7.709999900000001,-9.828198432922363,0.1149216815829277,1.5921441316604614,0.091552734375,1.678466796875,-3.0517578125
7.7299999,-9.871294021606445,-0.06464344263076782,1.316810965538025,6.28662109375,4.8828125,-0.885009765625
7.749999900000001,-9.873687744140625,-0.08858546614646912,1.0582371950149536,10.040283203125,1.8768310546875,2.3193359375
7.7699999,-9.9000244140625,0.05985504388809204,0.9576807022094727,10.101318359375,-1.28173828125,2.9296875
7.789999900000001,-9.955090522766113,0.2801215946674347,0.9289502501487732,8.270263671875,-1.190185546875,-1.1749267578125
7.8099999,-9.971850395202637,0.4357447028160095,0.9840168952941895,10.31494140625,-5.79833984375,-6.0882568359375
7.829999900000001,-9.981427192687988,0.49559974670410156,1.1228805780410767,11.993408203125,-11.260986328125,-6.5155029296875
7.8499999,-9.926360130310059,0.3495534360408783,1.3503297567367554,7.8277587890625,-8.97216796875,-5.0048828125
7.869999900000001,-9.832986831665039,0.12689268589019775,1.6376339197158813,-0.0762939453125,-0.946044921875,-5.8441162109375
7.8899999,-9.734824180603027,-0.0694318488240242,1.8746598958969116,-6.2255859375,9.82666015625,-4.486083984375
7.909999900000001,-9.682151794433594,-0.14365209639072418,1.9632453918457031,-8.4686279296875,13.641357421875,4.3487548828125
7.9299999,-9.708487510681152,-0.08140286058187485,1.86508309841156,-10.711669921875,12.359619140625,8.1787109375
7.949999900000001,-9.835380554199219,0.05027823522686958,1.5466543436050415,-10.6048583984375,9.429931640625,5.1422119140625
7.9699999,-9.995792388916016,0.1867477297782898,1.1300631761550903,-1.983642578125,0.885009765625,2.288818359375
7.989999900000001,-10.11789608001709,0.2298433631658554,0.7086837291717529,9.7503662109375,-13.458251953125,-0.06103515625
8.0099999,-10.20648193359375,0.17956513166427612,0.3998316824436188,17.822265625,-20.233154296875,-2.838134765625
8.0299999,-10.144232749938965,0.05985504388809204,0.4189853072166443,21.392822265625,-21.17919921875,-6.0577392578125
8.049999900000001,-9.988609313964844,-0.023942016065120697,0.7110779285430908,18.37158203125,-14.7857666015625,-6.1798095703125
8.069999900000001,-9.797073364257812,0.004788403399288654,1.338358759880066,7.4310302734375,-4.7607421875,1.2664794921875
8.0899999,-9.617507934570312,0.17477671802043915,2.027888774871826,-7.537841796875,4.8370361328125,6.2103271484375
8.1099999,-9.545681953430176,0.3687070608139038,2.5115175247192383,-20.7366943359375,13.9312744140625,5.1727294921875
8.129999900000001,-9.591172218322754,0.5291185975074768,2.631227731704712,-22.5067138671875,15.9149169921875,2.7923583984375
8.149999900000001,-9.66539192199707,0.5578489899635315,2.387019157409668,-14.5416259765625,7.8582763671875,0.8544921875
8.1699999,-9.840168952941895,0.3902548849582672,1.8602946996688843,-5.615234375,1.7852783203125,-1.2054443359375
8.1899999,-9.938331604003906,0.15801730751991272,1.3407529592514038,3.7994384765625,-1.52587890625,-5.55419921875
8.2099999,-9.950302124023438,-0.047884032130241394,0.9959878921508789,11.3372802734375,-1.495361328125,-6.5765380859375
8.229999900000001,-9.914389610290527,-0.09576806426048279,0.9768342971801758,9.002685546875,2.4566650390625,-1.5411376953125
8.2499999,-9.823410034179688,0.07900865375995636,1.3072341680526733,-8.9263916015625,10.2386474609375,2.3345947265625
8.2699999,-9.710882186889648,0.3926490843296051,1.7310078144073486,-34.7137451171875,20.660400390625,-0.396728515625
8.2899999,-9.600749015808105,0.7038952708244324,2.1787235736846924,-50.3692626953125,27.0538330078125,0
8.309999900000001,-9.581595420837402,0.8762778043746948,2.4229321479797363,-59.6771240234375,29.4647216796875,0.18310546875
8.3299999,-9.531316757202148,0.8092401623725891,2.360682964324951,-71.1822509765625,36.6668701171875,0.67138671875
8.3499999,-9.552865028381348,0.6105214357376099,2.1739351749420166,-76.1566162109375,43.1976318359375,2.960205078125
8.3699999,-8.710105895996094,0.11013327538967133,1.3742717504501343,-76.5228271484375,42.66357421875,6.439208984375
8.389999900000001,-8.018181800842285,-0.8427590131759644,0.2944868206977844,-29.2510986328125,34.7137451171875,26.2451171875
8.4099999,-7.419631004333496,-1.6974890232086182,-0.9624691009521484,58.8226318359375,-4.5928955078125,7.8887939453125
8.4299999,-7.740454196929932,-2.31758713722229,-1.9345149993896484,108.2000732421875,-27.6336669921875,12.87841796875
8.4499999,-9.38048267364502,-1.8914192914962769,-1.9273324012756348,101.4556884765625,-33.0352783203125,26.7333984375
8.469999900000001,-11.710040092468262,-0.4357447028160095,-0.6847416758537292,66.070556640625,-22.64404296875,21.209716796875
8.4899999,-13.113042831420898,1.5610195398330688,1.1971008777618408,-11.9476318359375,10.55908203125,2.9296875
8.5099999,-13.601459503173828,3.378218650817871,3.1747114658355713,-97.8240966796875,59.967041015625,-1.52587890625
8.5299999,-12.36365795135498,4.101267337799072,3.8067808151245117,-137.939453125,79.2083740234375,-9.796142578125
8.549999900000001,-10.994174003601074,3.3518824577331543,2.695871114730835,-111.0992431640625,66.0247802734375,-2.1820068359375
8.569999900000001,-9.48343276977539,1.6376339197158813,0.363918662071228,-27.8472900390625,8.4686279296875,-5.767822265625
8.5899999,-8.932766914367676,-0.4596867263317108,-2.169146776199341,47.8515625,-38.848876953125,1.8463134765625
8.6099999,-8.87291145324707,-1.8555063009262085,-3.5027170181274414,91.644287109375,-59.9365234375,8.48388671875
8.629999900000001,-9.038111686706543,-2.1332337856292725,-3.1651346683502197,94.146728515625,-54.7637939453125,9.5367431640625
8.649999900000001,-9.361329078674316,-1.3072341680526733,-1.522712230682373,64.605712890625,-31.646728515625,8.11767578125
8.6699999,-9.68933391571045,0.05746084079146385,0.5363011956214905,25.970458984375,-5.615234375,1.4495849609375
8.6899999,-9.981427192687988,1.3886369466781616,2.1595699787139893,-3.6773681640625,10.1165771484375,-10.406494140625
8.709999900000001,-10.266336441040039,2.166752576828003,2.808398485183716,-13.824462890625,13.9007568359375,-18.61572265625
8.729999900000001,-10.474632263183594,2.1954829692840576,2.561795711517334,-3.8604736328125,8.2855224609375,-19.6990966796875
8.7499999,-10.587160110473633,1.601720929145813,1.7764976024627686,8.4075927734375,-1.0986328125,-14.862060546875
8.7699999,-10.577583312988281,0.7158663272857666,0.9265560507774353,11.993408203125,-8.6212158203125,-7.7056884765625
8.7899999,-10.445901870727539,-0.0694318488240242,0.3663128614425659,9.6435546875,-11.2457275390625,-0.9613037109375
8.809999900000001,-10.251971244812012,-0.5219359993934631,0.20111294090747833,5.9051513671875,-10.0250244140625,3.2196044921875
8.8299999,-10.041281700134277,-0.5770025849342346,0.36152446269989014,1.220703125,-6.3934326171875,3.8909912109375
8.8499999,-9.77791976928711,-0.3423708379268646,0.7038952708244324,-3.11279296875,-1.0223388671875,1.52587890625
8.8699999,-9.519346237182617,0.031124621629714966,1.0079588890075684,-3.692626953125,5.3863525390625,-0.42724609375
8.889999900000001,-9.29189682006836,0.3734954595565796,1.1444283723831177,-0.152587890625,7.38525390625,-1.7547607421875
8.9099999,-9.148244857788086,0.5410895943641663,1.1180921792984009,3.3721923828125,3.9520263671875,-3.2958984375
8.9299999,-9.14585018157959,0.5171475410461426,1.0055646896362305,2.9144287109375,2.593994140625,-1.8768310546875
8.9499999,-9.308655738830566,0.35673606395721436,0.9097966551780701,0.396728515625,6.011962890625,2.3651123046875
8.969999900000001,-9.560047149658203,0.15562310814857483,0.8331822156906128,-1.1444091796875,8.056640625,5.3253173828125
8.9899999,-9.849745750427246,0.05985504388809204,0.7757213711738586,-0.4119873046875,5.7525634765625,6.256103515625
9.0099999,-10.11550235748291,0.1173158809542656,0.706289529800415,1.861572265625,2.8839111328125,4.5013427734375
9.0299999,-10.249577522277832,0.2585737705230713,0.629675030708313,3.5247802734375,2.13623046875,1.373291015625
9.049999900000001,-10.340557098388672,0.4908113479614258,0.6512228846549988,3.692626953125,2.471923828125,-0.30517578125
9.069999900000001,-10.333374977111816,0.667982280254364,0.7158663272857666,2.8076171875,3.96728515625,-3.6468505859375
9.0899999,-10.29746150970459,0.7422025203704834,0.7829039692878723,1.953125,5.92041015625,-8.7738037109375
9.1099999,-10.268731117248535,0.7254431247711182,0.811634361743927,0.0152587890625,6.1187744140625,-8.026123046875
9.129999900000001,-10.211270332336426,0.5841852426528931,0.7350199222564697,-3.1585693359375,4.3487548828125,-4.82177734375
9.149999900000001,-10.144232749938965,0.38546648621559143,0.5267243981361389,-4.425048828125,0.67138671875,-2.105712890625
9.1699999,-10.093954086303711,0.19153612852096558,0.2968810200691223,-2.8839111328125,-5.55419921875,-0.8544921875
9.1899999,-10.050858497619629,0.026336219161748886,0.08858546614646912,-0.4425048828125,-11.8255615234375,-0.152587890625
9.209999900000001,-10.031704902648926,-0.05506663769483566,0.0454898327589035,1.2969970703125,-15.869140625,1.64794921875
9.229999900000001,-10.019734382629395,-0.035913024097681046,0.2322375625371933,0.5035400390625,-15.625,3.0364990234375
9.2499999,-9.95748519897461,0.05746084079146385,0.6105214357376099,-0.8697509765625,-10.5133056640625,2.0294189453125
9.2699999,-9.890447616577148,0.20111294090747833,1.113303780555725,-1.953125,-3.173828125,1.2054443359375
9.2899999,-9.813833236694336,0.33039984107017517,1.4963760375976562,-3.7384033203125,4.791259765625,1.4495849609375
9.309999900000001,-9.80904483795166,0.4620809257030487,1.7070658206939697,-3.021240234375,8.9874267578125,0.9765625
9.3299999,-9.885659217834473,0.5722141861915588,1.6687586307525635,0.1373291015625,9.5062255859375,-2.8228759765625
9.3499999,-9.959878921508789,0.608127236366272,1.41257905960083,1.8463134765625,9.368896484375,-7.4920654296875
9.3699999,-10.022128105163574,0.5913678407669067,1.048660397529602,-0.5340576171875,7.14111328125,-6.591796875
9.389999900000001,-10.038887977600098,0.47405192255973816,0.706289529800415,-2.7008056640625,2.6397705078125,-4.180908203125
9.4099999,-9.983820915222168,0.28969839215278625,0.49799394607543945,-1.861572265625,0.396728515625,-4.1656494140625
9.4299999,-9.93354320526123,0.06464344263076782,0.42616790533065796,0.030517578125,2.410888671875,-2.593994140625
9.4499999,-9.931148529052734,-0.047884032130241394,0.4668693244457245,0.2899169921875,3.90625,2.6092529296875
9.469999900000001,-9.883264541625977,-0.028730420395731926,0.5817909836769104,0.518798828125,2.13623046875,3.2501220703125
9.4899999,-9.854534149169922,0.2944868206977844,0.828393816947937,-6.3629150390625,3.1280517578125,-1.1749267578125
9.5099999,-9.876082420349121,0.5530605912208557,0.9074024558067322,-24.5208740234375,13.8397216796875,-7.7056884765625
9.5299999,-9.940725326538086,0.706289529800415,1.039083480834961,-26.06201171875,15.655517578125,-9.3994140625
9.549999900000001,-9.96945571899414,0.5817909836769104,0.8906430602073669,-17.9290771484375,8.819580078125,-5.950927734375
9.569999900000001,-10.017339706420898,0.21787235140800476,0.7469909191131592,-15.106201171875,5.6610107421875,-2.471923828125
9.5899999,-10.086771965026855,-0.10055647045373917,0.5578489899635315,-13.8702392578125,7.8887939453125,2.166748046875
9.6099999,-10.211270332336426,-0.33758243918418884,0.35673606395721436,-6.927490234375,3.41796875,4.730224609375
9.629999900000001,-10.350133895874023,-0.2585737705230713,0.2944868206977844,4.6234130859375,-4.5623779296875,1.1138916015625
9.649999900000001,-10.615890502929688,0.090979665517807,0.2753331959247589,3.2806396484375,-5.4779052734375,-5.92041015625
9.6699999,-10.898406028747559,0.6057330369949341,0.21787235140800476,-6.28662109375,5.79833984375,-14.678955078125
9.6899999,-11.441889762878418,1.0127472877502441,0.22744916379451752,-3.0670166015625,13.275146484375,-14.892578125
9.709999900000001,-11.868058204650879,1.216254472732544,0.06224924325942993,3.6163330078125,-8.3770751953125,-22.9644775390625
9.729999900000001,-12.016498565673828,1.0031704902648926,-0.028730420395731926,8.544921875,-18.3258056640625,-27.2979736328125
9.7499999,-11.820174217224121,0.5817909836769104,-0.07422025501728058,15.7318115234375,-19.7296142578125,-14.1143798828125
9.7699999,-10.759542465209961,-0.07182604819536209,0.2801215946674347,22.8271484375,-25.8941650390625,-26.0467529296875
9.7899999,-9.351752281188965,-0.7110779285430908,0.9026140570640564,14.129638671875,-19.012451171875,-15.7318115234375
9.809999900000001,-7.972691535949707,-1.3263877630233765,1.6041151285171509,-12.4664306640625,4.791259765625,0.3814697265625
9.8299999,-7.3885064125061035,-1.5466543436050415,2.1332337856292725,-27.6336669921875,23.25439453125,11.0931396484375
9.8499999,-7.826645374298096,-1.6304513216018677,2.1739351749420166,-18.1427001953125,19.34814453125,4.4097900390625
9.8699999,-9.2033109664917,-1.3072341680526733,1.7717092037200928,-1.15966796875,-22.5830078125,-5.37109375
9.889999900000001,-10.81460952758789,-1.036689281463623,1.072602391242981,17.1051025390625,-29.0069580078125,-19.0582275390625
9.9099999,-11.829751014709473,-0.6105214357376099,0.44771572947502136,32.928466796875,-13.3056640625,-27.9998779296875
9.9299999,-12.11705493927002,-0.21308395266532898,0.05267243832349777,34.4085693359375,-9.7198486328125,-25.787353515625
9.9499999,-11.801020622253418,0.16998831927776337,-0.040701430290937424,23.62060546875,-13.671875,-18.3563232421875
9.969999900000001,-11.101913452148438,0.43335050344467163,0.08140286058187485,11.8560791015625,-9.6893310546875,-13.153076171875
9.9899999,-10.261548042297363,0.5410895943641663,0.33518823981285095,6.9427490234375,2.5177001953125,-10.223388671875
10.0099999,-9.44752025604248,0.4884171485900879,0.6033388376235962,5.6915283203125,13.97705078125,-5.5694580078125
10.0299999,-8.892065048217773,0.3232172429561615,0.811634361743927,4.0283203125,22.6593017578125,-5.6915283203125
10.049999900000001,-8.585607528686523,0.004788403399288654,0.8810662031173706,4.180908203125,23.040771484375,-12.1917724609375
10.069999900000001,-8.40843677520752,-0.31124621629714966,0.7206547260284424,10.894775390625,14.5416259765625,-12.054443359375
10.0899999,-8.327033042907715,-0.6584054827690125,0.545877993106842,26.519775390625,0.79345703125,0.091552734375
10.1099999,-8.133103370666504,-0.8451532125473022,0.3447650372982025,29.1595458984375,-6.5765380859375,9.1400146484375
10.129999900000001,-7.951143741607666,-0.8930372595787048,0.3423708379268646,20.263671875,-0.885009765625,9.2620849609375
10.149999900000001,-7.884106159210205,-0.8068459630012512,0.5219359993934631,8.4686279296875,11.138916015625,8.6517333984375
10.1699999,-7.965508937835693,-0.667982280254364,0.7781155705451965,-2.532958984375,19.195556640625,9.0484619140625
10.1899999,-8.20492935180664,-0.5889736413955688,0.9911994934082031,-9.246826171875,25.69580078125,6.5155029296875
10.209999900000001,-8.597578048706055,-0.5937620401382446,1.0773907899856567,-10.25390625,27.9388427734375,6.7138671875
10.229999900000001,-9.062053680419922,-0.6799532771110535,1.036689281463623,-9.033203125,16.4947509765625,13.18359375
10.2499999,-9.555258750915527,-0.7996633648872375,0.8810662031173706,-7.4615478515625,3.662109375,16.754150390625
10.2699999,-9.967061996459961,-0.9217676520347595,0.6727706789970398,-3.082275390625,-0.2288818359375,9.765625
10.2899999,-10.235212326049805,-1.0031704902648926,0.48602294921875,2.6397705078125,-0.1983642578125,1.6326904296875
10.309999900000001,-10.426748275756836,-1.0271124839782715,0.36152446269989014,6.072998046875,-1.7547607421875,3.326416015625
10.3299999,-10.493785858154297,-1.0007762908935547,0.33518823981285095,6.4239501953125,-7.87353515625,5.0201416015625
10.3499999,-10.457873344421387,-0.933738648891449,0.4118026793003082,6.317138671875,-11.7950439453125,0.579833984375
10.3699999,-10.390835762023926,-0.8403648138046265,0.5602431893348694,5.2947998046875,-4.9285888671875,-0.1373291015625
10.389999900000001,-10.316615104675293,-0.730231523513794,0.7493851184844971,1.220703125,3.60107421875,3.143310546875
10.4099999,-10.251971244812012,-0.6416460275650024,0.912190854549408,-4.45556640625,6.1798095703125,0.701904296875
10.4299999,-10.218452453613281,-0.5770025849342346,1.0199298858642578,-8.056640625,3.6773681640625,-3.082275390625
10.4499999,-10.230423927307129,-0.5363011956214905,1.0606313943862915,-8.9111328125,1.3580322265625,-1.28173828125
10.469999900000001,-10.247182846069336,-0.5147533416748047,1.0462661981582642,-9.1094970703125,-0.2593994140625,1.7852783203125
10.4899999,-10.299856185913086,-0.5051765441894531,1.0199298858642578,-11.1236572265625,-2.4871826171875,-1.2054443359375
10.5099999,-10.378864288330078,-0.5171475410461426,0.9911994934082031,-13.5345458984375,-2.8076171875,-7.781982421875
10.5299999,-10.407594680786133,-0.5650315880775452,0.9720458984375,-14.1754150390625,-6.34765625,-8.4381103515625
10.549999900000001,-10.376470565795898,-0.6416460275650024,0.9576807022094727,-14.4500732421875,-9.613037109375,-2.7313232421875
10.569999900000001,-10.283096313476562,-0.730231523513794,0.9433154463768005,-14.3280029296875,-8.9874267578125,-0.4119873046875
10.5899999,-10.168174743652344,-0.7876923680305481,0.9193734526634216,-13.7786865234375,-8.3770751953125,-2.716064453125
10.6099999,-10.105925559997559,-0.7924807667732239,0.8882488012313843,-13.5345458984375,-7.87353515625,-3.72314453125
10.629999900000001,-10.08198356628418,-0.7613561153411865,0.8451532125473022,-14.1448974609375,-6.3018798828125,-4.2572021484375
10.649999900000001,-10.065223693847656,-0.7086837291717529,0.7876923680305481,-14.1143798828125,-6.3323974609375,-4.57763671875
10.6699999,-10.022128105163574,-0.6224924325942993,0.7350199222564697,-12.9547119140625,-8.4228515625,-2.6702880859375
10.6899999,-9.943120002746582,-0.5027823448181152,0.6847416758537292,-9.9029541015625,-5.6610107421875,0.823974609375
10.709999900000001,-9.864110946655273,-0.33997663855552673,0.6512228846549988,-6.9732666015625,-3.47900390625,3.509521484375
10.729999900000001,-9.797073364257812,-0.1364694982767105,0.6488286852836609,-6.0272216796875,-6.04248046875,2.01416015625
10.7499999,-9.732429504394531,0.05027823522686958,0.6775590777397156,-7.0648193359375,-9.5062255859375,-0.335693359375
10.7699999,-9.672574996948242,0.19871874153614044,0.7374141216278076,-7.7056884765625,-8.758544921875,3.692626953125
10.7899999,-9.605537414550781,0.28969839215278625,0.8212111592292786,-8.5296630859375,-4.730224609375,9.3994140625
10.809999900000001,-9.5624418258667,0.31842881441116333,0.8906430602073669,-9.857177734375,-0.4119873046875,9.735107421875
10.8299999,-9.59835433959961,0.3064578175544739,0.9433154463768005,-10.0250244140625,-0.7476806640625,8.6517333984375
10.8499999,-9.684545516967773,0.26096799969673157,0.9528923034667969,-8.5906982421875,-5.6304931640625,11.53564453125
10.8699999,-9.81143856048584,0.19393034279346466,0.9385270476341248,-6.7596435546875,-8.60595703125,14.6636962890625
10.889999900000001,-9.916783332824707,0.12689268589019775,0.9002198576927185,-5.1727294921875,-6.195068359375,11.474609375
10.9099999,-9.964667320251465,0.07661445438861847,0.8690952062606812,-4.2724609375,-1.1138916015625,5.0506591796875
10.9299999,-9.945513725280762,0.035913024097681046,0.8379706144332886,-3.631591796875,5.8441162109375,4.669189453125
10.9499999,-9.883264541625977,0.021547814831137657,0.8212111592292786,-1.77001953125,5.767822265625,11.9171142578125
10.969999900000001,-9.78989028930664,0.040701430290937424,0.828393816947937,-0.6103515625,-2.1820068359375,18.3868408203125
10.9899999,-10.29746150970459,-0.040701430290937424,0.8738836050033569,-0.9765625,-4.3487548828125,13.5345458984375
11.0099999,-10.314221382141113,-0.08379705995321274,0.9097966551780701,-1.0986328125,-2.7618408203125,-12.0086669921875
11.0299999,-10.860098838806152,-0.26096799969673157,0.9289502501487732,-0.732421875,-4.0435791015625,-0.6561279296875
11.049999900000001,-10.757147789001465,-0.31842881441116333,0.9026140570640564,3.326416015625,-4.57763671875,5.18798828125
11.069999900000001,-10.579977035522461,-0.3423708379268646,0.8451532125473022,6.256103515625,-7.110595703125,2.685546875
11.0899999,-10.295066833496094,-0.2968810200691223,0.8236053586006165,5.55419921875,-8.758544921875,1.28173828125
11.1099999,-10.031704902648926,-0.1867477297782898,0.8427590131759644,4.2572021484375,-8.575439453125,2.6702880859375
11.129999900000001,-9.876082420349121,-0.13168109953403473,0.9552865028381348,3.35693359375,-8.4381103515625,3.35693359375
11.149999900000001,-9.787496566772461,-0.1388636976480484,1.113303780555725,2.8839111328125,-7.4005126953125,3.814697265625
11.1699999,-9.782708168029785,-0.15322890877723694,1.381454348564148,6.65283203125,-4.7454833984375,6.5155029296875
11.1899999,-9.78989028930664,-0.12689268589019775,1.5394717454910278,6.9122314453125,-4.3487548828125,5.8135986328125
11.209999900000001,-9.794678688049316,-0.043095629662275314,1.6615760326385498,1.8768310546875,0.4730224609375,6.3934326171875
11.229999900000001,-9.806650161743164,0.08140286058187485,1.7262194156646729,0.0762939453125,5.1422119140625,5.5084228515625
11.2499999,-9.821015357971191,0.21308395266532898,1.7621324062347412,0.9918212890625,5.645751953125,4.241943359375
11.2699999,-9.813833236694336,0.33279404044151306,1.7286136150360107,-3.0364990234375,7.1563720703125,4.3487548828125
11.2899999,-9.825803756713867,0.4118026793003082,1.644816517829895,-9.9029541015625,11.6119384765625,3.2501220703125
11.309999900000001,-9.84495735168457,0.40701428055763245,1.5466543436050415,-13.6260986328125,13.8397216796875,3.021240234375
11.3299999,-9.871294021606445,0.33758243918418884,1.3694833517074585,-13.671875,12.51220703125,4.3487548828125
11.3499999,-9.926360130310059,0.20350714027881622,1.0893617868423462,-9.1705322265625,9.2010498046875,4.5623779296875
11.3699999,-10.014945983886719,0.06224924325942993,0.7326257228851318,0.4425048828125,4.5928955078125,3.631591796875
11.389999900000001,-10.077195167541504,-0.05746084079146385,0.42856210470199585,12.5274658203125,-2.5634765625,3.448486328125
11.4099999,-10.110713958740234,-0.10773907601833344,0.2585737705230713,18.6767578125,-8.60595703125,4.4708251953125
11.4299999,-10.113107681274414,-0.040701430290937424,0.26096799969673157,17.3187255859375,-9.857177734375,4.1961669921875
11.4499999,-10.079588890075684,0.10534487664699554,0.3974374830722809,15.869140625,-9.9639892578125,2.471923828125
11.469999900000001,-10.022128105163574,0.2968810200691223,0.6272808313369751,16.9677734375,-12.3291015625,1.4190673828125
11.4899999,-9.952696800231934,0.4884171485900879,0.9193734526634216,15.167236328125,-13.24462890625,0.30517578125
11.5099999,-9.880870819091797,0.6057330369949341,1.2306196689605713,9.033203125,-9.1705322265625,-1.2664794921875
11.5299999,-9.816226959228516,0.6320692300796509,1.5538369417190552,4.3182373046875,-3.8909912109375,-2.2430419921875
11.549999900000001,-9.763554573059082,0.5506663918495178,1.8291701078414917,3.0364990234375,-0.8087158203125,-1.1444091796875
11.569999900000001,-9.720458984375,0.47405192255973816,2.0829553604125977,0.4119873046875,2.7618408203125,0.701904296875
11.5899999,-9.684545516967773,0.43095630407333374,2.27209734916687,-7.720947265625,11.04736328125,0.640869140625
11.6099999,-9.653421401977539,0.5003881454467773,2.389413356781006,-16.693115234375,20.7366943359375,-1.556396484375
11.629999900000001,-9.660603523254395,0.5937620401382446,2.315192937850952,-20.111083984375,25.7415771484375,-3.814697265625
11.649999900000001,-9.715670585632324,0.6057330369949341,1.9847931861877441,-16.2506103515625,24.6124267578125,-5.2642822265625
11.6699999,-9.821015357971191,0.4812345504760742,1.4221558570861816,-6.04248046875,20.44677734375,-5.523681640625
11.6899999,-9.962273597717285,0.19632454216480255,0.7565677165985107,7.2021484375,13.916015625,-5.31005859375
11.709999900000001,-10.08198356628418,-0.10773907601833344,0.19632454216480255,17.15087890625,5.18798828125,-2.8533935546875
11.729999900000001,-10.156203269958496,-0.3280056416988373,-0.14604631066322327,18.890380859375,-1.15966796875,0.7781982421875
11.7499999,-10.192116737365723,-0.3998316824436188,-0.23942017555236816,16.1285400390625,-3.6468505859375,1.77001953125
11.7699999,-10.1753568649292,-0.31364041566848755,-0.14365209639072418,15.655517578125,-5.7830810546875,1.678466796875
11.7899999,-10.125079154968262,-0.09576806426048279,0.11013327538967133,15.7012939453125,-9.9639892578125,2.25830078125
11.809999900000001,-10.041281700134277,0.17238251864910126,0.4381389021873474,10.80322265625,-11.0015869140625,2.5482177734375
11.8299999,-9.96945571899414,0.363918662071228,0.7469909191131592,3.4942626953125,-7.0953369140625,0.213623046875
11.8499999,-9.897629737854004,0.4620809257030487,1.048660397529602,1.2054443359375,-5.3863525390625,-1.1749267578125
11.8699999,-9.861717224121094,0.40940847992897034,1.259350061416626,1.3580322265625,-5.767822265625,0.8544921875
11.889999900000001,-9.859322547912598,0.31364041566848755,1.2761094570159912,3.753662109375,-4.8675537109375,2.7923583984375
11.9099999,-9.883264541625977,0.15083470940589905,1.1492167711257935,10.9100341796875,-6.34765625,2.716064453125
11.9299999,-9.928754806518555,0.06464344263076782,0.9552865028381348,19.0887451171875,-11.3983154296875,3.41796875
11.9499999,-9.945513725280762,0.040701430290937424,0.8212111592292786,20.050048828125,-16.7388916015625,6.1187744140625
11.969999900000001,-9.928754806518555,0.17956513166427612,0.7757213711738586,14.7857666015625,-15.2587890625,5.859375
11.9899999,-9.964667320251465,0.3519476354122162,0.8331822156906128,13.092041015625,-12.8631591796875,3.1890869140625
12.0099999,-9.90241813659668,0.5961562395095825,1.0965443849563599,16.17431640625,-17.0745849609375,0.9002685546875
12.0299999,-9.864110946655273,0.7661445140838623,1.53707754611969,11.2762451171875,-14.95361328125,-0.79345703125
12.049999900000001,-9.770736694335938,0.8810662031173706,2.056619167327881,-4.5013427734375,-1.1444091796875,-2.7313232421875
12.069999900000001,-9.682151794433594,0.8595184087753296,2.473210334777832,-16.9525146484375,11.77978515625,-4.791259765625
12.0899999,-9.62947940826416,0.7781155705451965,2.7006595134735107,-18.3868408203125,16.1285400390625,-5.157470703125
12.1099999,-9.612719535827637,0.6224924325942993,2.516305923461914,-16.9219970703125,18.2342529296875,-2.044677734375
12.129999900000001,-9.720458984375,0.40701428055763245,2.1284453868865967,-13.6566162109375,21.30126953125,-0.4730224609375
12.149999900000001,-9.830592155456543,0.24181437492370605,1.5298948287963867,-5.7373046875,17.88330078125,-0.5035400390625
12.1699999,-9.964667320251465,0.13407529890537262,0.8858546018600464,4.6844482421875,7.537841796875,-0.5035400390625
12.1899999,-10.089165687561035,0.11013327538967133,0.3471592366695404,9.7198486328125,-2.9296875,-1.0833740234375
12.209999900000001,-10.163386344909668,0.12210428714752197,0.05506663769483566,10.07080078125,-6.40869140625,-0.732421875
12.229999900000001,-10.141838073730469,0.12689268589019775,0.0454898327589035,8.148193359375,-10.43701171875,0.1678466796875
12.2499999,-10.074800491333008,0.10055647045373917,0.3471592366695404,6.8817138671875,-12.9547119140625,-0.5645751953125
12.2699999,-9.964667320251465,0.1388636976480484,0.7350199222564697,5.035400390625,-11.0321044921875,-0.2593994140625
12.289999900000002,-9.852140426635742,0.1628057211637497,1.115697979927063,3.3721923828125,-4.5013427734375,-1.0833740234375
12.309999900000001,-9.81143856048584,0.272938996553421,1.41257905960083,4.8828125,-1.89208984375,-0.9918212890625
12.3299999,-9.749189376831055,0.363918662071228,1.6424223184585571,6.5460205078125,-2.777099609375,0.9307861328125
12.3499999,-9.758766174316406,0.4836287498474121,1.8602946996688843,0.4119873046875,1.4190673828125,1.9989013671875
12.3699999,-9.734824180603027,0.586579442024231,2.011129379272461,-11.871337890625,9.063720703125,0.823974609375
12.389999900000001,-9.75637149810791,0.706289529800415,2.030282974243164,-19.7906494140625,14.09912109375,0.0152587890625
12.4099999,-9.816226959228516,0.768538773059845,1.766920804977417,-17.7459716796875,8.5601806640625,0.640869140625
12.4299999,-9.895236015319824,0.7110779285430908,1.3287819623947144,-10.3912353515625,0.091552734375,-2.9144287109375
12.4499999,-9.99339771270752,0.5027823448181152,0.8140285611152649,-1.3580322265625,-4.0283203125,-8.0413818359375
12.469999900000001,-10.036493301391602,0.22505496442317963,0.4668693244457245,7.0648193359375,-6.7901611328125,-8.3160400390625
12.4899999,-10.062829971313477,-0.07661445438861847,0.3687070608139038,12.8936767578125,-10.9100341796875,-3.3721923828125
12.5099999,-10.007762908935547,-0.17956513166427612,0.5602431893348694,12.420654296875,-11.4593505859375,0.6561279296875
12.5299999,-9.95748519897461,-0.15801730751991272,1.01753568649292,4.1961669921875,-5.2337646484375,1.5716552734375
12.549999900000001,-9.818621635437012,0.0454898327589035,1.4915876388549805,-6.34765625,0.885009765625,2.349853515625
12.569999900000001,-9.77791976928711,0.3208230137825012,1.9153614044189453,-11.749267578125,5.767822265625,3.5400390625
12.5899999,-9.751583099365234,0.5386953949928284,2.0590133666992188,-12.1002197265625,5.218505859375,4.150390625
12.6099999,-9.765948295593262,0.6416460275650024,2.008735179901123,-10.31494140625,3.448486328125,0.1983642578125
12.629999900000001,-9.813833236694336,0.6320692300796509,1.7836803197860718,-7.4462890625,4.364013671875,-6.40869140625
12.649999900000001,-9.832986831665039,0.4908113479614258,1.5275006294250488,-5.6610107421875,5.4931640625,-7.2784423828125
12.6699999,-9.861717224121094,0.29209262132644653,1.2066776752471924,-3.23486328125,4.8828125,-3.662109375
12.6899999,-9.892841339111328,0.08140286058187485,0.9672574996948242,2.0904541015625,1.9989013671875,-0.5645751953125
12.709999900000001,-9.981427192687988,-0.1173158809542656,0.7781155705451965,8.3160400390625,-1.068115234375,1.3275146484375
12.729999900000001,-9.983820915222168,-0.20350714027881622,0.7326257228851318,12.14599609375,-5.1727294921875,4.5928955078125
12.7499999,-10.02452278137207,-0.05267243832349777,0.8236053586006165,8.9569091796875,-5.3863525390625,6.5155029296875
12.7699999,-10.000580787658691,0.17717093229293823,0.9624691009521484,2.166748046875,-5.8441162109375,5.2032470703125
12.789999900000002,-9.945513725280762,0.5027823448181152,1.2473790645599365,-4.180908203125,-8.0108642578125,0.244140625
12.809999900000001,-9.883264541625977,0.7086837291717529,1.525106430053711,-8.1634521484375,-4.1046142578125,-5.0048828125
12.8299999,-9.797073364257812,0.7350199222564697,1.778891921043396,-9.58251953125,2.9449462890625,-7.354736328125
12.8499999,-9.761159896850586,0.6153098344802856,1.9129672050476074,-8.5906982421875,8.23974609375,-6.65283203125
12.8699999,-9.694122314453125,0.4118026793003082,1.8602946996688843,-3.72314453125,9.6435546875,-1.953125
12.889999900000001,-9.744400978088379,0.304063618183136,1.766920804977417,0.1373291015625,9.46044921875,-0.518798828125
12.9099999,-9.765948295593262,0.22744916379451752,1.6112977266311646,-3.11279296875,10.162353515625,-2.0599365234375
12.9299999,-9.847352027893066,0.2082955539226532,1.4484920501708984,-9.918212890625,12.542724609375,-1.3275146484375
12.9499999,-9.916783332824707,0.2059013396501541,1.237802267074585,-7.232666015625,8.8043212890625,0.8544921875
12.969999900000001,-9.983820915222168,0.20111294090747833,0.9720458984375,1.434326171875,-1.1138916015625,0.762939453125
12.9899999,-10.017339706420898,0.15562310814857483,0.7661445140838623,5.67626953125,-6.2408447265625,-3.7078857421875
13.0099999,-10.002974510192871,0.11252748221158981,0.6823474764823914,6.927490234375,-4.5013427734375,-7.293701171875
13.0299999,-9.995792388916016,0.15083470940589905,0.7589619159698486,7.9498291015625,-1.7242431640625,-6.8511962890625
13.049999900000001,-9.928754806518555,0.1867477297782898,0.9911994934082031,7.4615478515625,-2.0599365234375,-4.8065185546875
13.069999900000001,-9.861717224121094,0.304063618183136,1.256955862045288,3.23486328125,0.2899169921875,-4.119873046875
13.0899999,-9.813833236694336,0.4381389021873474,1.534683346748352,-4.5623779296875,7.6141357421875,-5.3253173828125
13.1099999,-9.763554573059082,0.4884171485900879,1.7118542194366455,-11.77978515625,11.4593505859375,-4.608154296875
13.129999900000001,-9.785101890563965,0.4812345504760742,1.7764976024627686,-15.68603515625,11.3677978515625,-4.1351318359375
13.149999900000001,-9.830592155456543,0.30885201692581177,1.6136919260025024,-14.70947265625,8.8348388671875,-2.9754638671875
13.1699999,-9.93354320526123,0.011971008032560349,1.3263877630233765,-7.26318359375,3.5858154296875,-0.1678466796875
13.1899999,-9.988609313964844,-0.29209262132644653,0.9600749015808105,2.6397705078125,-0.762939453125,-0.9002685546875
13.209999900000001,-10.050858497619629,-0.545877993106842,0.6344634294509888,10.1318359375,-4.5928955078125,-0.823974609375
13.229999900000001,-10.053253173828125,-0.6105214357376099,0.45250412821769714,12.3443603515625,-6.011962890625,0.6103515625
13.2499999,-10.017339706420898,-0.4572925269603729,0.43095630407333374,10.009765625,-7.171630859375,2.2430419921875
13.2699999,-9.959878921508789,-0.14365209639072418,0.6129156351089478,6.65283203125,-7.1563720703125,3.1280517578125
13.289999900000002,-9.914389610290527,0.24899697303771973,0.9217676520347595,0.2288818359375,-3.9825439453125,2.4871826171875
13.309999900000001,-9.859322547912598,0.5626373887062073,1.2856862545013428,-9.58251953125,-0.6256103515625,0.762939453125
13.3299999,-9.840168952941895,0.727837324142456,1.5658079385757446,-14.83154296875,2.899169921875,-1.0528564453125
13.3499999,-9.84495735168457,0.6775590777397156,1.6759412288665771,-11.138916015625,1.678466796875,-1.0833740234375
13.3699999,-9.864110946655273,0.4596867263317108,1.6879122257232666,-4.2572021484375,-2.899169921875,0.152587890625
13.389999900000001,-9.861717224121094,0.13407529890537262,1.5873557329177856,-0.5950927734375,-1.3275146484375,-0.8544921875
13.4099999,-9.895236015319824,-0.11971008777618408,1.4724340438842773,2.471923828125,2.777099609375,-2.044677734375
13.4299999,-9.859322547912598,-0.2753331959247589,1.316810965538025,5.3253173828125,3.72314453125,-0.6256103515625
13.4499999,-9.883264541625977,-0.24660277366638184,1.1971008777618408,5.0048828125,2.8076171875,0.9765625
13.469999900000001,-9.859322547912598,-0.05746084079146385,1.0989385843276978,1.40380859375,3.84521484375,0.823974609375
13.4899999,-9.911994934082031,0.17956513166427612,1.1300631761550903,-4.5013427734375,5.279541015625,0.5035400390625
13.5099999,-9.907206535339355,0.38067805767059326,1.1516109704971313,-9.9029541015625,5.279541015625,-0.6866455078125
13.5299999,-9.943120002746582,0.45010992884635925,1.161187767982483,-8.514404296875,2.8839111328125,-1.9378662109375
13.549999900000001,-9.988609313964844,0.3663128614425659,1.1204863786697388,-2.5177001953125,-2.3956298828125,-2.3956298828125
13.569999900000001,-9.99339771270752,0.14365209639072418,1.05105459690094,3.90625,-5.9661865234375,-0.396728515625
13.5899999,-10.007762908935547,-0.043095629662275314,1.0462661981582642,9.6588134765625,-6.7138671875,0.3814697265625
13.6099999,-9.99100399017334,-0.20350714027881622,1.070208191871643,11.8408203125,-6.072998046875,-1.617431640625
13.629999900000001,-9.943120002746582,-0.2106897532939911,1.1180921792984009,8.4991455078125,-3.5858154296875,-2.471923828125
13.649999900000001,-9.885659217834473,-0.12210428714752197,1.1755530834197998,4.302978515625,-0.48828125,-0.1220703125
13.6699999,-9.885659217834473,0.07661445438861847,1.2832920551300049,1.2969970703125,0.7476806640625,1.922607421875
13.6899999,-9.859322547912598,0.2968810200691223,1.3096283674240112,-1.46484375,0.5035400390625,2.105712890625
13.709999900000001,-9.897629737854004,0.43335050344467163,1.357512354850769,-4.9896240234375,-1.129150390625,0.3509521484375
13.729999900000001,-9.907206535339355,0.47644615173339844,1.338358759880066,-8.2244873046875,-1.129150390625,-0.518798828125
13.7499999,-9.931148529052734,0.3758896589279175,1.280897855758667,-6.9732666015625,-3.0364990234375,0.213623046875
13.7699999,-9.940725326538086,0.1867477297782898,1.2401964664459229,-1.6632080078125,-6.561279296875,1.4495849609375
13.789999900000002,-9.940725326538086,0.028730420395731926,1.2330138683319092,1.5411376953125,-7.659912109375,0.732421875
13.809999900000001,-9.947908401489258,-0.07422025501728058,1.3120225667953491,2.6397705078125,-5.2032470703125,-0.335693359375
13.8299999,-9.871294021606445,-0.05746084079146385,1.4269442558288574,0.396728515625,-0.9307861328125,-0.9307861328125
13.8499999,-9.840168952941895,0.07182604819536209,1.6089035272598267,-5.3253173828125,4.8370361328125,-0.518798828125
13.8699999,-9.751583099365234,0.3016694188117981,1.7070658206939697,-11.9476318359375,9.94873046875,-1.4190673828125
13.889999900000001,-9.787496566772461,0.363918662071228,1.6711528301239014,-10.498046875,10.8642578125,-3.0670166015625
13.9099999,-9.792284965515137,0.47884035110473633,1.6304513216018677,0.1373291015625,5.401611328125,-3.997802734375
13.9299999,-9.825803756713867,0.3687070608139038,1.4987702369689941,-1.15966796875,5.8441162109375,-4.57763671875
13.9499999,-9.852140426635742,0.26575639843940735,1.4532804489135742,-8.48388671875,10.5438232421875,-5.18798828125
13.969999900000001,-9.840168952941895,0.1364694982767105,1.460463047027588,-11.16943359375,11.627197265625,-5.2490234375
13.9899999,-9.86889934539795,-0.011971008032560349,1.4676456451416016,-7.5531005859375,12.5579833984375,-3.143310546875
14.0099999,-9.895236015319824,-0.15562310814857483,1.4221558570861816,-0.213623046875,13.9007568359375,-0.213623046875
14.0299999,-9.995792388916016,-0.22744916379451752,1.316810965538025,4.39453125,13.3819580078125,-0.5340576171875
14.049999900000001,-9.99339771270752,-0.20350714027881622,1.1516109704971313,5.1727294921875,8.514404296875,-4.08935546875
14.069999900000001,-10.02452278137207,-0.0694318488240242,1.0295066833496094,4.2877197265625,8.4228515625,-0.335693359375
14.0899999,-10.110713958740234,0.033518824726343155,0.9576807022094727,0.6256103515625,12.542724609375,5.67626953125
14.1099999,-10.02691650390625,0.17477671802043915,0.9361328482627869,-4.57763671875,13.458251953125,-2.7923583984375
14.129999900000001,-10.11550235748291,0.19393034279346466,0.9289502501487732,-6.2255859375,12.1917724609375,-4.94384765625
14.149999900000001,-10.067618370056152,0.16759411990642548,0.8858546018600464,-2.471923828125,10.6353759765625,-4.8065185546875
14.1699999,-10.06043529510498,0.07900865375995636,0.8020575642585754,0.7476806640625,9.46044921875,-4.3792724609375
14.1899999,-10.070012092590332,-0.043095629662275314,0.7086837291717529,0.8087158203125,8.1329345703125,-3.0670166015625
14.209999900000001,-10.089165687561035,-0.15562310814857483,0.6177040338516235,1.190185546875,6.65283203125,-1.6937255859375
14.229999900000001,-10.108319282531738,-0.24899697303771973,0.5363011956214905,1.953125,4.39453125,-0.6256103515625
14.2499999,-10.500968933105469,-0.26575639843940735,0.4213795065879822,1.7852783203125,2.960205078125,-0.2593994140625
14.2699999,-10.939107894897461,-0.3016694188117981,0.2801215946674347,5.92041015625,2.5787353515625,-9.490966796875
14.289999900000002,-11.556811332702637,-0.2801215946674347,0.1364694982767105,12.3748779296875,-13.6871337890625,-18.0206298828125
14.309999900000001,-11.951854705810547,-0.2849099934101105,0.0071826050989329815,17.4713134765625,-15.80810546875,-22.5067138671875
14.3299999,-11.865663528442383,-0.26815059781074524,-0.07900865375995636,22.613525390625,-9.002685546875,-21.636962890625
14.3499999,-11.305420875549316,-0.2298433631658554,-0.090979665517807,24.7344970703125,-7.8125,-16.7083740234375
14.3699999,-10.474632263183594,-0.181959331035614,-0.002394201699644327,22.308349609375,-9.7808837890625,-7.720947265625
14.389999900000001,-9.617507934570312,-0.1173158809542656,0.21547815203666687,17.9595947265625,-8.392333984375,-2.197265625
14.4099999,-8.901641845703125,-0.0933738648891449,0.5410895943641663,11.2762451171875,1.2664794921875,-6.622314453125
14.4299999,-8.398859977722168,-0.11252748221158981,0.8882488012313843,3.9825439453125,12.664794921875,-12.3748779296875
14.4499999,-8.066065788269043,-0.1843535304069519,1.1755530834197998,-1.6937255859375,15.7623291015625,-10.9100341796875
14.469999900000001,-7.86734676361084,-0.31603461503982544,1.3479355573654175,-4.974365234375,12.3748779296875,-3.7078857421875
14.4899999,-7.812280178070068,-0.4596867263317108,1.4053963422775269,-7.049560546875,7.7972412109375,2.655029296875
14.5099999,-7.927201747894287,-0.5889736413955688,1.3862427473068237,-7.26318359375,5.67626953125,5.950927734375
14.5299999,-8.236053466796875,-0.6847416758537292,1.3407529592514038,-6.2408447265625,4.69970703125,6.6986083984375
14.549999900000001,-8.681375503540039,-0.7350199222564697,1.3000515699386597,-4.9285888671875,2.5634765625,4.39453125
14.569999900000001,-9.196128845214844,-0.7422025203704834,1.2761094570159912,-4.119873046875,1.5716552734375,1.678466796875
14.5899999,-9.706093788146973,-0.706289529800415,1.2737152576446533,-2.5787353515625,0.4730224609375,2.01416015625
14.6099999,-10.108319282531738,-0.6272808313369751,1.2832920551300049,-1.373291015625,-4.791259765625,3.47900390625
14.629999900000001,-10.376470565795898,-0.5099649429321289,1.3024457693099976,-2.4566650390625,-7.2784423828125,2.9296875
14.649999900000001,-10.508151054382324,-0.38067805767059326,1.314416766166687,-5.37109375,-5.92041015625,2.349853515625
14.6699999,-10.500968933105469,-0.2561795711517334,1.3072341680526733,-8.2550048828125,-6.011962890625,2.2735595703125
14.6899999,-10.409989356994629,-0.15562310814857483,1.256955862045288,-10.223388671875,-2.62451171875,0.213623046875
14.709999900000001,-10.283096313476562,-0.10773907601833344,1.1563993692398071,-9.1400146484375,1.6326904296875,-0.8392333984375
14.729999900000001,-10.156203269958496,-0.09816227108240128,1.0295066833496094,-5.8135986328125,-3.41796875,2.655029296875
14.7499999,-10.062829971313477,-0.11971008777618408,0.912190854549408,-3.2958984375,-10.3302001953125,6.6070556640625
14.7699999,-10.002974510192871,-0.1412578970193863,0.8307880163192749,-1.983642578125,-9.613037109375,5.218505859375
14.789999900000002,-9.950302124023438,-0.1604115068912506,0.8020575642585754,-1.4190673828125,-6.011962890625,1.861572265625
14.809999900000001,-9.931148529052734,-0.16519992053508759,0.8212111592292786,-1.739501953125,-6.927490234375,3.387451171875
14.8299999,-9.916783332824707,-0.15083470940589905,0.9457096457481384,-0.4730224609375,-14.1143798828125,8.8958740234375
14.8499999,-9.921571731567383,-0.1149216815829277,1.0295066833496094,-0.823974609375,-8.2855224609375,8.7738037109375
14.8699999,-9.909601211547852,-0.06464344263076782,1.0989385843276978,-1.9989013671875,-2.25830078125,8.2855224609375
14.889999900000001,-9.883264541625977,0.0071826050989329815,1.1444283723831177,-4.5013427734375,2.4566650390625,6.0882568359375
14.9099999,-9.823410034179688,0.05985504388809204,1.1540051698684692,-7.1258544921875,5.6915283203125,4.486083984375
14.9299999,-9.727641105651855,0.09576806426048279,1.1324573755264282,-8.36181640625,4.730224609375,8.6822509765625
14.9499999,-9.639056205749512,0.11013327538967133,1.094150185585022,-8.453369140625,6.3323974609375,15.2130126953125
14.969999900000001,-9.57441234588623,0.11013327538967133,1.0295066833496094,-7.3699951171875,9.6588134765625,16.9219970703125
14.9899999,-9.758766174316406,0.12689268589019775,0.9720458984375,-6.2408447265625,6.4849853515625,15.80810546875
15.0099999,-10.165780067443848,0.043095629662275314,0.8882488012313843,-5.462646484375,0.30517578125,7.9193115234375
15.0299999,-10.51054573059082,-0.002394201699644327,0.7996633648872375,-5.035400390625,1.2969970703125,-8.453369140625
15.049999900000001,-10.828974723815918,-0.1628057211637497,0.6943184733390808,-0.1983642578125,-1.6021728515625,8.8958740234375
15.069999900000001,-10.812214851379395,-0.22026655077934265,0.6033388376235962,3.9825439453125,-5.645751953125,12.5885009765625
15.0899999,-10.591948509216309,-0.3064578175544739,0.4884171485900879,6.8206787109375,-10.772705078125,8.9111328125
15.1099999,-10.3549222946167,-0.3519476354122162,0.42856210470199585,10.101318359375,-16.571044921875,11.505126953125
15.129999900000001,-10.110713958740234,-0.3280056416988373,0.4668693244457245,14.6942138671875,-20.0347900390625,16.0369873046875
15.149999900000001,-9.940725326538086,-0.2561795711517334,0.6368576288223267,14.70947265625,-20.5841064453125,17.5933837890625
15.1699999,-9.818621635437012,-0.08379705995321274,0.9074024558067322,10.284423828125,-17.791748046875,17.7154541015625
15.1899999,-9.734824180603027,0.1412578970193863,1.2449848651885986,6.3323974609375,-15.9149169921875,18.6767578125
15.209999900000001,-9.696516990661621,0.49799394607543945,1.599326729774475,1.3580322265625,-13.97705078125,18.9056396484375
15.229999900000001,-9.672574996948242,0.8595184087753296,1.8626888990402222,-4.913330078125,-9.429931640625,15.0604248046875
15.2499999,-9.682151794433594,1.259350061416626,2.0183119773864746,-6.988525390625,-5.1116943359375,7.7667236328125
15.2699999,-9.694122314453125,1.5466543436050415,2.097320795059204,-4.6234130859375,-4.0740966796875,1.739501953125
15.289999900000002,-9.710882186889648,1.6927006244659424,2.145204782485962,-6.4239501953125,-2.2735595703125,-1.6326904296875
15.309999900000001,-9.710882186889648,1.6400281190872192,2.169146776199341,-11.6424560546875,4.150390625,-4.3792724609375
15.3299999,-9.701305389404297,1.460463047027588,2.1954829692840576,-13.916015625,10.2386474609375,-7.62939453125
15.3499999,-9.696516990661621,1.1563993692398071,2.1811177730560303,-13.2293701171875,12.1002197265625,-8.270263671875
15.3699999,-9.715670585632324,0.811634361743927,2.070984363555908,-10.80322265625,13.0462646484375,-6.4849853515625
15.389999900000001,-9.765948295593262,0.45250412821769714,1.86508309841156,-5.18798828125,14.5111083984375,-5.2337646484375
15.4099999,-9.830592155456543,0.1412578970193863,1.5873557329177856,2.8076171875,13.24462890625,-3.9215087890625
15.4299999,-9.892841339111328,-0.05267243832349777,1.2856862545013428,9.5977783203125,8.97216796875,-1.6021728515625
15.4499999,-9.950302124023438,-0.11971008777618408,0.9672574996948242,12.4664306640625,5.1727294921875,0.67138671875
15.469999900000001,-10.010157585144043,-0.06703764945268631,0.6655880808830261,13.24462890625,1.556396484375,1.3427734375
15.4899999,-10.050858497619629,0.07661445438861847,0.43335050344467163,16.326904296875,-4.669189453125,1.5716552734375
15.5099999,-10.072406768798828,0.30885201692581177,0.35913026332855225,17.6544189453125,-11.0626220703125,2.197265625
15.5299999,-10.06043529510498,0.5291185975074768,0.43335050344467163,13.1072998046875,-13.153076171875,1.4801025390625
15.549999900000001,-10.02452278137207,0.7230489253997803,0.6560112833976746,8.0108642578125,-12.5579833984375,-0.5035400390625
15.569999900000001,-9.943120002746582,0.8044517636299133,1.0103530883789062,5.096435546875,-12.4664306640625,0.1373291015625
15.5899999,-9.852140426635742,0.8212111592292786,1.4389152526855469,0.518798828125,-10.8642578125,1.8310546875
15.6099999,-9.75637149810791,0.7805097699165344,1.9081788063049316,-6.1798095703125,-4.7607421875,3.2501220703125
15.629999900000001,-9.66539192199707,0.7182605266571045,2.255337953567505,-14.923095703125,4.0435791015625,3.7841796875
15.649999900000001,-9.588777542114258,0.6703764796257019,2.5737667083740234,-21.7742919921875,10.7574462890625,4.8828125
15.6699999,-9.579200744628906,0.7158663272857666,2.736572504043579,-27.7099609375,15.9454345703125,5.9661865234375
15.6899999,-9.569623947143555,0.7757213711738586,2.698265314102173,-32.3486328125,24.23095703125,3.60107421875
15.709999900000001,-9.634267807006836,0.8786720037460327,2.3942017555236816,-26.123046875,27.374267578125,1.1138916015625
15.729999900000001,-9.773131370544434,0.8834604024887085,1.8531121015548706,-10.040283203125,19.1497802734375,-0.9307861328125
15.7499999,-9.880870819091797,0.8379706144332886,1.0606313943862915,7.476806640625,7.5225830078125,-4.425048828125
15.7699999,-10.070012092590332,0.6799532771110535,0.35673606395721436,21.2860107421875,-1.983642578125,-8.6517333984375
15.789999900000002,-10.146626472473145,0.44771572947502136,-0.14844051003456116,27.374267578125,-8.4228515625,-10.8795166015625
15.809999900000001,-10.180145263671875,0.2513911724090576,-0.2825157940387726,26.092529296875,-11.993408203125,-7.62939453125
15.8299999,-10.113107681274414,0.11013327538967133,-0.07422025501728058,19.3328857421875,-14.495849609375,-1.953125
15.8499999,-10.050858497619629,0.028730420395731926,0.33039984107017517,10.9710693359375,-13.36669921875,1.89208984375
15.869999900000002,-9.943120002746582,0.1173158809542656,0.7781155705451965,7.38525390625,-12.1612548828125,4.8828125
15.889999900000001,-9.883264541625977,0.3016694188117981,1.2330138683319092,8.148193359375,-13.8702392578125,6.5155029296875
15.9099999,-9.864110946655273,0.5722141861915588,1.5059528350830078,7.75146484375,-13.3819580078125,6.1798095703125
15.9299999,-9.818621635437012,0.828393816947937,1.7357962131500244,5.462646484375,-13.8702392578125,3.23486328125
15.9499999,-9.78989028930664,0.9528923034667969,1.8722656965255737,2.960205078125,-13.7481689453125,0.030517578125
15.969999900000001,-9.725247383117676,0.9792284965515137,2.0901381969451904,-2.4261474609375,-10.162353515625,-1.46484375
15.9899999,-9.612719535827637,0.8690952062606812,2.2816741466522217,-12.6953125,-0.06103515625,-0.5950927734375
16.0099999,-9.605537414550781,0.7110779285430908,2.4133553504943848,-17.02880859375,10.009765625,1.0223388671875
16.0299999,-9.576807022094727,0.5937620401382446,2.406172752380371,-11.322021484375,11.8255615234375,3.2958984375
16.0499999,-9.66539192199707,0.5602431893348694,2.164358377456665,-2.8228759765625,7.965087890625,3.997802734375
16.0699999,-9.763554573059082,0.569819986820221,1.8076223134994507,3.2196044921875,5.5694580078125,2.86865234375
16.089999900000002,-9.86889934539795,0.6631938815116882,1.3982137441635132,6.16455078125,2.5634765625,3.021240234375
16.109999900000002,-9.926360130310059,0.7613561153411865,1.1516109704971313,5.1116943359375,-4.8980712890625,-0.6561279296875
16.1299999,-9.90241813659668,0.8978256583213806,1.1683704853057861,0.8544921875,-7.14111328125,-6.591796875
16.1499999,-9.840168952941895,1.0031704902648926,1.4437036514282227,-9.674072265625,2.777099609375,-9.5977783203125
16.1699999,-9.732429504394531,1.072602391242981,1.8507179021835327,-21.2554931640625,15.960693359375,-9.1552734375
16.1899999,-9.701305389404297,1.0055646896362305,2.03507137298584,-21.697998046875,20.3399658203125,-7.7056884765625
16.2099999,-9.734824180603027,0.7709329724311829,1.9369091987609863,-7.4310302734375,14.6484375,-6.0882568359375
16.2299999,-9.849745750427246,0.4405331015586853,1.4389152526855469,12.2528076171875,5.7220458984375,-3.173828125
16.249999900000002,-9.99100399017334,0.1149216815829277,0.8595184087753296,27.862548828125,-4.5013427734375,0.3814697265625
16.269999900000002,-10.08198356628418,-0.05985504388809204,0.5099649429321289,29.815673828125,-16.204833984375,-0.2288818359375
16.2899999,-10.072406768798828,0.028730420395731926,0.5746083855628967,18.798828125,-17.0440673828125,-4.852294921875
16.3099999,-9.943120002746582,0.3232172429561615,1.0749965906143188,-1.6937255859375,-5.2490234375,-6.2103271484375
16.3299999,-9.780313491821289,0.667982280254364,1.7310078144073486,-21.942138671875,10.1470947265625,-4.486083984375
16.3499999,-9.643844604492188,0.9409212470054626,2.2601263523101807,-29.541015625,16.8609619140625,-3.4332275390625
16.3699999,-9.615114212036133,1.01753568649292,2.403778553009033,-22.4609375,16.1285400390625,-3.753662109375
16.3899999,-9.72285270690918,0.8595184087753296,2.0685901641845703,-8.1787109375,14.251708984375,-3.5400390625
16.4099999,-9.888052940368652,0.6248866319656372,1.5610195398330688,8.056640625,5.31005859375,-1.0833740234375
16.429999900000002,-9.974244117736816,0.3687070608139038,1.05105459690094,14.46533203125,-5.55419921875,-3.60107421875
16.4499999,-10.038887977600098,0.17956513166427612,0.7493851184844971,9.4757080078125,-6.6070556640625,-8.4686279296875
16.4699999,-9.967061996459961,0.11013327538967133,0.7541735172271729,4.486083984375,-2.7313232421875,-8.514404296875
16.4899999,-9.897629737854004,0.12928688526153564,0.9624691009521484,1.007080078125,2.044677734375,-4.0740966796875
16.5099999,-9.84256362915039,0.19153612852096558,1.2210428714752197,-2.777099609375,4.058837890625,-2.01416015625
16.5299999,-9.799467086791992,0.30885201692581177,1.4963760375976562,-4.2572021484375,4.638671875,-0.8544921875
16.5499999,-9.818621635437012,0.3758896589279175,1.644816517829895,-4.486083984375,7.4615478515625,1.9073486328125
16.5699999,-9.80904483795166,0.4596867263317108,1.7525556087493896,-6.317138671875,6.3018798828125,3.6773681640625
16.589999900000002,-9.84256362915039,0.4692635238170624,1.723825216293335,-9.765625,4.1656494140625,0.06103515625
16.609999900000002,-9.86889934539795,0.42856210470199585,1.6136919260025024,-10.19287109375,4.9285888671875,-5.31005859375
16.6299999,-9.888052940368652,0.33758243918418884,1.4532804489135742,-7.5836181640625,6.9122314453125,-5.2642822265625
16.6499999,-9.876082420349121,0.26336219906806946,1.278503656387329,-5.3558349609375,7.6446533203125,-0.946044921875
16.6699999,-9.871294021606445,0.2585737705230713,1.213860273361206,-7.0037841796875,9.4451904296875,0.8087158203125
16.6899999,-9.864110946655273,0.3256114423274994,1.1252747774124146,-8.7127685546875,10.528564453125,0.7171630859375
16.7099999,-9.892841339111328,0.4118026793003082,1.0869675874710083,-5.615234375,7.4920654296875,0.7476806640625
16.7299999,-9.93593692779541,0.48602294921875,1.0342950820922852,-3.60107421875,1.8463134765625,-0.091552734375
16.749999900000002,-9.959878921508789,0.4644751250743866,0.9840168952941895,-3.662109375,-1.9378662109375,-3.875732421875
16.769999900000002,-9.986215591430664,0.36152446269989014,0.9744400978088379,-0.6561279296875,-1.251220703125,-8.331298828125
16.7899999,-9.940725326538086,0.24420857429504395,1.01753568649292,3.47900390625,0.640869140625,-8.0413818359375
16.8099999,-9.914389610290527,0.12928688526153564,1.1013327836990356,4.669189453125,1.922607421875,-4.2877197265625
16.8299999,-9.883264541625977,0.14844051003456116,1.1875240802764893,1.52587890625,5.3558349609375,-2.105712890625
16.8499999,-9.892841339111328,0.2059013396501541,1.3024457693099976,-3.84521484375,6.53076171875,0.8087158203125
16.8699999,-9.931148529052734,0.3064578175544739,1.3215993642807007,-8.6822509765625,6.195068359375,1.2054443359375
16.8899999,-10.043676376342773,0.31364041566848755,1.2234370708465576,-8.056640625,1.6326904296875,0.91552734375
16.9099999,-10.067618370056152,0.2585737705230713,1.0007762908935547,0.6866455078125,-5.279541015625,0.2288818359375
16.929999900000002,-10.091560363769531,0.19632454216480255,0.8188169598579407,13.0615234375,-8.758544921875,-4.6844482421875
16.9499999,-10.007762908935547,0.20111294090747833,0.7469909191131592,19.6075439453125,-8.4075927734375,-9.1705322265625
16.9699999,-9.931148529052734,0.31603461503982544,0.8595184087753296,13.24462890625,-3.570556640625,-8.6669921875
16.9899999,-9.852140426635742,0.5195417404174805,1.137245774269104,-1.0986328125,2.8228759765625,-5.889892578125
17.0099999,-9.77791976928711,0.6655880808830261,1.3431471586227417,-14.5416259765625,5.1727294921875,-5.3253173828125
17.0299999,-9.78989028930664,0.6655880808830261,1.4891934394836426,-20.751953125,3.5858154296875,-7.6904296875
17.0499999,-9.794678688049316,0.33997663855552673,1.4293384552001953,-16.3116455078125,0.18310546875,-6.1187744140625
17.0699999,-9.840168952941895,-0.07422025501728058,1.235408067703247,-2.1820068359375,-4.82177734375,-2.1514892578125
17.089999900000002,-9.911994934082031,-0.5530605912208557,1.01753568649292,14.495849609375,-9.1705322265625,-3.814697265625
17.109999900000002,-9.964667320251465,-0.768538773059845,0.8882488012313843,24.59716796875,-8.9111328125,-3.4942626953125
17.1299999,-9.988609313964844,-0.6823474764823914,0.9026140570640564,23.49853515625,-5.55419921875,1.739501953125
17.1499999,-9.921571731567383,-0.2825157940387726,1.1444283723831177,12.420654296875,-1.4801025390625,4.9591064453125
17.1699999,-9.871294021606445,0.2561795711517334,1.4867992401123047,-2.288818359375,1.15966796875,1.922607421875
17.1899999,-9.746794700622559,0.7182605266571045,1.8483237028121948,-16.7236328125,5.31005859375,-3.6773681640625
17.2099999,-9.682151794433594,0.9481038451194763,2.0398597717285156,-25.9246826171875,8.48388671875,-6.011962890625
17.2299999,-9.68933391571045,0.8164227604866028,2.075772762298584,-25.5889892578125,12.4664306640625,-10.3759765625
17.249999900000002,-9.708487510681152,0.48602294921875,1.821987509727478,-17.181396484375,15.19775390625,-10.3912353515625
17.269999900000002,-9.837775230407715,-0.035913024097681046,1.381454348564148,-5.31005859375,13.5345458984375,-5.18798828125
17.2899999,-9.919178009033203,-0.3878606855869293,0.8571242094039917,7.9193115234375,6.5460205078125,-0.0152587890625
17.3099999,-10.086771965026855,-0.6224924325942993,0.4668693244457245,15.56396484375,-2.3651123046875,3.082275390625
17.3299999,-10.096348762512207,-0.5650315880775452,0.24899697303771973,14.678955078125,-8.3160400390625,2.7618408203125
17.3499999,-10.189722061157227,-0.40222588181495667,0.2585737705230713,10.9405517578125,-13.00048828125,0.06103515625
17.3699999,-10.089165687561035,-0.18914192914962769,0.4381389021873474,9.0179443359375,-14.801025390625,-2.960205078125
17.3899999,-10.019734382629395,0.016759412363171577,0.7757213711738586,6.4544677734375,-11.9781494140625,-5.1116943359375
17.409999900000003,-9.911994934082031,0.13168109953403473,1.1252747774124146,-0.518798828125,-3.692626953125,-3.509521484375
17.429999900000002,-9.799467086791992,0.2322375625371933,1.556231141090393,-7.75146484375,3.0975341796875,0.335693359375
17.4499999,-9.75397777557373,0.2753331959247589,1.8698714971542358,-12.75634765625,4.4708251953125,4.4097900390625
17.4699999,-9.72285270690918,0.272938996553421,1.987187385559082,-14.2669677734375,6.04248046875,3.5247802734375
17.4899999,-9.804255485534668,0.22026655077934265,1.8818424940109253,-9.82666015625,4.364013671875,1.2054443359375
17.5099999,-9.8784761428833,0.011971008032560349,1.5729905366897583,-2.655029296875,-1.983642578125,0.640869140625
17.5299999,-9.998186111450195,-0.17717093229293823,1.2282254695892334,6.927490234375,-6.2713623046875,-1.9378662109375
17.5499999,-9.995792388916016,-0.3471592366695404,0.9696516990661621,12.2222900390625,-4.852294921875,-2.6092529296875
17.5699999,-10.02452278137207,-0.35913026332855225,0.912190854549408,9.185791015625,-0.1678466796875,1.2359619140625
17.589999900000002,-9.959878921508789,-0.21308395266532898,0.9696516990661621,4.1046142578125,0.8087158203125,3.47900390625
17.609999900000002,-9.914389610290527,0.05027823522686958,1.1252747774124146,0,-2.349853515625,4.69970703125
17.6299999,-9.873687744140625,0.2849099934101105,1.2066776752471924,-3.3721923828125,-2.2125244140625,2.471923828125
17.6499999,-9.897629737854004,0.38067805767059326,1.3000515699386597,-4.425048828125,-4.5928955078125,0.335693359375
17.6699999,-9.859322547912598,0.31842881441116333,1.3120225667953491,-4.638671875,-6.7596435546875,-0.4119873046875
17.6899999,-9.883264541625977,0.12689268589019775,1.3000515699386597,-0.9002685546875,-7.171630859375,-3.9825439453125
17.7099999,-9.883264541625977,-0.07661445438861847,1.3311761617660522,4.638671875,-4.8370361328125,-3.2196044921875
17.7299999,-9.835380554199219,-0.2082955539226532,1.455674648284912,2.532958984375,-0.762939453125,3.3416748046875
17.749999900000002,-9.806650161743164,-0.18914192914962769,1.5538369417190552,-4.5166015625,3.204345703125,7.598876953125
17.769999900000002,-9.806650161743164,-0.0694318488240242,1.6496049165725708,-8.270263671875,3.11279296875,8.9874267578125
17.7899999,-9.864110946655273,0.12210428714752197,1.5897499322891235,-3.90625,0.6561279296875,4.21142578125
17.8099999,-9.931148529052734,0.2753331959247589,1.4772224426269531,3.0517578125,-5.3863525390625,0.885009765625
17.8299999,-9.983820915222168,0.3423708379268646,1.3910311460494995,4.1351318359375,-7.415771484375,-1.708984375
17.8499999,-9.952696800231934,0.31842881441116333,1.3862427473068237,2.9754638671875,-3.9215087890625,-6.1187744140625
17.8699999,-9.885659217834473,0.2322375625371933,1.4700398445129395,1.373291015625,2.227783203125,-5.0201416015625
17.8899999,-9.804255485534668,0.15083470940589905,1.577778935432434,-1.64794921875,5.6610107421875,0.0762939453125
17.909999900000003,-9.742006301879883,0.13407529890537262,1.6496049165725708,-3.9825439453125,6.5765380859375,1.800537109375
17.929999900000002,-9.773131370544434,0.07900865375995636,1.601720929145813,-2.5634765625,5.401611328125,2.5177001953125
17.9499999,-9.84495735168457,0.05985504388809204,1.4389152526855469,3.7841796875,1.77001953125,1.77001953125
17.9699999,-9.931148529052734,0,1.192312479019165,11.016845703125,-7.4005126953125,0.9002685546875
17.9899999,-9.998186111450195,-0.05506663769483566,0.9361328482627869,13.7481689453125,-13.1988525390625,-0.7476806640625
18.0099999,-10.014945983886719,-0.10295066982507706,0.849941611289978,14.95361328125,-12.6190185546875,-4.5166015625
18.0299999,-9.981427192687988,-0.06703764945268631,0.9600749015808105,13.7939453125,-9.1705322265625,-4.1656494140625
18.0499999,-9.880870819091797,0.07661445438861847,1.290474772453308,3.7078857421875,-4.058837890625,1.312255859375
18.0699999,-9.832986831665039,0.2992752194404602,1.6879122257232666,-10.4217529296875,3.662109375,3.173828125
18.089999900000002,-9.749189376831055,0.4620809257030487,1.9847931861877441,-18.310546875,7.0037841796875,1.5716552734375
18.109999900000002,-9.742006301879883,0.45250412821769714,2.094926595687866,-14.404296875,3.9520263671875,1.220703125
18.1299999,-9.80904483795166,0.22505496442317963,1.9608511924743652,-2.288818359375,-2.410888671875,4.08935546875
18.1499999,-9.832986831665039,-0.08379705995321274,1.6496049165725708,10.0555419921875,-6.4239501953125,3.997802734375
18.1699999,-9.909601211547852,-0.30885201692581177,1.4269442558288574,16.387939453125,-6.9427490234375,-0.946044921875
18.1899999,-9.921571731567383,-0.3495534360408783,1.290474772453308,13.36669921875,-3.0670166015625,-0.2593994140625
18.2099999,-9.871294021606445,-0.15322890877723694,1.3335703611373901,6.5460205078125,1.6326904296875,5.889892578125
18.2299999,-9.883264541625977,0.17477671802043915,1.4508862495422363,0.8087158203125,2.716064453125,6.4849853515625
18.249999900000002,-9.828198432922363,0.5554547905921936,1.623268723487854,-3.5552978515625,0.9002685546875,2.5787353515625
18.269999900000002,-9.804255485534668,0.8140285611152649,1.723825216293335,-5.218505859375,0.2593994140625,-2.0599365234375
18.2899999,-9.81143856048584,0.8451532125473022,1.8195933103561401,-6.04248046875,-0.732421875,-2.7313232421875
18.3099999,-9.80904483795166,0.5985504388809204,1.800439715385437,-4.8370361328125,-0.0152587890625,-3.7841796875
18.3299999,-9.840168952941895,0.2513911724090576,1.7836803197860718,0.5035400390625,1.03759765625,-7.0037841796875
18.3499999,-9.797073364257812,-0.08619125932455063,1.7190368175506592,5.4168701171875,4.4708251953125,-3.0670166015625
18.3699999,-9.830592155456543,-0.19153612852096558,1.742978811264038,4.2572021484375,9.58251953125,4.0283203125
18.3899999,-9.768342971801758,-0.05506663769483566,1.7405846118927002,-1.617431640625,10.986328125,5.126953125
18.409999900000003,-9.81143856048584,0.19632454216480255,1.6711528301239014,-7.080078125,8.5601806640625,0.732421875
18.429999900000002,-9.86650562286377,0.43335050344467163,1.45806884765625,-6.0272216796875,2.5787353515625,-2.471923828125
18.4499999,-9.93354320526123,0.43095630407333374,1.1061211824417114,0.335693359375,-6.6986083984375,-3.2196044921875
18.4699999,-10.012551307678223,0.17477671802043915,0.7661445140838623,9.033203125,-13.5650634765625,-4.8675537109375
18.4899999,-10.017339706420898,-0.14604631066322327,0.6105214357376099,18.6309814453125,-16.143798828125,-3.173828125
18.5099999,-9.914389610290527,-0.2777273952960968,1.1468225717544556,12.420654296875,-7.4615478515625,7.4462890625
18.5299999,-9.835380554199219,0.031124621629714966,1.6160861253738403,-2.1514892578125,-3.631591796875,7.2784423828125
18.5499999,-9.708487510681152,0.4620809257030487,2.1284453868865967,-11.3067626953125,-0.1068115234375,4.7760009765625
18.5699999,-9.672574996948242,0.8044517636299133,2.4013843536376953,-15.106201171875,1.2664794921875,0.579833984375
18.589999900000002,-9.636661529541016,0.9145850539207458,2.5091233253479004,-17.3187255859375,1.4190673828125,-2.3651123046875
18.609999900000002,-9.658209800720215,0.7757213711738586,2.4444799423217773,-14.9078369140625,4.4708251953125,-7.080078125
18.6299999,-9.672574996948242,0.545877993106842,2.3558945655822754,-12.9852294921875,11.5509033203125,-7.415771484375
18.6499999,-9.691728591918945,0.3016694188117981,2.3750481605529785,-18.310546875,19.3023681640625,-0.8087158203125
18.6699999,-9.622296333312988,0.2968810200691223,2.492363929748535,-32.9742431640625,27.16064453125,2.4566650390625
18.6899999,-9.433155059814453,0.5027823448181152,2.918531894683838,-58.28857421875,36.285400390625,5.43212890625
18.7099999,-8.192957878112793,0.7924807667732239,2.935291290283203,-97.5799560546875,60.1806640625,7.7056884765625
18.7299999,-7.402871608734131,0.3926490843296051,2.516305923461914,-97.503662109375,72.81494140625,31.1279296875
18.749999900000002,-6.785167694091797,-0.28969839215278625,1.1755530834197998,-32.257080078125,43.060302734375,3.4942626953125
18.769999900000002,-7.266402244567871,-1.4844050407409668,-0.6991068720817566,49.072265625,4.8675537109375,3.509521484375
18.7899999,-8.939949035644531,-2.0231003761291504,-2.054224967956543,102.386474609375,-28.6102294921875,31.43310546875
18.8099999,-10.57040023803711,-1.3287819623947144,-2.3582887649536133,100.738525390625,-35.7818603515625,29.35791015625
18.8299999,-12.145785331726074,0.43335050344467163,-1.4748282432556152,25.32958984375,-6.7291259765625,26.947021484375
18.8499999,-11.927912712097168,2.5522189140319824,0.05027823522686958,-52.0782470703125,7.3394775390625,-13.5498046875
18.8699999,-11.57357120513916,3.8331170082092285,1.525106430053711,-89.05029296875,21.8048095703125,-22.064208984375
18.8899999,-10.295066833496094,3.713406801223755,2.276885747909546,-104.2633056640625,32.684326171875,-23.223876953125
18.909999900000003,-9.366117477416992,2.205059766769409,2.43011474609375,-97.259521484375,36.956787109375,-5.126953125
18.929999900000002,-9.133879661560059,0.2082955539226532,1.9752163887023926,-63.7664794921875,36.102294921875,14.129638671875
18.9499999,-9.521739959716797,-1.525106430053711,1.0438719987869263,-22.003173828125,20.1263427734375,24.169921875
18.9699999,-10.295066833496094,-2.2170307636260986,-0.004788403399288654,27.191162109375,-3.4637451171875,23.0560302734375
18.9899999,-11.039664268493652,-1.7405846118927002,-0.9361328482627869,59.967041015625,-22.003173828125,8.9111328125
19.0099999,-11.683704376220703,-0.5339069962501526,-1.3862427473068237,58.1512451171875,-30.3802490234375,-5.9661865234375
19.0299999,-11.868058204650879,0.9361328482627869,-1.1875240802764893,38.39111328125,-36.4532470703125,-15.228271484375
19.0499999,-11.750741958618164,1.9129672050476074,-0.43335050344467163,10.8184814453125,-29.876708984375,-18.9208984375
19.0699999,-11.319786071777344,2.164358377456665,0.5961562395095825,-7.14111328125,-16.4947509765625,-19.744873046875
19.089999900000002,-10.745177268981934,1.7310078144073486,1.580173134803772,-8.4228515625,-5.2642822265625,-14.4805908203125
19.109999900000002,-10.093954086303711,0.9624691009521484,2.2002713680267334,-4.0283203125,-0.1678466796875,-7.293701171875
19.1299999,-9.550470352172852,0.1867477297782898,2.346317768096924,-0.7476806640625,3.1585693359375,-0.7781982421875
19.1499999,-9.114726066589355,-0.20350714027881622,2.2026655673980713,0.4730224609375,5.5084228515625,0.2899169921875
19.1699999,-8.880094528198242,-0.12689268589019775,1.9105730056762695,-6.89697265625,9.7198486328125,-5.06591796875
19.1899999,-8.858546257019043,0.15562310814857483,1.5729905366897583,-11.9781494140625,16.204833984375,-15.6097412109375
19.2099999,-9.004592895507812,0.33279404044151306,1.2258312702178955,-7.4615478515625,17.5323486328125,-18.7530517578125
19.2299999,-9.306262016296387,0.24420857429504395,0.8259995579719543,-1.434326171875,10.7421875,-10.894775390625
19.249999900000002,-9.646238327026367,-0.07182604819536209,0.4596867263317108,5.3253173828125,2.166748046875,-0.1983642578125
19.269999900000002,-9.950302124023438,-0.3232172429561615,0.2106897532939911,7.1258544921875,-2.74658203125,3.23486328125
19.2899999,-10.192116737365723,-0.2849099934101105,0.18914192914962769,3.96728515625,-3.11279296875,0.67138671875
19.3099999,-10.316615104675293,0,0.3423708379268646,-3.0517578125,-2.044677734375,-6.591796875
19.3299999,-10.400412559509277,0.2992752194404602,0.5363011956214905,-8.1787109375,-1.3885498046875,-12.1002197265625
19.3499999,-10.393229484558105,0.3902548849582672,0.6775590777397156,-7.965087890625,-4.3487548828125,-10.8795166015625
19.3699999,-10.316615104675293,0.23942017555236816,0.8092401623725891,-5.37109375,-7.7362060546875,-4.425048828125
19.3899999,-10.18493366241455,-0.06224924325942993,0.9959878921508789,-0.4425048828125,-4.913330078125,2.2735595703125
19.409999900000003,-10.034099578857422,-0.37828385829925537,1.1827356815338135,0.1373291015625,2.9144287109375,4.69970703125
19.429999900000002,-9.959878921508789,-0.5267243981361389,1.3551181554794312,-2.5482177734375,7.0953369140625,8.2550048828125
19.4499999,-10.005369186401367,-0.4884171485900879,1.3982137441635132,-6.5155029296875,5.6915283203125,11.77978515625
19.4699999,-10.053253173828125,-0.38067805767059326,1.2856862545013428,-4.0130615234375,4.94384765625,10.223388671875
19.4899999,-10.08198356628418,-0.24181437492370605,1.039083480834961,1.7242431640625,5.06591796875,10.31494140625
19.5099999,-10.101137161254883,-0.004788403399288654,0.8331822156906128,7.171630859375,1.9378662109375,12.6953125
19.5299999,-10.04846477508545,0.23942017555236816,0.7374141216278076,7.1868896484375,-1.220703125,8.4381103515625
19.5499999,-9.914389610290527,0.7230489253997803,1.3192051649093628,-6.3629150390625,5.4473876953125,-0.0152587890625
19.5699999,-9.428366661071777,1.2545616626739502,2.1284453868865967,-70.1904296875,39.337158203125,-4.974365234375
19.589999900000002,-9.090784072875977,1.53707754611969,2.806004285812378,-139.0533447265625,84.747314453125,9.33837890625
19.609999900000002,-8.559270858764648,1.6041151285171509,2.913743495941162,-142.1966552734375,89.6453857421875,17.2119140625
19.6299999,-8.367734909057617,1.338358759880066,2.2409727573394775,-118.560791015625,75.5157470703125,16.265869140625
19.6499999,-8.291120529174805,1.094150185585022,1.170764684677124,-116.4398193359375,71.441650390625,18.463134765625
19.6699999,-8.7484130859375,0.689530074596405,-0.31364041566848755,-127.25830078125,73.699951171875,34.85107421875
19.6899999,-9.615114212036133,0.24660277366638184,-2.2218191623687744,-88.8671875,51.45263671875,24.9481201171875
19.7099999,-10.910377502441406,-0.3447650372982025,-4.24970817565918,15.777587890625,-18.6004638671875,4.94384765625
19.7299999,-12.064382553100586,-0.7469909191131592,-5.940014362335205,116.2567138671875,-92.7886962890625,-5.8441162109375
19.749999900000002,-12.756306648254395,-0.8451532125473022,-6.165069580078125,150.87890625,-117.0654296875,-11.90185546875
19.769999900000002,-12.20803451538086,-0.09576806426048279,-4.235342979431152,126.312255859375,-103.21044921875,-8.1329345703125
19.7899999,-10.922348022460938,1.0223240852355957,-0.586579442024231,33.0352783203125,-41.168212890625,-5.31005859375
19.8099999,-9.181763648986816,2.2002713680267334,3.1004912853240967,-86.8988037109375,52.8717041015625,-3.8909912109375
19.8299999,-8.018181800842285,2.741360902786255,5.3127336502075195,-144.6075439453125,104.5684814453125,2.86865234375
19.8499999,-7.216124057769775,2.403778553009033,4.72376012802124,-114.013671875,81.0699462890625,2.532958984375
19.8699999,-8.365341186523438,1.4389152526855469,2.2385785579681396,-30.6854248046875,18.49365234375,7.110595703125
19.8899999,-9.718064308166504,0.15562310814857483,-1.2186486721038818,39.4134521484375,-38.5894775390625,-3.7994384765625
19.909999900000003,-11.453861236572266,-0.2992752194404602,-3.4811692237854004,76.6448974609375,-65.826416015625,-7.2479248046875
19.929999900000002,-12.868834495544434,-0.45010992884635925,-3.737348794937134,85.0830078125,-66.7724609375,-7.720947265625
19.9499999,-12.105083465576172,0.31124621629714966,-2.2697031497955322,35.3546142578125,-45.9136962890625,-16.41845703125
19.9699999,-10.99896240234375,1.0055646896362305,0.3495534360408783,-46.600341796875,12.5885009765625,-5.859375
19.9899999,-9.102754592895508,1.3527239561080933,2.360682964324951,-91.85791015625,58.746337890625,-4.2572021484375
20.0099999,-8.020575523376465,1.3287819623947144,3.227383852005005,-75.5157470703125,61.0809326171875,6.9122314453125
20.0299999,-8.62630844116211,0.7469909191131592,2.427720546722412,-38.726806640625,30.914306640625,2.197265625
20.0499999,-9.552865028381348,0.1412578970193863,0.7781155705451965,1.800537109375,6.2103271484375,4.852294921875
20.0699999,-10.939107894897461,-0.06703764945268631,-1.0103530883789062,32.1807861328125,-20.08056640625,-9.918212890625
