# Time (seconds),Accel_X,Accel_Y,Accel_Z,Gyro_X,Gyro_Y,Gyro_Z
0.0099999,-5.315127849578857,-7.601590633392334,1.7046716213226318,-48.27880859375,-30.3192138671875,106.903076171875
0.029999900000000003,-5.612008571624756,-7.419631004333496,1.4939818382263184,-51.116943359375,-22.5372314453125,110.3363037109375
0.0499999,-6.026205539703369,-7.273584842681885,1.1252747774124146,-49.713134765625,-32.53173828125,112.73193359375
0.0699999,-6.368576526641846,-7.180211067199707,0.7469909191131592,-42.3126220703125,-49.1180419921875,107.3150634765625
0.08999990000000001,-6.722918510437012,-7.12035608291626,0.38546648621559143,-35.64453125,-48.980712890625,103.3782958984375
0.10999990000000001,-7.024587631225586,-6.979097843170166,0.15322890877723694,-31.158447265625,-35.125732421875,103.82080078125
0.1299999,-7.328651428222656,-6.835445880889893,0.040701430290937424,-23.98681640625,-23.6358642578125,95.184326171875
0.14999990000000002,-7.642292022705078,-6.631938934326172,0.028730420395731926,-14.34326171875,-21.78955078125,79.89501953125
0.1699999,-8.006210327148438,-6.447585105895996,0.06464344263076782,-7.62939453125,-18.0511474609375,72.967529296875
0.1899999,-8.429984092712402,-6.1770405769348145,0.14604631066322327,-6.072998046875,-14.801025390625,77.1942138671875
0.20999990000000002,-8.81784439086914,-5.882553577423096,0.304063618183136,-5.55419921875,-18.5546875,73.0438232421875
0.2299999,-9.117119789123535,-5.506663799285889,0.49320554733276367,-6.0577392578125,-22.8424072265625,60.7452392578125
0.2499999,-9.301473617553711,-5.063736438751221,0.6991068720817566,-9.7808837890625,-22.979736328125,59.234619140625
0.2699999,-9.244012832641602,-4.5609540939331055,0.9241618514060974,-16.326904296875,-19.3939208984375,68.17626953125
0.28999990000000003,-8.942343711853027,-4.098873138427734,1.161187767982483,-23.4222412109375,-14.4805908203125,74.5849609375
0.3099999,-8.681375503540039,-3.6128504276275635,1.3335703611373901,-31.524658203125,-7.293701171875,80.99365234375
0.3299999,-8.549694061279297,-3.141192674636841,1.4269442558288574,-39.3524169921875,-5.9661865234375,87.4176025390625
0.34999990000000003,-8.62391471862793,-2.715024709701538,1.4628572463989258,-44.525146484375,-10.7574462890625,86.456298828125
0.3699999,-8.89445972442627,-2.3582887649536133,1.3910311460494995,-49.1790771484375,-5.645751953125,77.8350830078125
0.3899999,-9.258378028869629,-2.10210919380188,1.2641384601593018,-51.2237548828125,1.9378662109375,68.7408447265625
0.40999990000000003,-9.667786598205566,-1.8914192914962769,1.0797849893569946,-49.37744140625,3.997802734375,59.4940185546875
0.4299999,-10.002974510192871,-1.7597382068634033,0.8403648138046265,-45.41015625,6.5155029296875,44.0216064453125
0.4499999,-10.251971244812012,-1.699883222579956,0.5817909836769104,-39.825439453125,9.46044921875,31.06689453125
0.4699999,-10.436325073242188,-1.6879122257232666,0.33039984107017517,-33.660888671875,4.39453125,31.0516357421875
0.4899999,-10.512939453125,-1.7286136150360107,0.1388636976480484,-26.153564453125,-8.3160400390625,34.515380859375
0.5099999,-10.532093048095703,-1.7597382068634033,0.035913024097681046,-17.547607421875,-13.7939453125,31.4483642578125
0.5299999,-10.503362655639648,-1.745373010635376,0.0454898327589035,-10.650634765625,-11.2762451171875,27.313232421875
0.5499999,-10.44350814819336,-1.659181833267212,0.15083470940589905,-8.1939697265625,-12.8173828125,29.266357421875
0.5699999,-10.33098030090332,-1.522712230682373,0.3280056416988373,-8.5296630859375,-20.965576171875,32.1807861328125
0.5899998999999999,-10.20648193359375,-1.3886369466781616,0.5315127968788147,-9.21630859375,-23.5137939453125,31.3873291015625
0.6099998999999999,-10.15141487121582,-1.2713210582733154,0.7350199222564697,-11.4898681640625,-18.585205078125,32.9437255859375
0.6299999,-10.223240852355957,-1.1420341730117798,0.9145850539207458,-15.5181884765625,-14.2364501953125,30.6243896484375
0.6499999,-10.345345497131348,-1.0773907899856567,1.036689281463623,-17.0135498046875,-8.6517333984375,13.6260986328125
0.6699999,-10.460267066955566,-1.036689281463623,1.0606313943862915,-14.7857666015625,2.4261474609375,-5.218505859375
0.6899999,-10.409989356994629,-1.0295066833496094,0.9864110946655273,-11.0015869140625,10.6201171875,-11.16943359375
0.7099999,-10.108319282531738,-1.0965443849563599,0.8379706144332886,-7.1868896484375,10.009765625,-3.631591796875
0.7299998999999999,-9.701305389404297,-1.1492167711257935,0.6799532771110535,-5.5999755859375,3.72314453125,13.7786865234375
0.7499998999999999,-9.366117477416992,-1.1348515748977661,0.545877993106842,-5.2642822265625,-1.129150390625,29.1900634765625
0.7699999,-9.188945770263672,-1.039083480834961,0.5003881454467773,-3.326416015625,-7.0648193359375,34.4390869140625
0.7899999,-9.251194953918457,-0.8355764150619507,0.5746083855628967,-2.4261474609375,-10.986328125,34.0423583984375
0.8099999,-9.493009567260742,-0.5530605912208557,0.7326257228851318,-5.6304931640625,-4.9896240234375,26.7333984375
0.8299999,-9.780313491821289,-0.28730419278144836,0.9313444495201111,-11.0626220703125,3.84521484375,12.1002197265625
0.8499998999999999,-10.029311180114746,-0.09816227108240128,1.0893617868423462,-15.472412109375,5.157470703125,2.13623046875
0.8699998999999999,-10.165780067443848,-0.028730420395731926,1.1420341730117798,-18.6309814453125,2.0599365234375,2.62451171875
0.8899999,-10.137049674987793,-0.09576806426048279,1.0797849893569946,-19.6380615234375,0.7781982421875,6.622314453125
0.9099999,-10.20887565612793,-0.21547815203666687,0.9385270476341248,-17.39501953125,3.7994384765625,8.0108642578125
0.9299999,-10.211270332336426,-0.40940847992897034,0.7422025203704834,-12.8326416015625,3.2958984375,8.6517333984375
0.9499999,-10.326191902160645,-0.5195417404174805,0.5147533416748047,-7.6446533203125,-0.18310546875,12.87841796875
0.9699998999999999,-10.347740173339844,-0.6153098344802856,0.2992752194404602,-1.0986328125,-5.0201416015625,11.474609375
0.9899998999999999,-10.278307914733887,-0.6440402865409851,0.14365209639072418,4.2724609375,-6.6986083984375,9.0179443359375
1.0099999,-10.163386344909668,-0.6224924325942993,0.10055647045373917,6.2103271484375,-6.3018798828125,8.697509765625
1.0299999,-10.029311180114746,-0.6177040338516235,0.1843535304069519,5.767822265625,-10.3912353515625,10.1165771484375
1.0499999,-9.947908401489258,-0.6033388376235962,0.3734954595565796,3.5400390625,-12.0086669921875,12.1917724609375
1.0699999,-9.9000244140625,-0.5817909836769104,0.6057330369949341,1.0986328125,-9.979248046875,14.58740234375
1.0899999,-9.816226959228516,-0.5530605912208557,0.8595184087753296,0.244140625,-9.185791015625,15.289306640625
1.1099999,-9.825803756713867,-0.3974374830722809,1.1037269830703735,-1.1444091796875,-7.3699951171875,17.0135498046875
1.1299999,-9.825803756713867,-0.26815059781074524,1.314416766166687,-4.5013427734375,-4.0435791015625,12.2528076171875
1.1499999,-9.86889934539795,-0.08140286058187485,1.4748282432556152,-9.0789794921875,-0.3204345703125,14.2974853515625
1.1699998999999999,-9.8784761428833,0.08140286058187485,1.5849615335464478,-12.725830078125,1.983642578125,14.8773193359375
1.1899998999999999,-9.86889934539795,0.22266076505184174,1.625662922859192,-15.106201171875,5.5389404296875,13.24462890625
1.2099999,-9.821015357971191,0.33279404044151306,1.6136919260025024,-16.78466796875,9.613037109375,10.345458984375
1.2299999,-9.799467086791992,0.395043283700943,1.5203180313110352,-17.1966552734375,11.9171142578125,8.0718994140625
1.2499999,-9.81143856048584,0.40462008118629456,1.3503297567367554,-15.7012939453125,12.39013671875,6.7596435546875
1.2699999,-9.837775230407715,0.38067805767059326,1.1755530834197998,-13.0767822265625,12.8021240234375,6.53076171875
1.2899999,-9.856928825378418,0.3447650372982025,0.9648633003234863,-12.481689453125,13.824462890625,5.0811767578125
1.3099999,-9.892841339111328,0.304063618183136,0.7565677165985107,-11.1541748046875,13.1683349609375,2.44140625
1.3299999,-9.93593692779541,0.26336219906806946,0.6105214357376099,-7.1563720703125,10.68115234375,1.129150390625
1.3499999,-9.967061996459961,0.24660277366638184,0.5291185975074768,-6.378173828125,10.2691650390625,2.6397705078125
1.3699999,-9.976638793945312,0.21787235140800476,0.49799394607543945,-8.7432861328125,11.8408203125,1.708984375
1.3899999,-9.979032516479492,0.19632454216480255,0.5315127968788147,-7.26318359375,12.420654296875,-0.79345703125
1.4099999,-9.96945571899414,0.1628057211637497,0.5770025849342346,-1.953125,11.5203857421875,-0.0457763671875
1.4299998999999999,-9.959878921508789,0.1388636976480484,0.6177040338516235,0.274658203125,11.8255615234375,1.5106201171875
1.4499999,-9.95748519897461,0.10534487664699554,0.6344634294509888,-2.105712890625,14.0380859375,0.6103515625
1.4699999,-9.967061996459961,0.06224924325942993,0.5985504388809204,-3.47900390625,15.167236328125,-0.4730224609375
1.4899999,-9.96945571899414,0.023942016065120697,0.5386953949928284,-1.983642578125,13.6871337890625,1.52587890625
1.5099999,-9.986215591430664,-0.021547814831137657,0.4165911078453064,-5.31005859375,12.542724609375,4.8065185546875
1.5299999,-10.014945983886719,-0.028730420395731926,0.3064578175544739,-13.2293701171875,12.8631591796875,6.5460205078125
1.5499999,-10.036493301391602,0.004788403399288654,0.2322375625371933,-20.2789306640625,12.8326416015625,7.6141357421875
1.5699999,-10.053253173828125,0.06464344263076782,0.14365209639072418,-24.871826171875,11.77978515625,9.21630859375
1.5899999,-10.079588890075684,0.08619125932455063,0.002394201699644327,-24.383544921875,9.9639892578125,9.979248046875
1.6099999,-10.105925559997559,0.08858546614646912,-0.19632454216480255,-16.6015625,6.591796875,9.7503662109375
1.6299999,-10.129867553710938,0.08140286058187485,-0.44532153010368347,-4.486083984375,0.9307861328125,8.9569091796875
1.6499999,-10.153809547424316,0.08858546614646912,-0.6871358752250671,8.1939697265625,-5.5389404296875,7.9803466796875
1.6699999,-10.177751541137695,0.11971008777618408,-0.8834604024887085,18.5546875,-11.0321044921875,6.7901611328125
1.6899998999999999,-10.187328338623047,0.1867477297782898,-0.9528923034667969,25.634765625,-16.11328125,5.6304931640625
1.7099999,-10.156203269958496,0.3016694188117981,-0.8403648138046265,27.130126953125,-20.660400390625,5.279541015625
1.7299999,-10.089165687561035,0.42377370595932007,-0.6177040338516235,21.270751953125,-21.728515625,5.279541015625
1.7499999,-10.019734382629395,0.5363011956214905,-0.2944868206977844,16.0369873046875,-21.881103515625,4.7454833984375
1.7699999,-9.95748519897461,0.6392518281936646,0.10773907601833344,14.5111083984375,-22.6898193359375,4.69970703125
1.7899999,-9.90241813659668,0.7038952708244324,0.49559974670410156,10.284423828125,-20.93505859375,4.9285888671875
1.8099999,-9.86650562286377,0.727837324142456,0.8427590131759644,5.0811767578125,-17.08984375,4.4708251953125
1.8299999,-9.832986831665039,0.7230489253997803,1.1276689767837524,2.9754638671875,-13.7481689453125,3.814697265625
1.8499999,-9.794678688049316,0.7398083209991455,1.3239935636520386,1.8157958984375,-11.0931396484375,4.0283203125
1.8699999,-9.773131370544434,0.790086567401886,1.434126853942871,-0.1068115234375,-8.0108642578125,2.3956298828125
1.8899999,-9.746794700622559,0.8954314589500427,1.5945383310317993,-5.645751953125,-3.997802734375,-0.152587890625
1.9099999,-9.674968719482422,1.0031704902648926,1.8052281141281128,-21.17919921875,5.4168701171875,-3.692626953125
1.9299998999999999,-9.624691009521484,1.139639973640442,1.9297266006469727,-35.64453125,15.7012939453125,-6.2713623046875
1.9499999,-9.703699111938477,1.0965443849563599,1.824381709098816,-38.604736328125,22.0184326171875,-7.26318359375
1.9699999,-9.80904483795166,0.8451532125473022,1.3982137441635132,-28.3660888671875,17.6849365234375,-3.2196044921875
1.9899999,-10.08198356628418,0.6200982332229614,0.6488286852836609,-11.7034912109375,10.0860595703125,1.5411376953125
2.0099999,-10.247182846069336,0.17238251864910126,-0.24899697303771973,8.8348388671875,-8.819580078125,2.38037109375
2.0299999,-10.359710693359375,-0.10055647045373917,-0.9648633003234863,32.623291015625,-23.3306884765625,-5.79833984375
2.0499999,-10.223240852355957,-0.033518824726343155,-1.0558429956436157,41.900634765625,-20.7977294921875,-7.1258544921875
2.0699999,-10.062829971313477,0.37828385829925537,-0.5003881454467773,23.223876953125,-20.2789306640625,-4.5623779296875
2.0899999,-9.995792388916016,0.727837324142456,0.304063618183136,10.8489990234375,-22.918701171875,-3.3721923828125
2.1099999,-9.962273597717285,1.0295066833496094,1.0055646896362305,5.706787109375,-26.9927978515625,-7.659912109375
2.1299999,-9.773131370544434,1.0582371950149536,1.53707754611969,0.7781982421875,-21.087646484375,-15.167236328125
2.1499999,-9.883264541625977,0.8882488012313843,1.8076223134994507,0.6103515625,-5.2337646484375,-13.97705078125
2.1699999,-9.703699111938477,0.6200982332229614,1.9584569931030273,3.509521484375,-6.04248046875,-8.331298828125
2.1899999,-9.782708168029785,0.33997663855552673,2.011129379272461,-0.6561279296875,-7.781982421875,1.3275146484375
2.2099999,-9.710882186889648,0.21547815203666687,2.0254945755004883,-7.0037841796875,-11.4898681640625,-3.936767578125
2.2299999,-9.607931137084961,0.08379705995321274,2.0638017654418945,-7.3394775390625,-4.1046142578125,-15.4266357421875
2.2499999,-9.68933391571045,0.11252748221158981,1.9919757843017578,-3.11279296875,13.885498046875,-12.0697021484375
2.2699999,-9.636661529541016,0.090979665517807,1.7573440074920654,-1.312255859375,10.0860595703125,-2.532958984375
2.2899999,-9.928754806518555,0.06464344263076782,1.4484920501708984,0.0457763671875,4.6539306640625,1.4190673828125
2.3099999,-10.04846477508545,0.0071826050989329815,1.1037269830703735,5.5694580078125,-7.0953369140625,-4.8828125
2.3299999,-10.019734382629395,-0.009576806798577309,0.8690952062606812,11.505126953125,-7.781982421875,-12.908935546875
2.3499999,-10.072406768798828,0.05027823522686958,0.8188169598579407,14.0228271484375,5.0506591796875,-13.275146484375
2.3699999,-9.849745750427246,0.17956513166427612,1.0031704902648926,8.4686279296875,4.69970703125,-7.4615478515625
2.3899999,-9.907206535339355,0.2944868206977844,1.1994950771331787,-4.6539306640625,7.568359375,-1.861572265625
2.4099999,-9.825803756713867,0.2992752194404602,1.3838485479354858,-9.4146728515625,-2.3956298828125,-3.0059814453125
2.4299999,-9.797073364257812,0.09816227108240128,1.3742717504501343,-2.838134765625,-5.37109375,-12.3138427734375
2.4499999,-9.873687744140625,-0.19153612852096558,1.292868971824646,4.6844482421875,8.4228515625,-8.8043212890625
2.4699999,-9.821015357971191,-0.4572925269603729,1.173158884048462,3.753662109375,8.23974609375,2.3040771484375
2.4899999,-10.043676376342773,-0.5770025849342346,1.0462661981582642,-0.6256103515625,5.6304931640625,9.002685546875
2.5099999,-10.036493301391602,-0.5530605912208557,0.9385270476341248,2.777099609375,-9.552001953125,8.3160400390625
2.5299999,-9.995792388916016,-0.40940847992897034,0.8164227604866028,9.490966796875,-14.0380859375,-2.3956298828125
2.5499999,-9.974244117736816,-0.2059013396501541,0.7158663272857666,13.97705078125,-1.4801025390625,-5.7220458984375
2.5699999,-9.847352027893066,0.05267243832349777,0.6991068720817566,14.1754150390625,-3.23486328125,0.4730224609375
2.5899999,-10.010157585144043,0.35434186458587646,0.8810662031173706,9.21630859375,-5.4931640625,3.4637451171875
2.6099999,-9.945513725280762,0.5147533416748047,1.1971008777618408,0.9002685546875,-12.8631591796875,4.4097900390625
2.6299999,-9.9000244140625,0.5770025849342346,1.5298948287963867,-6.34765625,-8.9111328125,-9.1400146484375
2.6499999,-9.830592155456543,0.4141969084739685,1.745373010635376,-3.143310546875,6.3018798828125,-14.09912109375
2.6699999,-9.701305389404297,0.22026655077934265,1.86508309841156,5.1116943359375,6.500244140625,-2.838134765625
2.6899999,-9.825803756713867,0.06464344263076782,1.742978811264038,2.9144287109375,4.7149658203125,2.4566650390625
2.7099999,-9.84495735168457,-0.038307227194309235,1.7262194156646729,-1.4190673828125,-1.52587890625,2.9449462890625
2.7299999,-9.86650562286377,-0.15322890877723694,1.6831238269805908,-1.03759765625,-1.9378662109375,-6.4849853515625
2.7499999,-9.837775230407715,-0.29209262132644653,1.625662922859192,3.23486328125,10.009765625,-8.575439453125
2.7699999,-9.840168952941895,-0.4213795065879822,1.5921441316604614,3.3721923828125,14.862060546875,4.3182373046875
2.7899999,-9.923966407775879,-0.40222588181495667,1.436521053314209,-5.523681640625,13.2598876953125,9.429931640625
2.8099999,-9.955090522766113,-0.31842881441116333,1.2306196689605713,-8.6669921875,5.157470703125,11.16943359375
2.8299999,-9.962273597717285,-0.15801730751991272,1.0462661981582642,-1.4495849609375,-3.265380859375,1.8310546875
2.8499999,-9.9000244140625,-0.028730420395731926,0.7829039692878723,6.591796875,1.708984375,-5.1116943359375
2.8699999,-9.916783332824707,0.06224924325942993,0.7038952708244324,7.4920654296875,7.6751708984375,3.0364990234375
2.8899999,-10.02691650390625,0.17238251864910126,0.5793967843055725,1.678466796875,2.2430419921875,5.9814453125
2.9099999,-10.079588890075684,0.12449848651885986,0.608127236366272,2.62451171875,-7.99560546875,8.148193359375
2.9299999,-10.139444351196289,0.1388636976480484,0.7445967197418213,7.14111328125,-15.3961181640625,1.77001953125
2.9499999,-9.90241813659668,0.028730420395731926,0.9265560507774353,5.645751953125,-5.7373046875,-4.8980712890625
2.9699999,-9.90241813659668,0.0454898327589035,1.2737152576446533,0.7171630859375,7.080078125,2.166748046875
2.9899999,-9.749189376831055,0.12689268589019775,1.53707754611969,-7.9345703125,4.669189453125,8.2550048828125
3.0099999,-9.813833236694336,0.17717093229293823,1.6831238269805908,-13.8397216796875,2.44140625,11.688232421875
3.0299999,-9.93354320526123,0.22744916379451752,1.6496049165725708,-9.9639892578125,-2.9144287109375,3.5552978515625
3.0499999,-9.806650161743164,0.22026655077934265,1.534683346748352,-0.79345703125,1.0223388671875,-7.354736328125
3.0699999,-9.911994934082031,0.2322375625371933,1.4676456451416016,4.425048828125,12.0697021484375,-1.4190673828125
3.0899999,-9.763554573059082,0.40940847992897034,1.4460978507995605,-7.1258544921875,10.7269287109375,4.0435791015625
3.1099999,-9.86889934539795,0.43335050344467163,1.434126853942871,-18.5394287109375,12.5274658203125,4.5013427734375
3.1299999,-9.96945571899414,0.4165911078453064,1.3192051649093628,-15.3961181640625,3.3721923828125,-0.9613037109375
3.1499999,-9.90241813659668,0.2753331959247589,1.072602391242981,-4.9591064453125,2.105712890625,-7.8277587890625
3.1699999,-10.0580415725708,0.09816227108240128,0.8092401623725891,2.9449462890625,10.9100341796875,-4.241943359375
3.1899999,-9.923966407775879,0.06464344263076782,0.5482721924781799,1.46484375,5.4779052734375,0.8087158203125
3.2099999,-10.062829971313477,0.026336219161748886,0.3902548849582672,2.716064453125,0.7781982421875,2.3345947265625
3.2299999,-10.074800491333008,0.004788403399288654,0.31603461503982544,13.6871337890625,-15.6707763671875,-0.0152587890625
3.2499999,-10.014945983886719,-0.14604631066322327,0.33279404044151306,20.8587646484375,-17.0135498046875,-7.1868896484375
3.2699999,-10.065223693847656,-0.17238251864910126,0.5339069962501526,19.6990966796875,-2.8076171875,-4.8065185546875
3.2899999,-9.792284965515137,-0.15083470940589905,0.9217676520347595,9.429931640625,-3.1890869140625,4.69970703125
3.3099999,-9.9000244140625,0.10534487664699554,1.37906014919281,-6.0882568359375,0.244140625,6.53076171875
3.3299999000000002,-9.770736694335938,0.33039984107017517,1.7932571172714233,-14.1754150390625,-2.9754638671875,3.7841796875
3.3499999,-9.706093788146973,0.40222588181495667,1.9919757843017578,-14.4805908203125,0.1983642578125,-5.4931640625
3.3699999,-9.782708168029785,0.47165772318840027,2.056619167327881,-11.138916015625,12.6495361328125,-7.6141357421875
3.3899999,-9.667786598205566,0.4141969084739685,1.9297266006469727,-14.4805908203125,14.09912109375,2.4566650390625
3.4099999,-9.904812812805176,0.40462008118629456,1.6974890232086182,-22.4761962890625,15.106201171875,2.899169921875
3.4299999,-9.926360130310059,0.28969839215278625,1.3431471586227417,-16.9677734375,4.5318603515625,1.129150390625
3.4499999,-9.96945571899414,0.07661445438861847,0.8786720037460327,-0.1678466796875,-2.044677734375,-6.439208984375
3.4699999,-10.019734382629395,-0.13168109953403473,0.40940847992897034,16.693115234375,1.8463134765625,-8.5906982421875
3.4899999,-9.981427192687988,-0.22026655077934265,0.1364694982767105,21.087646484375,-0.5950927734375,-0.701904296875
3.5099999,-10.192116737365723,-0.1867477297782898,-0.002394201699644327,14.7705078125,-5.462646484375,-0.518798828125
3.5299999,-10.17296314239502,-0.14604631066322327,0.06224924325942993,16.998291015625,-16.693115234375,1.89208984375
3.5499999,-10.168174743652344,-0.16759411990642548,0.3232172429561615,27.5726318359375,-24.0325927734375,-2.655029296875
3.5699999,-9.979032516479492,-0.2106897532939911,0.6272808313369751,29.4647216796875,-16.021728515625,-6.317138671875
3.5899999,-9.847352027893066,-0.15322890877723694,1.158793568611145,16.6015625,-3.997802734375,4.5318603515625
3.6099999,-9.737217903137207,0.1628057211637497,1.6328455209732056,-4.2724609375,-3.11279296875,8.11767578125
3.6299999,-9.75397777557373,0.3974374830722809,2.054224967956543,-19.683837890625,-3.2806396484375,6.805419921875
3.6499999,-9.806650161743164,0.6105214357376099,2.31758713722229,-22.613525390625,-2.25830078125,-0.274658203125
3.6699999,-9.651026725769043,0.5817909836769104,2.322375535964966,-19.6990966796875,6.0882568359375,-7.415771484375
3.6899999,-9.823410034179688,0.44532153010368347,2.1356279850006104,-15.19775390625,16.4642333984375,-0.1983642578125
3.7099999,-9.751583099365234,0.30885201692581177,1.7836803197860718,-14.95361328125,10.07080078125,4.302978515625
3.7299999,-9.907206535339355,0.08140286058187485,1.2521674633026123,-9.5672607421875,1.46484375,5.0811767578125
3.7499999,-10.06043529510498,0.002394201699644327,0.7829039692878723,5.2490234375,-9.2620849609375,-2.2125244140625
3.7699999,-9.959878921508789,-0.07422025501728058,0.5123591423034668,17.4102783203125,-10.6048583984375,-10.19287109375
3.7899999,-10.096348762512207,-0.031124621629714966,0.4644751250743866,18.4478759765625,1.6021728515625,-5.2642822265625
3.8099999,-9.892841339111328,0.17238251864910126,0.7206547260284424,9.429931640625,-0.79345703125,-1.0986328125
3.8299999000000002,-9.919178009033203,0.31603461503982544,1.1228805780410767,1.220703125,-3.875732421875,-2.99072265625
3.8499999,-9.885659217834473,0.5099649429321289,1.525106430053711,-2.532958984375,-6.3934326171875,-7.2784423828125
3.8699999,-9.718064308166504,0.4118026793003082,1.8100165128707886,-4.2572021484375,-1.8768310546875,-14.5416259765625
3.8899999,-9.856928825378418,0.3423708379268646,1.9847931861877441,-4.913330078125,12.9547119140625,-11.9781494140625
3.9099999,-9.694122314453125,0.07661445438861847,1.9584569931030273,-8.331298828125,13.5650634765625,-2.410888671875
3.9299999,-9.8784761428833,-0.11971008777618408,1.7525556087493896,-9.185791015625,9.2315673828125,0.67138671875
3.9499999,-9.962273597717285,-0.29209262132644653,1.4101848602294922,-3.0364990234375,-2.5634765625,-0.6103515625
3.9699999,-9.947908401489258,-0.5171475410461426,1.0199298858642578,6.988525390625,-5.4168701171875,-5.6304931640625
3.9899999,-10.041281700134277,-0.569819986820221,0.7541735172271729,12.8326416015625,4.2266845703125,-4.241943359375
4.0099999,-9.883264541625977,-0.608127236366272,0.6751648783683777,8.7127685546875,3.265380859375,5.92041015625
4.029999900000001,-9.981427192687988,-0.40462008118629456,0.7613561153411865,0.7171630859375,0.213623046875,7.4615478515625
4.0499999,-9.986215591430664,-0.22026655077934265,0.8547300100326538,1.1138916015625,-10.467529296875,5.462646484375
4.069999900000001,-9.938331604003906,-0.09816227108240128,0.9744400978088379,7.0037841796875,-13.7481689453125,-1.068115234375
4.0899999000000005,-9.983820915222168,0.08379705995321274,1.072602391242981,8.7890625,-2.5177001953125,-4.180908203125
4.1099999,-9.835380554199219,0.1388636976480484,1.2306196689605713,2.4871826171875,0.1220703125,4.7454833984375
4.1299999000000005,-9.943120002746582,0.28730419278144836,1.4197616577148438,-7.9803466796875,-0.1220703125,4.5928955078125
4.1499999,-9.852140426635742,0.33039984107017517,1.577778935432434,-10.223388671875,-6.0577392578125,3.96728515625
4.1699999000000005,-9.897629737854004,0.2849099934101105,1.6112977266311646,-2.99072265625,-7.415771484375,-2.8076171875
4.1899999,-9.825803756713867,0.17956513166427612,1.5514427423477173,7.7362060546875,-0.79345703125,-9.33837890625
4.209999900000001,-9.852140426635742,0.090979665517807,1.5418659448623657,11.474609375,5.1422119140625,-2.5787353515625
4.2299999,-9.830592155456543,0.0694318488240242,1.4891934394836426,4.302978515625,-0.274658203125,1.8310546875
4.249999900000001,-9.873687744140625,0.047884032130241394,1.5490485429763794,-0.244140625,-1.0833740234375,1.2054443359375
4.2699999,-9.9000244140625,0.035913024097681046,1.5729905366897583,0.457763671875,-3.692626953125,-2.716064453125
4.289999900000001,-9.768342971801758,-0.038307227194309235,1.5083470344543457,2.8839111328125,-3.0517578125,-6.683349609375
4.3099999,-9.84495735168457,-0.06703764945268631,1.455674648284912,5.5694580078125,7.843017578125,-8.0413818359375
4.329999900000001,-9.828198432922363,-0.090979665517807,1.3934253454208374,2.86865234375,8.2550048828125,0.1373291015625
4.3499999,-9.864110946655273,-0.06464344263076782,1.3646949529647827,-4.486083984375,5.3253173828125,1.6632080078125
4.369999900000001,-9.967061996459961,-0.047884032130241394,1.3431471586227417,-7.7056884765625,1.129150390625,3.2501220703125
4.3899999,-10.017339706420898,-0.06464344263076782,1.2665326595306396,-5.2337646484375,-3.8299560546875,-0.5950927734375
4.409999900000001,-9.962273597717285,-0.0933738648891449,1.1468225717544556,2.4566650390625,-5.5084228515625,-3.90625
4.4299999,-9.950302124023438,-0.14604631066322327,1.094150185585022,7.8277587890625,3.0670166015625,-6.8511962890625
4.449999900000001,-9.86889934539795,-0.10055647045373917,1.1276689767837524,5.2032470703125,3.60107421875,1.1138916015625
4.4699999,-9.852140426635742,-0.08379705995321274,1.2473790645599365,-3.90625,0.4425048828125,2.9296875
4.489999900000001,-9.916783332824707,0.016759412363171577,1.37906014919281,-6.0882568359375,-1.3427734375,3.8604736328125
4.5099999,-9.940725326538086,-0.05985504388809204,1.4508862495422363,-2.9449462890625,-7.4462890625,-0.152587890625
4.529999900000001,-9.864110946655273,-0.08140286058187485,1.4460978507995605,1.3580322265625,-6.5155029296875,-0.5035400390625
4.5499999,-9.864110946655273,-0.181959331035614,1.3670891523361206,5.1422119140625,2.532958984375,-4.9896240234375
4.569999900000001,-9.828198432922363,-0.14365209639072418,1.4437036514282227,4.0130615234375,5.5999755859375,2.8839111328125
4.5899999000000005,-9.847352027893066,-0.011971008032560349,1.558625340461731,-8.0108642578125,1.861572265625,5.2337646484375
4.609999900000001,-9.909601211547852,0.090979665517807,1.7956513166427612,-21.484375,7.476806640625,6.9427490234375
4.6299999000000005,-9.916783332824707,0.181959331035614,1.9297266006469727,-26.1077880859375,5.06591796875,3.5858154296875
4.6499999,-9.813833236694336,0.05985504388809204,1.8770540952682495,-17.364501953125,4.57763671875,0.7476806640625
4.6699999000000005,-9.840168952941895,-0.07900865375995636,1.5753847360610962,-0.7781982421875,8.209228515625,-2.8839111328125
4.6899999,-9.86650562286377,-0.15322890877723694,1.2497732639312744,8.23974609375,10.467529296875,2.655029296875
4.709999900000001,-9.897629737854004,-0.17956513166427612,0.8762778043746948,6.0272216796875,2.349853515625,4.82177734375
4.7299999,-10.038887977600098,-0.023942016065120697,0.751779317855835,2.0904541015625,0.1983642578125,3.4027099609375
4.749999900000001,-10.031704902648926,0.12210428714752197,0.667982280254364,3.5400390625,-9.4451904296875,-0.152587890625
4.7699999,-10.022128105163574,0.22026655077934265,0.7733271718025208,5.3253173828125,-10.0250244140625,-4.2724609375
4.789999900000001,-9.940725326538086,0.23702596127986908,0.8762778043746948,10.5743408203125,-5.37109375,-11.993408203125
4.8099999,-9.907206535339355,0.20350714027881622,1.1300631761550903,14.312744140625,3.021240234375,-7.4920654296875
4.829999900000001,-9.761159896850586,0.20111294090747833,1.3670891523361206,6.8206787109375,0.2593994140625,-0.396728515625
4.8499999,-9.799467086791992,0.1843535304069519,1.6735470294952393,-4.57763671875,3.631591796875,-2.4871826171875
4.869999900000001,-9.782708168029785,0.16519992053508759,1.8483237028121948,-7.415771484375,0.2899169921875,-4.150390625
4.8899999,-9.84256362915039,0.05027823522686958,1.9393033981323242,-5.79833984375,0.1068115234375,-6.805419921875
4.909999900000001,-9.775525093078613,-0.14604631066322327,1.824381709098816,-0.8392333984375,4.94384765625,-8.3770751953125
4.9299999,-9.888052940368652,-0.272938996553421,1.6304513216018677,1.434326171875,13.85498046875,-6.9427490234375
4.949999900000001,-9.744400978088379,-0.33997663855552673,1.400607943534851,0.274658203125,8.2244873046875,1.1444091796875
4.9699999,-9.943120002746582,-0.2944868206977844,1.1468225717544556,-4.0435791015625,6.378173828125,0.8544921875
4.989999900000001,-9.945513725280762,-0.22505496442317963,0.993593692779541,-0.42724609375,-3.5858154296875,0.946044921875
5.0099999,-10.11789608001709,-0.22744916379451752,0.8403648138046265,4.3487548828125,-7.01904296875,-3.11279296875
5.029999900000001,-10.050858497619629,-0.26096799969673157,0.7661445140838623,11.444091796875,-6.9122314453125,-6.1798095703125
5.0499999,-10.053253173828125,-0.272938996553421,0.849941611289978,18.1427001953125,1.739501953125,-7.5836181640625
5.069999900000001,-9.926360130310059,-0.16759411990642548,1.0797849893569946,11.077880859375,0.8087158203125,2.5482177734375
5.0899999000000005,-9.859322547912598,-0.026336219161748886,1.3646949529647827,-8.2855224609375,3.021240234375,0.5340576171875
5.109999900000001,-9.873687744140625,0.15083470940589905,1.680729627609253,-16.54052734375,2.3193359375,-0.274658203125
5.1299999000000005,-9.856928825378418,0.16998831927776337,1.867477297782898,-15.777587890625,-0.5035400390625,-5.157470703125
5.1499999,-9.80904483795166,0.0694318488240242,1.8100165128707886,-9.3841552734375,2.3651123046875,-6.256103515625
5.1699999000000005,-9.825803756713867,-0.1149216815829277,1.6711528301239014,0.54931640625,12.4664306640625,-10.223388671875
5.1899999,-9.77791976928711,-0.2346317619085312,1.4628572463989258,8.4075927734375,11.4593505859375,-1.15966796875
5.209999900000001,-9.84495735168457,-0.24420857429504395,1.2737152576446533,3.5247802734375,5.9356689453125,-1.2969970703125
5.2299999,-9.93354320526123,-0.19632454216480255,1.161187767982483,0.1068115234375,3.326416015625,-1.0833740234375
5.249999900000001,-10.019734382629395,-0.16519992053508759,1.0438719987869263,1.5411376953125,-2.8839111328125,-7.781982421875
5.2699999,-9.938331604003906,-0.16759411990642548,1.0127472877502441,5.645751953125,-2.2125244140625,-8.4075927734375
5.289999900000001,-9.923966407775879,-0.31124621629714966,0.9720458984375,6.6375732421875,6.0577392578125,-12.3291015625
5.3099999,-9.883264541625977,-0.31603461503982544,1.0319008827209473,4.5928955078125,9.8419189453125,-3.6163330078125
5.329999900000001,-9.861717224121094,-0.44532153010368347,1.0678139925003052,-2.532958984375,3.96728515625,-1.129150390625
5.3499999,-9.983820915222168,-0.42377370595932007,1.0893617868423462,-3.5247802734375,3.143310546875,1.6021728515625
5.369999900000001,-9.988609313964844,-0.47644615173339844,1.1300631761550903,0.0152587890625,-5.9356689453125,-2.197265625
5.3899999,-9.909601211547852,-0.5315127968788147,1.113303780555725,1.40380859375,-2.8533935546875,-2.7008056640625
5.409999900000001,-9.909601211547852,-0.5219359993934631,1.1013327836990356,2.2125244140625,4.150390625,-7.9498291015625
5.4299999,-9.923966407775879,-0.48602294921875,1.113303780555725,3.60107421875,8.880615234375,-0.5950927734375
5.449999900000001,-9.885659217834473,-0.3758896589279175,1.1085153818130493,-1.7852783203125,0.3204345703125,2.655029296875
5.4699999,-10.002974510192871,-0.26336219906806946,1.1085153818130493,-8.23974609375,2.8533935546875,3.570556640625
5.489999900000001,-9.976638793945312,-0.2561795711517334,1.115697979927063,-5.2490234375,-5.4779052734375,-0.946044921875
5.5099999,-9.921571731567383,-0.28730419278144836,1.1276689767837524,2.3956298828125,-5.401611328125,-2.9754638671875
5.529999900000001,-9.938331604003906,-0.4381389021873474,0.9983820915222168,9.3231201171875,-2.8533935546875,-7.9803466796875
5.5499999,-9.974244117736816,-0.47644615173339844,0.9409212470054626,13.336181640625,4.69970703125,-2.0294189453125
5.569999900000001,-9.916783332824707,-0.4692635238170624,0.9457096457481384,8.8348388671875,-2.5482177734375,3.0364990234375
5.5899999000000005,-10.014945983886719,-0.35673606395721436,1.0869675874710083,-2.777099609375,0.2593994140625,2.8228759765625
5.609999900000001,-9.943120002746582,-0.21308395266532898,1.3215993642807007,-10.43701171875,-3.2196044921875,0.42724609375
5.6299999000000005,-9.938331604003906,-0.21787235140800476,1.5729905366897583,-10.9100341796875,0.518798828125,-3.448486328125
5.6499999,-9.818621635437012,-0.26096799969673157,1.6735470294952393,-5.31005859375,4.57763671875,-6.439208984375
5.6699999000000005,-9.830592155456543,-0.3926490843296051,1.5610195398330688,-0.18310546875,14.70947265625,-3.173828125
5.6899999,-9.708487510681152,-0.4357447028160095,1.3910311460494995,1.5106201171875,8.36181640625,3.0517578125
5.709999900000001,-9.8784761428833,-0.4381389021873474,1.1324573755264282,-2.7313232421875,6.7901611328125,1.03759765625
5.7299999,-9.907206535339355,-0.3974374830722809,0.8882488012313843,-0.9918212890625,-2.105712890625,1.007080078125
5.749999900000001,-10.079588890075684,-0.3974374830722809,0.7445967197418213,4.669189453125,-5.5084228515625,-4.08935546875
5.7699999,-10.04846477508545,-0.5003881454467773,0.6153098344802856,11.2457275390625,-5.950927734375,-6.1492919921875
5.789999900000001,-10.065223693847656,-0.5195417404174805,0.5985504388809204,13.946533203125,3.2806396484375,-6.4849853515625
5.8099999,-9.943120002746582,-0.5746083855628967,0.7709329724311829,10.9710693359375,0.2288818359375,3.875732421875
5.829999900000001,-9.931148529052734,-0.4429273009300232,0.9481038451194763,-1.28173828125,-0.2899169921875,2.197265625
5.8499999,-9.909601211547852,-0.4692635238170624,1.1827356815338135,-5.31005859375,-2.2735595703125,4.0130615234375
5.869999900000001,-9.945513725280762,-0.38546648621559143,1.338358759880066,-3.6773681640625,-6.04248046875,-0.54931640625
5.8899999,-9.840168952941895,-0.5602431893348694,1.4269442558288574,1.3275146484375,-3.662109375,-0.6256103515625
5.909999900000001,-9.84256362915039,-0.5386953949928284,1.436521053314209,3.5552978515625,7.2479248046875,-2.655029296875
5.9299999,-9.775525093078613,-0.5913678407669067,1.4748282432556152,1.7242431640625,9.490966796875,7.9345703125
5.949999900000001,-9.78989028930664,-0.38307225704193115,1.4867992401123047,-8.697509765625,4.425048828125,5.31005859375
5.9699999,-9.864110946655273,-0.2753331959247589,1.5131354331970215,-16.4642333984375,5.7525634765625,8.087158203125
5.989999900000001,-9.940725326538086,-0.09576806426048279,1.3455413579940796,-16.876220703125,0.06103515625,1.220703125
6.0099999,-9.9000244140625,-0.24420857429504395,1.137245774269104,-4.6539306640625,-0.3662109375,-1.8310546875
6.029999900000001,-10.005369186401367,-0.4429273009300232,0.5171475410461426,17.8375244140625,2.5787353515625,1.861572265625
6.0499999,-10.0580415725708,-0.38546648621559143,0.33039984107017517,15.6402587890625,-7.50732421875,0.8087158203125
6.069999900000001,-10.156203269958496,-0.4644751250743866,0.4381389021873474,14.6026611328125,-8.5601806640625,2.2735595703125
6.0899999000000005,-10.108319282531738,-0.3758896589279175,0.6584054827690125,15.0604248046875,-17.02880859375,0.091552734375
6.109999900000001,-9.950302124023438,-0.4908113479614258,1.0582371950149536,10.5743408203125,-12.5274658203125,1.5106201171875
6.1299999000000005,-9.813833236694336,-0.40222588181495667,1.4197616577148438,2.01416015625,-2.777099609375,-4.8370361328125
6.149999900000001,-9.758766174316406,-0.3495534360408783,1.9057846069335938,-7.2174072265625,11.1541748046875,4.2877197265625
6.1699999000000005,-9.641449928283691,-0.15562310814857483,2.0829553604125977,-20.5078125,10.1165771484375,6.988525390625
6.1899999,-9.801861763000488,-0.06224924325942993,2.1475989818573,-26.4739990234375,13.85498046875,6.9580078125
6.209999900000001,-9.818621635437012,-0.090979665517807,1.8315643072128296,-18.707275390625,4.3487548828125,4.0283203125
6.2299999,-9.919178009033203,-0.2992752194404602,1.403002142906189,-1.15966796875,0.5950927734375,1.8310546875
6.249999900000001,-9.962273597717285,-0.5434837937355042,0.8212111592292786,14.2822265625,-1.4190673828125,-1.861572265625
6.2699999,-10.074800491333008,-0.6584054827690125,0.43335050344467163,19.805908203125,3.7384033203125,2.4261474609375
6.289999900000001,-10.005369186401367,-0.5506663918495178,0.31124621629714966,15.0146484375,-4.425048828125,7.7362060546875
6.3099999,-10.098742485046387,-0.3232172429561615,0.3495534360408783,2.2430419921875,-3.7841796875,4.791259765625
6.329999900000001,-10.041281700134277,-0.0071826050989329815,0.6536170840263367,-5.8441162109375,-11.41357421875,3.0975341796875
6.3499999,-10.062829971313477,0.11013327538967133,0.8810662031173706,-7.476806640625,-10.650634765625,-0.5340576171875
6.369999900000001,-9.914389610290527,0.05267243832349777,1.1516109704971313,-0.9002685546875,-9.2315673828125,-5.4779052734375
6.3899999,-9.880870819091797,-0.07661445438861847,1.2761094570159912,6.591796875,1.0833740234375,-4.0283203125
6.409999900000001,-9.75397777557373,-0.2801215946674347,1.4413094520568848,6.5460205078125,0.3509521484375,7.5225830078125
6.4299999,-9.799467086791992,-0.3663128614425659,1.4748282432556152,-0.9002685546875,-1.129150390625,5.5694580078125
6.449999900000001,-9.84256362915039,-0.3998316824436188,1.5969325304031372,-2.960205078125,-5.2337646484375,6.9427490234375
6.4699999,-9.943120002746582,-0.33758243918418884,1.5418659448623657,-2.960205078125,-7.9498291015625,3.7841796875
6.489999900000001,-9.84256362915039,-0.2849099934101105,1.6065093278884888,-0.7781982421875,-4.7607421875,0.946044921875
6.5099999,-9.84256362915039,-0.15562310814857483,1.5059528350830078,-0.2288818359375,6.927490234375,-4.9591064453125
6.529999900000001,-9.78989028930664,-0.004788403399288654,1.577778935432434,-0.1983642578125,7.9498291015625,5.5084228515625
6.5499999,-9.782708168029785,0.15083470940589905,1.501164436340332,-6.7291259765625,3.6163330078125,2.01416015625
6.569999900000001,-9.9000244140625,0.24660277366638184,1.5682021379470825,-7.537841796875,2.2430419921875,1.129150390625
6.5899999000000005,-9.931148529052734,0.20111294090747833,1.3862427473068237,-3.4332275390625,-4.08935546875,-5.6610107421875
6.609999900000001,-9.911994934082031,0.021547814831137657,1.278503656387329,4.9896240234375,-4.08935546875,-5.5999755859375
6.6299999000000005,-9.919178009033203,-0.17238251864910126,1.091755986213684,11.810302734375,2.166748046875,-10.7574462890625
6.649999900000001,-9.909601211547852,-0.31842881441116333,1.1300631761550903,14.3890380859375,5.5694580078125,0.54931640625
6.6699999000000005,-9.888052940368652,-0.35673606395721436,1.1300631761550903,3.082275390625,2.4871826171875,1.4495849609375
6.6899999,-9.955090522766113,-0.2849099934101105,1.335964560508728,-2.4261474609375,3.4637451171875,1.8463134765625
6.709999900000001,-9.93593692779541,-0.22744916379451752,1.436521053314209,-2.01416015625,-5.157470703125,-0.91552734375
6.7299999,-9.835380554199219,-0.19632454216480255,1.6136919260025024,-3.0975341796875,-1.190185546875,-1.52587890625
6.749999900000001,-9.804255485534668,-0.1867477297782898,1.656787633895874,-8.5296630859375,9.979248046875,-7.4920654296875
6.7699999,-9.797073364257812,-0.17717093229293823,1.721431016921997,-12.20703125,18.6767578125,0.946044921875
6.789999900000001,-9.768342971801758,-0.10773907601833344,1.5825673341751099,-17.2119140625,10.8184814453125,5.1422119140625
6.8099999,-9.950302124023438,-0.08619125932455063,1.3215993642807007,-17.08984375,10.1776123046875,3.662109375
6.829999900000001,-10.017339706420898,-0.08858546614646912,0.9552865028381348,-5.4168701171875,-3.11279296875,-1.3885498046875
6.8499999,-10.067618370056152,-0.2059013396501541,0.5889736413955688,11.4593505859375,-7.7667236328125,-3.753662109375
6.869999900000001,-10.091560363769531,-0.3687070608139038,0.26336219906806946,24.90234375,-8.544921875,-8.30078125
6.8899999,-10.079588890075684,-0.3711012601852417,0.31842881441116333,26.9927978515625,-2.197265625,-3.9825439453125
6.909999900000001,-9.911994934082031,-0.29209262132644653,0.6320692300796509,10.5438232421875,-5.5694580078125,2.99072265625
6.9299999,-9.940725326538086,-0.11013327538967133,1.1492167711257935,-14.34326171875,3.0059814453125,0.946044921875
6.949999900000001,-9.801861763000488,-0.040701430290937424,1.6831238269805908,-24.2462158203125,-0.1373291015625,1.190185546875
6.9699999,-9.849745750427246,-0.12210428714752197,1.9081788063049316,-21.6522216796875,0.1220703125,0.6866455078125
6.989999900000001,-9.77791976928711,-0.4118026793003082,1.86508309841156,-9.7503662109375,3.509521484375,-0.8697509765625
7.0099999,-9.86650562286377,-0.6200982332229614,1.460463047027588,4.7454833984375,10.4217529296875,0.9307861328125
7.029999900000001,-9.78989028930664,-0.7038952708244324,1.161187767982483,13.519287109375,1.64794921875,9.7503662109375
7.0499999,-9.979032516479492,-0.5434837937355042,0.790086567401886,9.613037109375,-2.0904541015625,6.744384765625
7.069999900000001,-9.967061996459961,-0.2322375625371933,0.7445967197418213,4.8828125,-8.209228515625,4.7760009765625
7.0899999000000005,-10.103530883789062,0.10773907601833344,0.8164227604866028,-1.3427734375,-10.833740234375,-1.64794921875
7.109999900000001,-9.971850395202637,0.33997663855552673,1.0007762908935547,-5.767822265625,-7.7056884765625,-5.7220458984375
7.1299999000000005,-9.952696800231934,0.3423708379268646,1.2306196689605713,-7.2021484375,5.0811767578125,-10.55908203125
7.149999900000001,-9.835380554199219,0.22744916379451752,1.41257905960083,-4.608154296875,7.7362060546875,1.3580322265625
7.1699999000000005,-9.758766174316406,0.0933738648891449,1.5394717454910278,-7.7667236328125,0.6561279296875,1.64794921875
7.1899999,-9.780313491821289,-0.014365210197865963,1.7836803197860718,-14.251708984375,2.1209716796875,3.6468505859375
7.209999900000001,-9.737217903137207,0.08619125932455063,2.0829553604125977,-39.1082763671875,3.1585693359375,-1.708984375
7.2299999,-9.674968719482422,0.07661445438861847,2.212242364883423,-68.0084228515625,21.3775634765625,0.0762939453125
7.249999900000001,-9.706093788146973,0.1388636976480484,2.4444799423217773,-67.7490234375,26.9775390625,1.7547607421875
7.2699999,-9.68694019317627,-0.10055647045373917,2.094926595687866,-73.516845703125,25.9246826171875,7.32421875
7.289999900000001,-9.81143856048584,-0.09816227108240128,1.8746598958969116,-65.5975341796875,27.2369384765625,0.457763671875
7.3099999,-10.055646896362305,-0.181959331035614,1.3838485479354858,-68.8629150390625,32.2723388671875,6.7138671875
7.329999900000001,-10.091560363769531,-0.2585737705230713,0.6488286852836609,-72.357177734375,24.9786376953125,0.8544921875
7.3499999,-10.390835762023926,-0.2849099934101105,-0.1364694982767105,-31.43310546875,16.05224609375,-0.518798828125
7.369999900000001,-10.38604736328125,-0.569819986820221,-1.1109095811843872,8.7127685546875,-7.720947265625,0.6561279296875
7.3899999,-10.512939453125,-0.5961562395095825,-1.6831238269805908,34.1339111328125,-12.51220703125,-7.4462890625
7.409999900000001,-10.512939453125,-0.37828385829925537,-1.6328455209732056,28.50341796875,-19.561767578125,-2.0751953125
7.4299999,-10.36449909210205,-0.2801215946674347,-1.2449848651885986,-0.9613037109375,-23.74267578125,-10.5133056640625
7.449999900000001,-10.15141487121582,-0.19871874153614044,-0.6440402865409851,3.7689208984375,-21.820068359375,-17.547607421875
7.4699999,-9.895236015319824,-0.4812345504760742,-0.1412578970193863,44.219970703125,-30.1666259765625,-6.6680908203125
7.489999900000001,-9.794678688049316,-0.8571242094039917,0.19153612852096558,73.577880859375,-39.1998291015625,-2.9754638671875
7.5099999,-9.619902610778809,-0.9768342971801758,0.6512228846549988,81.0546875,-43.7469482421875,-5.462646484375
7.529999900000001,-9.605537414550781,-0.7158663272857666,1.2330138683319092,72.0367431640625,-34.5458984375,-8.30078125
7.5499999,-9.552865028381348,-0.26815059781074524,1.845929503440857,58.2427978515625,-24.749755859375,-12.054443359375
7.569999900000001,-9.588777542114258,0.2298433631658554,2.367865562438965,47.4700927734375,-20.599365234375,-20.111083984375
7.5899999000000005,-9.57201862335205,0.5650315880775452,2.8610711097717285,34.8663330078125,-16.9525146484375,-21.3623046875
7.609999900000001,-9.509769439697266,0.6919242739677429,3.399766445159912,3.082275390625,-3.8299560546875,-13.85498046875
7.6299999000000005,-9.41400146484375,0.5147533416748047,3.7684733867645264,-40.46630859375,17.364501953125,-9.46044921875
7.649999900000001,-9.378087997436523,0.0454898327589035,3.7277719974517822,-54.1229248046875,34.4085693359375,-8.636474609375
7.6699999000000005,-9.433155059814453,-0.6392518281936646,3.0621838569641113,-23.8189697265625,18.4173583984375,-0.5645751953125
7.6899999,-9.667786598205566,-1.4173674583435059,1.8195933103561401,21.3775634765625,0.732421875,-3.5858154296875
7.709999900000001,-9.919178009033203,-1.9800047874450684,0.5027823448181152,61.5386962890625,-11.871337890625,-8.087158203125
7.7299999,-10.139444351196289,-2.0925323963165283,-0.2106897532939911,79.9407958984375,-18.24951171875,0.2288818359375
7.749999900000001,-10.247182846069336,-1.7310078144073486,-0.20111294090747833,66.71142578125,-15.5792236328125,2.86865234375
7.7699999,-10.139444351196289,-1.0295066833496094,0.5674257874488831,34.4085693359375,-11.8865966796875,1.0528564453125
7.789999900000001,-9.854534149169922,-0.1364694982767105,1.680729627609253,-6.6680908203125,1.068115234375,-3.9520263671875
7.8099999,-9.612719535827637,0.5027823448181152,2.6886885166168213,-44.5098876953125,17.1051025390625,-5.37109375
7.829999900000001,-9.481039047241211,0.7996633648872375,3.224989652633667,-63.995361328125,23.2696533203125,-2.8076171875
7.8499999,-9.617507934570312,0.5674257874488831,3.141192674636841,-58.8226318359375,22.4761962890625,0.885009765625
7.869999900000001,-9.832986831665039,-0.021547814831137657,2.585737943649292,-38.604736328125,17.4407958984375,6.1187744140625
7.8899999,-10.077195167541504,-0.7422025203704834,1.7357962131500244,-20.7366943359375,14.58740234375,8.6212158203125
7.909999900000001,-10.223240852355957,-1.3982137441635132,0.8619126081466675,-5.4168701171875,5.1116943359375,12.63427734375
7.9299999,-10.450690269470215,-1.6974890232086182,0.2059013396501541,17.425537109375,-5.1116943359375,14.6026611328125
7.949999900000001,-10.72602367401123,-1.5705963373184204,-0.05985504388809204,36.0107421875,-14.3890380859375,5.79833984375
7.9699999,-11.312602996826172,-1.1516109704971313,0.0694318488240242,35.5377197265625,-14.7247314453125,-7.0648193359375
7.989999900000001,-11.834539413452148,-0.5099649429321289,0.5841852426528931,28.8238525390625,-22.15576171875,-25.08544921875
8.0099999,-12.210428237915039,0.0454898327589035,1.1444283723831177,22.4456787109375,-19.5770263671875,-39.642333984375
8.0299999,-12.09550666809082,0.3423708379268646,1.525106430053711,18.890380859375,-2.3040771484375,-41.4581298828125
8.049999900000001,-11.370063781738281,0.3663128614425659,1.6424223184585571,19.3023681640625,13.4735107421875,-33.5845947265625
8.069999900000001,-10.311826705932617,0.2059013396501541,1.5059528350830078,17.9595947265625,25.5279541015625,-20.111083984375
8.0899999,-9.093177795410156,-0.07422025501728058,1.2737152576446533,13.9617919921875,26.0467529296875,-7.110595703125
8.1099999,-8.015787124633789,-0.363918662071228,1.070208191871643,9.21630859375,16.021728515625,2.1209716796875
8.129999900000001,-7.2113356590271,-0.6224924325942993,0.9959878921508789,4.45556640625,10.6048583984375,5.7525634765625
8.149999900000001,-6.739677906036377,-0.8786720037460327,1.0462661981582642,-0.3509521484375,17.27294921875,4.364013671875
8.1699999,-6.6127848625183105,-1.1013327836990356,1.213860273361206,-3.1280517578125,21.514892578125,3.9215087890625
8.1899999,-6.809109687805176,-1.2952631711959839,1.434126853942871,-3.875732421875,17.63916015625,6.927490234375
8.2099999,-7.309497833251953,-1.4293384552001953,1.647210717201233,-4.57763671875,12.6953125,11.53564453125
8.229999900000001,-8.02536392211914,-1.4891934394836426,1.7956513166427612,-4.058837890625,5.828857421875,15.6402587890625
8.2499999,-8.832210540771484,-1.4389152526855469,1.9081788063049316,-2.3345947265625,-6.53076171875,17.3492431640625
8.2699999,-9.627084732055664,-1.2976573705673218,1.9632453918457031,-2.50244140625,-12.2222900390625,10.406494140625
8.2899999,-10.292673110961914,-1.1180921792984009,1.9536685943603516,-4.4708251953125,-10.467529296875,-2.2430419921875
8.309999900000001,-10.723628997802734,-0.9552865028381348,1.900996208190918,-5.9814453125,-13.641357421875,-5.3863525390625
8.3299999,-10.848128318786621,-0.8403648138046265,1.7860745191574097,-5.7373046875,-16.571044921875,4.2724609375
8.3499999,-11.202469825744629,-0.751779317855835,1.680729627609253,-5.37109375,-8.8043212890625,12.1002197265625
8.3699999,-11.259930610656738,-0.6871358752250671,1.403002142906189,-7.5225830078125,10.009765625,-7.4615478515625
8.389999900000001,-11.501745223999023,-0.6536170840263367,1.1563993692398071,-5.7220458984375,7.5836181640625,4.150390625
8.4099999,-11.283872604370117,-0.5578489899635315,0.871489405632019,-2.410888671875,3.60107421875,14.190673828125
8.4299999,-10.927136421203613,-0.5746083855628967,0.7158663272857666,1.739501953125,-0.518798828125,13.275146484375
8.4499999,-10.244789123535156,-0.6320692300796509,0.7565677165985107,5.218505859375,-3.143310546875,4.9896240234375
8.469999900000001,-9.804255485534668,-0.8259995579719543,0.9720458984375,11.3067626953125,-0.30517578125,5.523681640625
8.4899999,-9.528923034667969,-1.05105459690094,1.316810965538025,12.8631591796875,-0.06103515625,11.016845703125
8.5099999,-9.430760383605957,-1.192312479019165,1.699883222579956,7.50732421875,3.2501220703125,17.2271728515625
8.5299999,-9.464279174804688,-1.1324573755264282,2.0183119773864746,-1.64794921875,11.016845703125,19.47021484375
8.549999900000001,-9.50737476348877,-0.8451532125473022,2.252943754196167,-11.5203857421875,15.838623046875,19.0277099609375
8.569999900000001,-9.593565940856934,-0.3208230137825012,2.387019157409668,-23.9410400390625,20.0958251953125,18.61572265625
8.5899999,-9.66299819946289,0.2537853717803955,2.3056161403656006,-40.4815673828125,27.16064453125,15.7012939453125
8.6099999,-9.773131370544434,0.7733271718025208,2.0422539710998535,-48.4771728515625,30.517578125,8.514404296875
8.629999900000001,-9.895236015319824,1.1037269830703735,1.6352397203445435,-46.2188720703125,26.2451171875,1.3885498046875
8.649999900000001,-9.983820915222168,1.1683704853057861,1.070208191871643,-45.7000732421875,24.4140625,-1.7852783203125
8.6699999,-10.156203269958496,1.0007762908935547,0.4884171485900879,-39.703369140625,21.2249755859375,-4.8980712890625
8.6899999,-10.280701637268066,0.5195417404174805,-0.14604631066322327,-20.4010009765625,10.8489990234375,-9.4451904296875
8.709999900000001,-10.405200958251953,-0.06224924325942993,-0.7206547260284424,4.5318603515625,-0.5950927734375,-9.94873046875
8.729999900000001,-10.431536674499512,-0.7374141216278076,-1.2234370708465576,23.4527587890625,-10.6048583984375,-5.6610107421875
8.7499999,-10.347740173339844,-1.3886369466781616,-1.5466543436050415,39.4744873046875,-19.4244384765625,-4.364013671875
8.7699999,-10.292673110961914,-1.7046716213226318,-1.4293384552001953,52.947998046875,-24.627685546875,2.3345947265625
8.7899999,-10.11550235748291,-1.5682021379470825,-1.0223240852355957,51.422119140625,-30.82275390625,9.185791015625
8.809999900000001,-10.079588890075684,-1.1228805780410767,-0.2825157940387726,38.9862060546875,-34.5458984375,12.4664306640625
8.8299999,-9.967061996459961,-0.42616790533065796,0.6057330369949341,25.7110595703125,-33.7677001953125,2.1514892578125
8.8499999,-9.799467086791992,0.23942017555236816,1.4772224426269531,12.6800537109375,-24.3682861328125,-2.8076171875
8.8699999,-9.708487510681152,0.6847416758537292,2.123656988143921,-1.312255859375,-9.979248046875,-5.7830810546875
8.889999900000001,-9.651026725769043,0.8379706144332886,2.3918075561523438,-11.2457275390625,-8.0718994140625,-0.9613037109375
8.9099999,-9.782708168029785,0.6033388376235962,2.410961151123047,-5.8746337890625,-12.6800537109375,1.9989013671875
8.9299999,-9.787496566772461,0.1867477297782898,2.2242133617401123,2.166748046875,-17.7001953125,0.9002685546875
8.9499999,-9.816226959228516,-0.33518823981285095,1.9728221893310547,2.8228759765625,-11.8560791015625,-0.213623046875
8.969999900000001,-9.770736694335938,-0.6727706789970398,1.7477672100067139,5.5694580078125,-4.9285888671875,-1.3275146484375
8.9899999,-9.715670585632324,-0.706289529800415,1.6519991159439087,10.6353759765625,-5.6610107421875,4.0130615234375
9.0099999,-9.885659217834473,-0.4620809257030487,1.7597382068634033,4.9896240234375,-6.8817138671875,9.8114013671875
9.0299999,-9.775525093078613,-0.12449848651885986,2.0398597717285156,-12.725830078125,-4.2572021484375,4.6234130859375
9.049999900000001,-9.816226959228516,0.1388636976480484,2.300827741622925,-27.40478515625,7.8125,-3.4942626953125
9.069999900000001,-9.684545516967773,0.21547815203666687,2.293645143508911,-26.4739990234375,13.12255859375,-5.7525634765625
9.0899999,-9.68694019317627,0.11013327538967133,1.8315643072128296,-14.312744140625,6.317138671875,0.30517578125
9.1099999,-9.995792388916016,-0.08140286058187485,1.173158884048462,1.3275146484375,-3.9825439453125,5.2642822265625
9.129999900000001,-10.077195167541504,-0.29209262132644653,0.5267243981361389,18.0511474609375,-18.5699462890625,1.2359619140625
9.149999900000001,-10.163386344909668,-0.47165772318840027,0.23942017555236816,30.3955078125,-21.4080810546875,-5.2947998046875
9.1699999,-10.079588890075684,-0.47884035110473633,0.31124621629714966,31.982421875,-19.134521484375,-6.378173828125
9.1899999,-9.883264541625977,-0.42377370595932007,0.7398083209991455,23.651123046875,-16.3421630859375,-2.4261474609375
9.209999900000001,-9.871294021606445,-0.181959331035614,1.3311761617660522,11.9171142578125,-14.9993896484375,2.9296875
9.229999900000001,-9.72285270690918,0.031124621629714966,2.099714994430542,0.762939453125,-16.6473388671875,3.0059814453125
9.2499999,-9.655815124511719,0.181959331035614,2.7269957065582275,-12.7410888671875,-5.1727294921875,-3.570556640625
9.2699999,-9.502586364746094,0.06464344263076782,3.1244332790374756,-21.1944580078125,7.14111328125,-3.509521484375
9.2899999,-9.476250648498535,-0.090979665517807,3.1699230670928955,-19.7296142578125,11.1541748046875,-0.091552734375
9.309999900000001,-9.591172218322754,-0.2753331959247589,2.7748796939849854,-13.1378173828125,7.4005126953125,7.7972412109375
9.3299999,-9.710882186889648,-0.4141969084739685,2.183511972427368,-3.7689208984375,-2.532958984375,8.6212158203125
9.3499999,-9.916783332824707,-0.4189853072166443,1.6041151285171509,7.3089599609375,-5.4931640625,-0.9613037109375
9.3699999,-9.96945571899414,-0.37828385829925537,1.2330138683319092,16.387939453125,-4.9896240234375,-4.486083984375
9.389999900000001,-9.945513725280762,-0.20111294090747833,1.2665326595306396,13.214111328125,-1.6021728515625,-3.021240234375
9.4099999,-9.880870819091797,0.1149216815829277,1.4772224426269531,-1.983642578125,-0.1983642578125,-0.030517578125
9.4299999,-9.773131370544434,0.33758243918418884,1.8507179021835327,-14.5111083984375,-0.030517578125,-0.8392333984375
9.4499999,-9.770736694335938,0.395043283700943,2.1715409755706787,-16.6473388671875,1.739501953125,-10.0555419921875
9.469999900000001,-9.674968719482422,0.15083470940589905,2.315192937850952,-10.92529296875,5.8135986328125,-7.8277587890625
9.4899999,-9.761159896850586,-0.2082955539226532,2.274491548538208,-5.5084228515625,10.2691650390625,-4.2724609375
9.5099999,-9.72285270690918,-0.47644615173339844,2.073378562927246,-1.1138916015625,6.4697265625,0.79345703125
9.5299999,-9.81143856048584,-0.629675030708313,1.7717092037200928,4.8980712890625,-0.67138671875,3.509521484375
9.549999900000001,-9.880870819091797,-0.5793967843055725,1.4748282432556152,9.5672607421875,-5.79833984375,-2.9754638671875
9.569999900000001,-9.880870819091797,-0.5554547905921936,1.3287819623947144,12.0849609375,-5.31005859375,-5.55419921875
9.5899999,-9.93354320526123,-0.42616790533065796,1.3862427473068237,8.819580078125,0.1373291015625,-4.974365234375
9.6099999,-9.832986831665039,-0.2322375625371933,1.5442601442337036,-0.213623046875,-0.640869140625,-0.6256103515625
9.629999900000001,-9.852140426635742,-0.1628057211637497,1.7884687185287476,-6.5155029296875,-2.471923828125,3.570556640625
9.649999900000001,-9.804255485534668,-0.08619125932455063,1.987187385559082,-6.1492919921875,-4.852294921875,-1.3885498046875
9.6699999,-9.732429504394531,-0.26096799969673157,2.0853497982025146,-3.570556640625,0.213623046875,-3.4942626953125
9.6899999,-9.75397777557373,-0.38546648621559143,2.1164743900299072,-2.6092529296875,5.4779052734375,-1.4495849609375
9.709999900000001,-9.682151794433594,-0.4429273009300232,2.0805611610412598,-4.638671875,3.082275390625,4.5623779296875
9.729999900000001,-9.806650161743164,-0.42856210470199585,2.008735179901123,-8.97216796875,2.197265625,9.4451904296875
9.7499999,-9.794678688049316,-0.3878606855869293,1.8914192914962769,-9.2620849609375,-2.8533935546875,4.913330078125
9.7699999,-9.828198432922363,-0.3878606855869293,1.7477672100067139,-3.1585693359375,-2.7923583984375,-0.6256103515625
9.7899999,-9.801861763000488,-0.3232172429561615,1.6352397203445435,3.662109375,-1.15966796875,-0.9765625
9.809999900000001,-9.744400978088379,-0.24660277366638184,1.5849615335464478,1.9073486328125,-1.739501953125,2.8839111328125
9.8299999,-9.928754806518555,-0.07422025501728058,1.6065093278884888,-4.302978515625,-1.5716552734375,4.7760009765625
9.8499999,-9.840168952941895,0.004788403399288654,1.7525556087493896,-3.3721923828125,-8.514404296875,0.640869140625
9.8699999,-9.873687744140625,-0.023942016065120697,1.920149803161621,-0.701904296875,-4.5623779296875,-3.7689208984375
9.889999900000001,-9.763554573059082,-0.07661445438861847,2.0661959648132324,-1.2969970703125,1.46484375,-3.814697265625
9.9099999,-9.622296333312988,-0.16759411990642548,2.205059766769409,-5.3253173828125,4.638671875,-0.7171630859375
9.9299999,-9.768342971801758,-0.19632454216480255,2.2816741466522217,-9.7503662109375,5.279541015625,3.326416015625
9.9499999,-9.6989107131958,-0.23942017555236816,2.363077163696289,-9.0789794921875,-0.0152587890625,3.7994384765625
9.969999900000001,-9.742006301879883,-0.2346317619085312,2.3343467712402344,-7.537841796875,10.1776123046875,-3.204345703125
9.9899999,-9.679757118225098,-0.23702596127986908,2.2625205516815186,-7.5531005859375,12.176513671875,-1.617431640625
10.0099999,-9.785101890563965,-0.1149216815829277,2.1547815799713135,-12.8936767578125,12.6800537109375,2.0751953125
10.0299999,-9.742006301879883,-0.05985504388809204,1.9991583824157715,-16.7388916015625,7.0037841796875,1.861572265625
10.049999900000001,-9.832986831665039,-0.002394201699644327,1.8363527059555054,-15.7318115234375,9.27734375,-7.2784423828125
10.069999900000001,-9.813833236694336,-0.023942016065120697,1.6639702320098877,-9.6893310546875,9.5367431640625,-8.3770751953125
10.0899999,-9.849745750427246,-0.1604115068912506,1.4652514457702637,-5.7830810546875,9.8724365234375,-5.8441162109375
10.1099999,-9.928754806518555,-0.3495534360408783,1.1994950771331787,-2.4261474609375,5.645751953125,-1.89208984375
10.129999900000001,-9.926360130310059,-0.5746083855628967,1.0414776802062988,8.209228515625,-5.5389404296875,0.48828125
10.149999900000001,-9.99339771270752,-0.6943184733390808,0.8834604024887085,15.2130126953125,-8.23974609375,-3.509521484375
10.1699999,-9.93593692779541,-0.7350199222564697,0.9552865028381348,16.54052734375,-8.1787109375,-4.39453125
10.1899999,-9.952696800231934,-0.706289529800415,1.1516109704971313,13.24462890625,-4.5623779296875,-4.5166015625
10.209999900000001,-9.835380554199219,-0.4692635238170624,1.577778935432434,3.5552978515625,-3.5552978515625,0.42724609375
10.229999900000001,-9.797073364257812,-0.3423708379268646,1.9369091987609863,-7.476806640625,-2.593994140625,3.4027099609375
10.2499999,-9.713275909423828,-0.1867477297782898,2.229001760482788,-11.566162109375,-1.6632080078125,-1.77001953125
10.2699999,-9.672574996948242,-0.21308395266532898,2.403778553009033,-8.514404296875,2.0294189453125,-4.119873046875
10.2899999,-9.708487510681152,-0.2849099934101105,2.389413356781006,-5.7830810546875,7.232666015625,-3.4942626953125
10.309999900000001,-9.670180320739746,-0.304063618183136,2.2864625453948975,-10.345458984375,7.9498291015625,2.1514892578125
10.3299999,-9.799467086791992,-0.395043283700943,2.1499931812286377,-15.2587890625,7.232666015625,4.7607421875
10.3499999,-9.804255485534668,-0.4165911078453064,1.8483237028121948,-10.467529296875,1.2664794921875,-0.457763671875
10.3699999,-9.849745750427246,-0.5530605912208557,1.5705963373184204,2.227783203125,0.3204345703125,-3.1890869140625
10.389999900000001,-9.909601211547852,-0.5746083855628967,1.2425906658172607,11.5966796875,0.48828125,-3.72314453125
10.4099999,-9.86889934539795,-0.6009446382522583,1.036689281463623,13.3514404296875,-2.44140625,-0.8697509765625
10.4299999,-10.019734382629395,-0.4908113479614258,1.0462661981582642,12.420654296875,-6.0577392578125,1.617431640625
10.4499999,-9.921571731567383,-0.33758243918418884,1.2689268589019775,10.7269287109375,-11.6119384765625,-0.9002685546875
10.469999900000001,-9.914389610290527,-0.24660277366638184,1.6280571222305298,3.2196044921875,-3.5552978515625,-4.9285888671875
10.4899999,-9.770736694335938,-0.21547815203666687,1.9943699836730957,-4.302978515625,3.509521484375,-6.16455078125
10.5099999,-9.624691009521484,-0.2537853717803955,2.300827741622925,-9.857177734375,7.293701171875,-1.7547607421875
10.5299999,-9.68933391571045,-0.31364041566848755,2.3702597618103027,-16.78466796875,7.6904296875,3.5400390625
10.549999900000001,-9.658209800720215,-0.4812345504760742,2.322375535964966,-18.06640625,2.6092529296875,5.523681640625
10.569999900000001,-9.794678688049316,-0.5961562395095825,2.049436569213867,-10.6353759765625,4.8675537109375,-0.1220703125
10.5899999,-9.80904483795166,-0.6943184733390808,1.778891921043396,1.8463134765625,2.1820068359375,-0.6103515625
10.6099999,-9.883264541625977,-0.727837324142456,1.534683346748352,3.997802734375,2.8228759765625,2.0599365234375
10.629999900000001,-9.940725326538086,-0.646434485912323,1.3766659498214722,-3.1280517578125,1.739501953125,4.8980712890625
10.649999900000001,-9.916783332824707,-0.5339069962501526,1.3527239561080933,-5.1422119140625,-4.4708251953125,5.37109375
10.6699999,-9.95748519897461,-0.35673606395721436,1.3239935636520386,-0.54931640625,-3.8909912109375,-1.9378662109375
10.6899999,-9.830592155456543,-0.2849099934101105,1.4101848602294922,6.0577392578125,-4.8675537109375,-3.2196044921875
10.709999900000001,-9.8784761428833,-0.19871874153614044,1.4867992401123047,3.9520263671875,0.030517578125,-2.74658203125
10.729999900000001,-9.780313491821289,-0.16519992053508759,1.6903064250946045,-2.960205078125,0.640869140625,-0.6561279296875
10.7499999,-9.80904483795166,-0.18914192914962769,1.8579005002975464,-5.37109375,-3.5247802734375,1.8157958984375
10.7699999,-9.794678688049316,-0.28969839215278625,2.030282974243164,-4.241943359375,-1.6937255859375,-1.1444091796875
10.7899999,-9.732429504394531,-0.37828385829925537,2.145204782485962,-3.143310546875,3.47900390625,-3.4027099609375
10.809999900000001,-9.739612579345703,-0.44532153010368347,2.073378562927246,-4.8980712890625,8.5296630859375,-4.3487548828125
10.8299999,-9.737217903137207,-0.42856210470199585,1.9967641830444336,-4.974365234375,6.7138671875,-0.6103515625
10.8499999,-9.813833236694336,-0.4596867263317108,1.9393033981323242,-1.89208984375,0.5340576171875,1.922607421875
10.8699999,-9.785101890563965,-0.3687070608139038,1.867477297782898,-3.72314453125,0.1220703125,-1.251220703125
10.889999900000001,-9.818621635437012,-0.4141969084739685,1.8794482946395874,-6.561279296875,7.6751708984375,-5.6915283203125
10.9099999,-9.86889934539795,-0.37828385829925537,1.7693150043487549,-8.23974609375,9.735107421875,-6.256103515625
10.9299999,-9.825803756713867,-0.5291185975074768,1.5538369417190552,-5.9661865234375,7.3394775390625,0.274658203125
10.9499999,-9.995792388916016,-0.5626373887062073,1.2473790645599365,2.6702880859375,-2.3040771484375,2.410888671875
10.969999900000001,-9.959878921508789,-0.7661445140838623,0.9768342971801758,13.092041015625,-11.688232421875,1.03759765625
10.9899999,-9.998186111450195,-0.811634361743927,0.8667010068893433,21.5606689453125,-10.07080078125,-2.044677734375
11.0099999,-9.852140426635742,-0.7924807667732239,0.9768342971801758,23.8494873046875,-10.009765625,-2.3956298828125
11.0299999,-9.794678688049316,-0.6344634294509888,1.2497732639312744,12.6190185546875,-6.103515625,1.983642578125
11.049999900000001,-9.830592155456543,-0.37828385829925537,1.6496049165725708,-2.5177001953125,-5.5389404296875,2.25830078125
11.069999900000001,-9.749189376831055,-0.26096799969673157,2.073378562927246,-9.246826171875,-9.3536376953125,1.8768310546875
11.0899999,-9.794678688049316,-0.17956513166427612,2.3080103397369385,-8.6669921875,-2.1820068359375,-2.471923828125
11.1099999,-9.737217903137207,-0.26096799969673157,2.3774423599243164,-3.143310546875,0.457763671875,-2.62451171875
11.129999900000001,-9.730035781860352,-0.4668693244457245,2.31758713722229,-0.0457763671875,3.23486328125,1.1138916015625
11.149999900000001,-9.727641105651855,-0.545877993106842,2.209848165512085,-0.9613037109375,0.9307861328125,5.157470703125
11.1699999,-9.72285270690918,-0.5650315880775452,2.1045033931732178,-4.7760009765625,-3.3111572265625,6.4849853515625
11.1899999,-9.770736694335938,-0.5722141861915588,2.0207061767578125,-5.859375,2.25830078125,0.7171630859375
11.209999900000001,-9.68933391571045,-0.47165772318840027,1.9991583824157715,-1.52587890625,4.6234130859375,-2.0751953125
11.229999900000001,-9.782708168029785,-0.30885201692581177,1.9560627937316895,-2.0904541015625,8.5296630859375,-1.0223388671875
11.2499999,-9.749189376831055,-0.24181437492370605,2.0039467811584473,-9.8724365234375,7.9193115234375,2.1209716796875
11.2699999,-9.806650161743164,-0.2322375625371933,1.9704279899597168,-12.0086669921875,4.5928955078125,0.6866455078125
11.2899999,-9.835380554199219,-0.24660277366638184,1.8579005002975464,-3.570556640625,1.89208984375,-3.96728515625
11.309999900000001,-9.86889934539795,-0.4118026793003082,1.6424223184585571,6.7596435546875,2.166748046875,-4.638671875
11.3299999,-9.885659217834473,-0.45489832758903503,1.4676456451416016,9.1400146484375,2.197265625,-6.1187744140625
11.3499999,-9.892841339111328,-0.5123591423034668,1.400607943534851,6.0272216796875,3.3111572265625,-1.800537109375
11.3699999,-9.847352027893066,-0.5027823448181152,1.4508862495422363,2.4566650390625,0.4119873046875,-0.5950927734375
11.389999900000001,-9.840168952941895,-0.5123591423034668,1.6160861253738403,2.86865234375,-4.8370361328125,2.3040771484375
11.4099999,-9.830592155456543,-0.6153098344802856,1.7381904125213623,0.67138671875,-1.312255859375,-2.4566650390625
11.4299999,-9.835380554199219,-0.6488286852836609,1.8986018896102905,0.7171630859375,2.8533935546875,-1.4801025390625
11.4499999,-9.813833236694336,-0.6224924325942993,1.9393033981323242,1.46484375,5.6304931640625,-2.9449462890625
11.469999900000001,-9.780313491821289,-0.6416460275650024,2.0231003761291504,-1.6632080078125,7.0343017578125,3.90625
11.4899999,-9.775525093078613,-0.44771572947502136,1.9393033981323242,-8.3465576171875,5.3558349609375,3.6773681640625
11.5099999,-9.75637149810791,-0.47884035110473633,1.8411411046981812,-7.9193115234375,1.3885498046875,5.523681640625
11.5299999,-9.806650161743164,-0.42377370595932007,1.6304513216018677,-1.434326171875,-0.518798828125,-1.3275146484375
11.549999900000001,-9.86650562286377,-0.40940847992897034,1.4221558570861816,5.8135986328125,-0.885009765625,-1.9073486328125
11.569999900000001,-9.84256362915039,-0.3208230137825012,1.2521674633026123,8.6822509765625,-1.3427734375,-5.9967041015625
11.5899999,-9.897629737854004,-0.2298433631658554,1.2234370708465576,9.27734375,0.3509521484375,-4.08935546875
11.6099999,-9.837775230407715,-0.12689268589019775,1.338358759880066,6.0882568359375,-3.570556640625,-4.638671875
11.629999900000001,-9.86889934539795,-0.16759411990642548,1.5203180313110352,4.21142578125,-4.82177734375,-2.532958984375
11.649999900000001,-9.825803756713867,-0.272938996553421,1.7717092037200928,5.279541015625,-7.0648193359375,-5.157470703125
11.6699999,-9.835380554199219,-0.5363011956214905,1.944091796875,5.3863525390625,-1.0223388671875,-5.7830810546875
11.6899999,-9.727641105651855,-0.7182605266571045,2.0685901641845703,6.8206787109375,0.640869140625,-3.2958984375
11.709999900000001,-9.684545516967773,-0.8643068075180054,2.073378562927246,6.5765380859375,2.7923583984375,-3.1585693359375
11.729999900000001,-9.696516990661621,-0.8212111592292786,2.118868589401245,0.4425048828125,6.072998046875,1.4190673828125
11.7499999,-9.718064308166504,-0.6847416758537292,2.0374655723571777,-11.627197265625,5.8441162109375,1.8768310546875
11.7699999,-9.847352027893066,-0.5195417404174805,2.0374655723571777,-15.56396484375,4.608154296875,3.1280517578125
11.7899999,-9.840168952941895,-0.43335050344467163,1.889025092124939,-11.322021484375,-0.3662109375,1.40380859375
11.809999900000001,-9.888052940368652,-0.5027823448181152,1.6711528301239014,-2.9296875,1.922607421875,-1.46484375
11.8299999,-9.883264541625977,-0.6153098344802856,1.4245500564575195,7.75146484375,-0.335693359375,-1.3580322265625
11.8499999,-9.825803756713867,-0.6751648783683777,1.2976573705673218,11.566162109375,-2.1209716796875,-2.410888671875
11.8699999,-9.888052940368652,-0.6727706789970398,1.3096283674240112,9.0789794921875,2.1209716796875,0.762939453125
11.889999900000001,-9.806650161743164,-0.5219359993934631,1.4748282432556152,0.7781982421875,0.244140625,2.655029296875
11.9099999,-9.81143856048584,-0.3734954595565796,1.7166426181793213,-7.50732421875,1.434326171875,2.3345947265625
11.9299999,-9.770736694335938,-0.31842881441116333,1.8962076902389526,-7.965087890625,-1.190185546875,2.3956298828125
11.9499999,-9.794678688049316,-0.3208230137825012,1.9153614044189453,-5.645751953125,-1.129150390625,-1.2664794921875
11.969999900000001,-9.806650161743164,-0.47644615173339844,1.8148049116134644,4.1351318359375,0.3509521484375,-2.716064453125
11.9899999,-9.835380554199219,-0.5793967843055725,1.6927006244659424,12.176513671875,-2.9296875,-2.7008056640625
12.0099999,-9.792284965515137,-0.6560112833976746,1.6160861253738403,11.2762451171875,0.8392333984375,-2.0904541015625
12.0299999,-9.81143856048584,-0.5722141861915588,1.7046716213226318,3.6163330078125,2.9754638671875,2.105712890625
12.049999900000001,-9.749189376831055,-0.5003881454467773,1.8531121015548706,-8.1634521484375,2.227783203125,1.15966796875
12.069999900000001,-9.840168952941895,-0.31124621629714966,1.9847931861877441,-12.1612548828125,3.5858154296875,2.0751953125
12.0899999,-9.765948295593262,-0.33758243918418884,2.027888774871826,-10.6201171875,-0.030517578125,1.1749267578125
12.1099999,-9.84495735168457,-0.3734954595565796,1.9033904075622559,-5.9356689453125,2.5482177734375,-1.77001953125
12.129999900000001,-9.818621635437012,-0.5602431893348694,1.7142484188079834,3.41796875,1.922607421875,-2.3651123046875
12.149999900000001,-9.804255485534668,-0.667982280254364,1.5275006294250488,8.148193359375,-0.6866455078125,-2.0599365234375
12.1699999,-9.84256362915039,-0.6799532771110535,1.4053963422775269,7.7362060546875,3.3721923828125,-0.6103515625
12.1899999,-9.787496566772461,-0.6440402865409851,1.479616641998291,1.495361328125,1.4190673828125,2.4261474609375
12.209999900000001,-9.804255485534668,-0.5339069962501526,1.6543933153152466,-6.8511962890625,2.3193359375,2.25830078125
12.229999900000001,-9.852140426635742,-0.44532153010368347,1.8794482946395874,-8.4075927734375,3.0059814453125,3.5247802734375
12.2499999,-9.806650161743164,-0.42616790533065796,1.9967641830444336,-8.7432861328125,0.6256103515625,0.7781982421875
12.2699999,-9.859322547912598,-0.4405331015586853,2.013523578643799,-6.4544677734375,5.31005859375,-0.91552734375
12.289999900000002,-9.806650161743164,-0.5027823448181152,1.9823989868164062,-3.753662109375,6.28662109375,0.0457763671875
12.309999900000001,-9.720458984375,-0.5530605912208557,1.9321208000183105,-6.3934326171875,9.3231201171875,0.7171630859375
12.3299999,-9.75637149810791,-0.5817909836769104,1.8986018896102905,-10.8795166015625,14.4500732421875,3.47900390625
12.3499999,-9.708487510681152,-0.5530605912208557,1.8411411046981812,-16.0980224609375,11.6424560546875,4.8065185546875
12.3699999,-9.763554573059082,-0.5195417404174805,1.7405846118927002,-19.012451171875,12.969970703125,5.7525634765625
12.389999900000001,-9.835380554199219,-0.4908113479614258,1.601720929145813,-15.93017578125,7.3394775390625,6.8206787109375
12.4099999,-9.916783332824707,-0.47405192255973816,1.3934253454208374,-11.4898681640625,3.8909912109375,2.5787353515625
12.4299999,-9.986215591430664,-0.5003881454467773,1.213860273361206,-4.6844482421875,5.7525634765625,-0.0457763671875
12.4499999,-10.007762908935547,-0.48602294921875,1.0965443849563599,0.274658203125,2.74658203125,0.5645751953125
12.469999900000001,-9.981427192687988,-0.43095630407333374,1.0271124839782715,-3.4332275390625,4.3182373046875,-0.244140625
12.4899999,-9.93354320526123,-0.43335050344467163,1.1085153818130493,-8.9263916015625,5.9814453125,2.3040771484375
12.5099999,-9.861717224121094,-0.3902548849582672,1.2018892765045166,-12.8936767578125,3.204345703125,3.631591796875
12.5299999,-9.864110946655273,-0.5051765441894531,1.2473790645599365,-12.8173828125,3.7384033203125,6.744384765625
12.549999900000001,-9.849745750427246,-0.6536170840263367,1.2090718746185303,-2.62451171875,-3.9215087890625,8.2550048828125
12.569999900000001,-9.928754806518555,-0.7924807667732239,0.9792284965515137,11.3983154296875,-8.3770751953125,4.547119140625
12.5899999,-10.007762908935547,-0.8403648138046265,0.730231523513794,28.778076171875,-11.5203857421875,2.349853515625
12.6099999,-9.998186111450195,-0.7086837291717529,0.6536170840263367,37.872314453125,-18.2952880859375,0.48828125
12.629999900000001,-9.979032516479492,-0.3758896589279175,0.9050082564353943,25.93994140625,-10.5743408203125,-0.274658203125
12.649999900000001,-9.880870819091797,0.028730420395731926,1.5322890281677246,0.4119873046875,-1.312255859375,2.3345947265625
12.6699999,-9.718064308166504,0.363918662071228,2.3080103397369385,-28.564453125,3.0364990234375,1.0223388671875
12.6899999,-9.66539192199707,0.47884035110473633,2.829946517944336,-44.036865234375,14.1448974609375,2.777099609375
12.709999900000001,-9.579200744628906,0.2849099934101105,2.9233202934265137,-38.3758544921875,12.0391845703125,3.0975341796875
12.729999900000001,-9.63187313079834,-0.19393034279346466,2.494758129119873,-19.1497802734375,11.2152099609375,-0.67138671875
12.7499999,-9.785101890563965,-0.6129156351089478,1.8483237028121948,5.706787109375,9.1400146484375,0.4730224609375
12.7699999,-9.864110946655273,-0.871489405632019,1.1994950771331787,16.8609619140625,3.6773681640625,0.396728515625
12.789999900000002,-10.038887977600098,-0.8259995579719543,0.8307880163192749,12.14599609375,6.5460205078125,0.9918212890625
12.809999900000001,-9.981427192687988,-0.5530605912208557,0.7637503147125244,-0.2593994140625,2.7618408203125,1.77001953125
12.8299999,-9.96945571899414,-0.21547815203666687,0.9600749015808105,-13.6260986328125,7.1258544921875,1.46484375
12.8499999,-9.919178009033203,-0.016759412363171577,1.192312479019165,-16.2811279296875,2.99072265625,2.3956298828125
12.8699999,-9.892841339111328,-0.021547814831137657,1.3551181554794312,-10.8795166015625,2.0751953125,-2.9449462890625
12.889999900000001,-9.959878921508789,-0.20350714027881622,1.3742717504501343,1.1749267578125,4.1351318359375,-2.166748046875
12.9099999,-9.9000244140625,-0.36152446269989014,1.3311761617660522,9.185791015625,0.5645751953125,-2.044677734375
12.9299999,-9.952696800231934,-0.507570743560791,1.2425906658172607,8.0718994140625,6.500244140625,0
12.9499999,-9.873687744140625,-0.4836287498474121,1.2449848651885986,0.4425048828125,2.74658203125,2.44140625
12.969999900000001,-9.892841339111328,-0.3758896589279175,1.256955862045288,-7.598876953125,4.4403076171875,2.0599365234375
12.9899999,-9.897629737854004,-0.35434186458587646,1.280897855758667,-7.0343017578125,0.1678466796875,3.7078857421875
13.0099999,-9.947908401489258,-0.3256114423274994,1.2473790645599365,-2.5482177734375,-1.983642578125,-0.946044921875
13.0299999,-9.976638793945312,-0.42616790533065796,1.137245774269104,6.9732666015625,-0.4119873046875,-1.495361328125
13.049999900000001,-9.904812812805176,-0.4692635238170624,1.0845733880996704,15.5181884765625,-4.669189453125,-2.9296875
13.069999900000001,-9.921571731567383,-0.38307225704193115,1.1635819673538208,11.1846923828125,3.692626953125,-0.6103515625
13.0899999,-9.761159896850586,-0.28969839215278625,1.357512354850769,-3.509521484375,4.5013427734375,1.3427734375
13.1099999,-9.828198432922363,-0.021547814831137657,1.6160861253738403,-15.106201171875,7.6446533203125,-0.1678466796875
13.129999900000001,-9.818621635437012,-0.014365210197865963,1.7310078144073486,-15.8538818359375,5.157470703125,1.1138916015625
13.149999900000001,-9.892841339111328,-0.05746084079146385,1.6400281190872192,-8.7432861328125,2.5177001953125,-3.0975341796875
13.1699999,-9.950302124023438,-0.5267243981361389,0.9193734526634216,17.15087890625,-2.9144287109375,-5.3253173828125
13.1899999,-10.022128105163574,-0.6440402865409851,0.6440402865409851,24.3072509765625,0.1373291015625,-3.60107421875
13.209999900000001,-9.947908401489258,-0.6799532771110535,0.5674257874488831,22.552490234375,-6.4697265625,1.617431640625
13.229999900000001,-9.945513725280762,-0.5051765441894531,0.828393816947937,9.2315673828125,-5.5084228515625,1.739501953125
13.2499999,-9.888052940368652,-0.36152446269989014,1.2737152576446533,-6.6375732421875,-2.7008056640625,2.5482177734375
13.2699999,-9.849745750427246,-0.16759411990642548,1.6615760326385498,-17.4102783203125,0.54931640625,-1.434326171875
13.289999900000002,-9.840168952941895,-0.1867477297782898,1.86508309841156,-14.862060546875,5.8441162109375,-1.190185546875
13.309999900000001,-9.773131370544434,-0.35913026332855225,1.7381904125213623,-3.9520263671875,2.0599365234375,-1.77001953125
13.3299999,-9.876082420349121,-0.5003881454467773,1.5131354331970215,4.6539306640625,6.2103271484375,1.6937255859375
13.3499999,-9.835380554199219,-0.6751648783683777,1.1540051698684692,5.4473876953125,0.1678466796875,6.3323974609375
13.3699999,-9.931148529052734,-0.6799532771110535,0.9145850539207458,4.4097900390625,-3.936767578125,6.40869140625
13.389999900000001,-9.998186111450195,-0.5530605912208557,0.8259995579719543,5.645751953125,-9.5062255859375,7.4310302734375
13.4099999,-10.022128105163574,-0.40940847992897034,0.7350199222564697,5.5694580078125,-11.9781494140625,2.7008056640625
13.4299999,-10.093954086303711,-0.19393034279346466,0.8307880163192749,10.0555419921875,-9.5672607421875,-0.9002685546875
13.4499999,-9.962273597717285,-0.05985504388809204,1.0319008827209473,14.190673828125,-12.4359130859375,-5.0201416015625
13.469999900000001,-9.880870819091797,0.11252748221158981,1.3623007535934448,6.683349609375,-2.7008056640625,-2.6702880859375
13.4899999,-9.765948295593262,0.22026655077934265,1.778891921043396,-8.1329345703125,2.838134765625,-0.3509521484375
13.5099999,-9.696516990661621,0.15801730751991272,2.0901381969451904,-18.3868408203125,5.06591796875,-1.0833740234375
13.5299999,-9.751583099365234,0.019153613597154617,2.2026655673980713,-13.275146484375,3.11279296875,1.8463134765625
13.549999900000001,-9.825803756713867,-0.21308395266532898,1.9752163887023926,-2.227783203125,-0.79345703125,-1.77001953125
13.569999900000001,-9.926360130310059,-0.5626373887062073,1.5849615335464478,9.735107421875,0.9307861328125,-1.9683837890625
13.5899999,-9.9000244140625,-0.6823474764823914,1.1994950771331787,20.111083984375,-4.058837890625,-3.326416015625
13.6099999,-9.93593692779541,-0.6943184733390808,0.9528923034667969,22.1405029296875,0.0762939453125,-2.3040771484375
13.629999900000001,-9.847352027893066,-0.5027823448181152,1.0845733880996704,11.4288330078125,-0.48828125,2.5177001953125
13.649999900000001,-9.825803756713867,-0.2346317619085312,1.3048399686813354,-8.453369140625,2.4566650390625,-0.4119873046875
13.6699999,-9.856928825378418,0.043095629662275314,1.6615760326385498,-16.1895751953125,3.3111572265625,0.54931640625
13.6899999,-9.840168952941895,0.05985504388809204,1.7860745191574097,-16.5252685546875,0.7476806640625,-2.349853515625
13.709999900000001,-9.907206535339355,-0.043095629662275314,1.699883222579956,-8.819580078125,4.8065185546875,-2.8076171875
13.729999900000001,-9.885659217834473,-0.2944868206977844,1.4389152526855469,3.6773681640625,-0.2288818359375,-4.1351318359375
13.7499999,-9.895236015319824,-0.5841852426528931,1.1540051698684692,11.0626220703125,0.8392333984375,-2.44140625
13.7699999,-9.9000244140625,-0.646434485912323,1.0749965906143188,10.6658935546875,-1.4495849609375,5.035400390625
13.789999900000002,-9.888052940368652,-0.6129156351089478,1.070208191871643,-0.1983642578125,-2.3193359375,4.058837890625
13.809999900000001,-9.976638793945312,-0.43095630407333374,1.2952631711959839,-4.57763671875,-0.9918212890625,4.0435791015625
13.8299999,-9.926360130310059,-0.20350714027881622,1.5131354331970215,-4.5166015625,-5.126953125,1.220703125
13.8499999,-9.940725326538086,-0.1388636976480484,1.601720929145813,-4.180908203125,1.251220703125,0.3814697265625
13.8699999,-9.799467086791992,-0.1388636976480484,1.6424223184585571,-0.9765625,1.7852783203125,-2.685546875
13.889999900000001,-9.797073364257812,-0.21547815203666687,1.5442601442337036,2.0751953125,5.2032470703125,-3.814697265625
13.9099999,-9.797073364257812,-0.2537853717803955,1.4724340438842773,4.7149658203125,2.838134765625,2.4871826171875
13.9299999,-9.825803756713867,-0.23702596127986908,1.479616641998291,-2.2735595703125,-0.5645751953125,2.7923583984375
13.9499999,-9.959878921508789,-0.20111294090747833,1.5825673341751099,-8.7890625,3.11279296875,3.143310546875
13.969999900000001,-9.86650562286377,-0.1364694982767105,1.6376339197158813,-9.6588134765625,1.007080078125,-0.030517578125
13.9899999,-9.945513725280762,-0.21308395266532898,1.5921441316604614,-5.2032470703125,5.035400390625,-1.220703125
14.0099999,-9.86650562286377,-0.2777273952960968,1.482010841369629,2.7618408203125,2.105712890625,-2.471923828125
14.0299999,-9.86889934539795,-0.3016694188117981,1.2282254695892334,6.561279296875,4.669189453125,-5.7830810546875
14.049999900000001,-9.897629737854004,-0.3064578175544739,1.1061211824417114,8.209228515625,3.3721923828125,-1.2664794921875
14.069999900000001,-9.883264541625977,-0.2106897532939911,1.0462661981582642,4.21142578125,-2.01416015625,-2.197265625
14.0899999,-9.976638793945312,-0.12689268589019775,1.0630255937576294,3.631591796875,-2.838134765625,-1.129150390625
14.1099999,-9.947908401489258,-0.14844051003456116,1.1851298809051514,5.615234375,-7.9345703125,-4.364013671875
14.129999900000001,-9.995792388916016,-0.2992752194404602,1.235408067703247,8.6669921875,-2.99072265625,-4.8675537109375
14.149999900000001,-9.895236015319824,-0.43095630407333374,1.3670891523361206,12.8326416015625,-5.3253173828125,-3.9825439453125
14.1699999,-9.804255485534668,-0.5315127968788147,1.5849615335464478,7.232666015625,0.3662109375,-3.7994384765625
14.1899999,-9.765948295593262,-0.44532153010368347,1.965639591217041,-10.7269287109375,9.70458984375,4.1046142578125
14.209999900000001,-9.655815124511719,-0.24899697303771973,2.2409727573394775,-33.14208984375,13.214111328125,3.692626953125
14.229999900000001,-9.787496566772461,-0.21308395266532898,2.274491548538208,-35.736083984375,15.228271484375,6.65283203125
14.2499999,-9.770736694335938,-0.2825157940387726,1.8722656965255737,-19.866943359375,4.302978515625,5.4168701171875
14.2699999,-9.964667320251465,-0.5602431893348694,1.1252747774124146,3.2958984375,1.0223388671875,2.3956298828125
14.289999900000002,-10.043676376342773,-0.7924807667732239,0.4692635238170624,23.5443115234375,-7.8582763671875,1.9073486328125
14.309999900000001,-10.046070098876953,-0.8212111592292786,0.06464344263076782,28.2745361328125,-9.521484375,-0.9613037109375
14.3299999,-10.132261276245117,-0.545877993106842,0.1604115068912506,20.8892822265625,-8.209228515625,3.875732421875
14.3499999,-9.959878921508789,-0.17956513166427612,0.6799532771110535,3.9825439453125,-10.1470947265625,3.2196044921875
14.3699999,-9.897629737854004,0.26336219906806946,1.3718775510787964,-13.214111328125,-1.8157958984375,1.129150390625
14.389999900000001,-9.749189376831055,0.45489832758903503,1.9991583824157715,-21.3623046875,-1.0986328125,-1.251220703125
14.4099999,-9.691728591918945,0.31124621629714966,2.341529369354248,-20.4010009765625,4.8828125,-3.0517578125
14.4299999,-9.674968719482422,-0.009576806798577309,2.3535003662109375,-10.4827880859375,6.7596435546875,-1.28173828125
14.4499999,-9.6989107131958,-0.4429273009300232,2.0661959648132324,-2.6092529296875,7.6141357421875,-3.3721923828125
14.469999900000001,-9.861717224121094,-0.6967126727104187,1.647210717201233,8.5296630859375,9.70458984375,1.89208984375
14.4899999,-9.907206535339355,-0.7398083209991455,1.2665326595306396,13.6871337890625,-0.1220703125,6.04248046875
14.5099999,-10.019734382629395,-0.5099649429321289,0.9792284965515137,9.0484619140625,-1.1749267578125,4.39453125
14.5299999,-10.010157585144043,-0.21787235140800476,0.9744400978088379,2.1514892578125,-4.94384765625,0.42724609375
14.549999900000001,-9.971850395202637,0.09576806426048279,1.1013327836990356,-8.6822509765625,-1.0986328125,-5.9661865234375
14.569999900000001,-9.909601211547852,0.1843535304069519,1.4173674583435059,-15.350341796875,2.5787353515625,-3.90625
14.5899999,-9.806650161743164,0.2322375625371933,1.6950948238372803,-22.9644775390625,4.8370361328125,-6.988525390625
14.6099999,-9.739612579345703,0.0694318488240242,1.8770540952682495,-28.3050537109375,15.6402587890625,-3.60107421875
14.629999900000001,-9.670180320739746,-0.09816227108240128,2.030282974243164,-30.548095703125,13.5040283203125,3.6773681640625
14.649999900000001,-9.732429504394531,-0.28969839215278625,1.9512743949890137,-41.229248046875,16.90673828125,6.6070556640625
14.6699999,-9.720458984375,-0.4381389021873474,1.8722656965255737,-46.630859375,17.63916015625,9.0789794921875
14.6899999,-9.749189376831055,-0.4405331015586853,1.721431016921997,-52.2918701171875,13.9007568359375,7.26318359375
14.709999900000001,-9.926360130310059,-0.44532153010368347,1.2258312702178955,-62.5762939453125,17.730712890625,4.82177734375
14.729999900000001,-10.046070098876953,-0.8762778043746948,0.33758243918418884,-39.6728515625,3.5552978515625,8.697509765625
14.7499999,-10.292673110961914,-1.0558429956436157,-0.47165772318840027,16.876220703125,-11.138916015625,12.054443359375
14.7699999,-10.529699325561523,-1.3958195447921753,-1.3886369466781616,51.1016845703125,-27.5115966796875,15.0146484375
14.789999900000002,-10.402806282043457,-1.2018892765045166,-1.4221558570861816,65.7806396484375,-40.4205322265625,6.53076171875
14.809999900000001,-10.292673110961914,-0.2944868206977844,-0.47884035110473633,57.037353515625,-31.3720703125,1.46484375
14.8299999,-10.019734382629395,0.395043283700943,0.7445967197418213,6.9580078125,-16.1895751953125,0.9307861328125
14.8499999,-9.703699111938477,1.0606313943862915,2.274491548538208,-14.984130859375,-0.2288818359375,-5.1422119140625
14.8699999,-9.531316757202148,1.137245774269104,3.227383852005005,-14.984130859375,8.2855224609375,-3.4332275390625
14.889999900000001,-9.454702377319336,0.7038952708244324,3.3423056602478027,-17.333984375,5.523681640625,-0.732421875
14.9099999,-9.466673851013184,0.24899697303771973,3.098097085952759,-5.8746337890625,7.1563720703125,-2.288818359375
14.9299999,-9.612719535827637,-0.1843535304069519,2.477998733520508,-1.8768310546875,9.918212890625,1.40380859375
14.9499999,-9.763554573059082,-0.42856210470199585,1.7597382068634033,-9.2010498046875,5.3253173828125,1.28173828125
14.969999900000001,-9.84495735168457,-0.38546648621559143,1.335964560508728,0.823974609375,1.678466796875,-2.86865234375
14.9899999,-9.952696800231934,-0.3495534360408783,0.9217676520347595,4.5166015625,1.678466796875,-0.8544921875
15.0099999,-9.974244117736816,-0.2777273952960968,0.569819986820221,-0.91552734375,-1.28173828125,-2.899169921875
15.0299999,-9.943120002746582,-0.15322890877723694,0.5530605912208557,12.298583984375,-5.1727294921875,-7.26318359375
15.049999900000001,-9.947908401489258,-0.11013327538967133,0.7805097699165344,10.19287109375,-5.31005859375,-3.753662109375
15.069999900000001,-9.892841339111328,-0.12210428714752197,1.1492167711257935,-7.9193115234375,-2.2430419921875,-2.4261474609375
15.0899999,-9.885659217834473,-0.19632454216480255,1.9177556037902832,-9.3231201171875,7.293701171875,-1.1749267578125
15.1099999,-9.890447616577148,-0.1604115068912506,2.6384103298187256,-17.9595947265625,18.798828125,4.9896240234375
15.129999900000001,-9.890447616577148,-0.14365209639072418,3.0334534645080566,-40.6646728515625,28.3660888671875,7.720947265625
15.149999900000001,-9.84495735168457,-0.09816227108240128,3.047818660736084,-51.4678955078125,29.4647216796875,6.0577392578125
15.1699999,-9.890447616577148,-0.08858546614646912,2.4444799423217773,-47.698974609375,34.912109375,5.5084228515625
15.1899999,-9.859322547912598,-0.2322375625371933,1.5897499322891235,-32.135009765625,22.5830078125,10.3302001953125
15.209999900000001,-9.876082420349121,-0.3016694188117981,0.7374141216278076,-24.169921875,17.974853515625,7.62939453125
15.229999900000001,-9.940725326538086,-0.33279404044151306,0.08140286058187485,-21.148681640625,18.24951171875,4.5318603515625
15.2499999,-10.055646896362305,-0.22266076505184174,-0.24181437492370605,-4.4403076171875,12.603759765625,1.434326171875
15.2699999,-10.235212326049805,-0.043095629662275314,-0.33758243918418884,12.4053955078125,5.218505859375,-2.5787353515625
15.289999900000002,-10.371682167053223,0.2059013396501541,-0.1867477297782898,13.0767822265625,2.44140625,-7.080078125
15.309999900000001,-10.457873344421387,0.5027823448181152,0.14844051003456116,0.0457763671875,5.523681640625,-11.7340087890625
15.3299999,-10.44350814819336,0.6919242739677429,0.5602431893348694,-11.505126953125,8.4686279296875,-15.838623046875
15.3499999,-10.42195987701416,0.6344634294509888,0.8451532125473022,-12.298583984375,8.6212158203125,-14.7857666015625
15.3699999,-10.38604736328125,0.2992752194404602,0.9385270476341248,-2.38037109375,7.6446533203125,-13.8702392578125
15.389999900000001,-10.431536674499512,-0.19632454216480255,0.8595184087753296,9.124755859375,6.256103515625,-14.2059326171875
15.4099999,-10.374075889587402,-0.6488286852836609,0.7182605266571045,13.397216796875,4.33349609375,-11.9171142578125
15.4299999,-10.204087257385254,-0.9241618514060974,0.5913678407669067,11.0931396484375,2.5177001953125,-10.6201171875
15.4499999,-9.890447616577148,-0.9648633003234863,0.5195417404174805,8.880615234375,3.4027099609375,-9.82666015625
15.469999900000001,-9.481039047241211,-0.8523358106613159,0.5363011956214905,5.7830810546875,4.21142578125,-9.94873046875
15.4899999,-9.23443603515625,-0.751779317855835,0.6129156351089478,0.5645751953125,5.5999755859375,-8.0718994140625
15.5099999,-9.205705642700195,-0.7445967197418213,0.6991068720817566,-4.638671875,7.8582763671875,-6.256103515625
15.5299999,-9.418789863586426,-0.8786720037460327,0.7493851184844971,-7.080078125,8.6212158203125,-1.6937255859375
15.549999900000001,-9.732429504394531,-1.0606313943862915,0.706289529800415,-4.2724609375,7.1258544921875,2.3956298828125
15.569999900000001,-9.99339771270752,-1.1492167711257935,0.5626373887062073,0.06103515625,4.8980712890625,4.0435791015625
15.5899999,-10.15141487121582,-1.0414776802062988,0.4165911078453064,2.13623046875,2.9144287109375,3.9825439453125
15.6099999,-10.259154319763184,-0.7757213711738586,0.33758243918418884,1.1749267578125,2.197265625,1.0528564453125
15.629999900000001,-10.35252857208252,-0.5291185975074768,0.3280056416988373,-1.7852783203125,3.0670166015625,-1.28173828125
15.649999900000001,-10.453084945678711,-0.43095630407333374,0.38546648621559143,-1.5411376953125,3.509521484375,0.3662109375
15.6699999,-10.520122528076172,-0.4357447028160095,0.4381389021873474,2.593994140625,1.9989013671875,2.044677734375
15.6899999,-10.45547866821289,-0.4668693244457245,0.4572925269603729,4.9896240234375,0.762939453125,0.823974609375
15.709999900000001,-10.196905136108398,-0.3998316824436188,0.5003881454467773,4.7760009765625,1.0986328125,-2.655029296875
15.729999900000001,-9.80904483795166,-0.2585737705230713,0.47644615173339844,2.3345947265625,4.058837890625,-4.7760009765625
15.7499999,-9.311050415039062,-0.1867477297782898,0.40462008118629456,2.1820068359375,4.150390625,-5.8135986328125
15.7699999,-8.856152534484863,-0.27054479718208313,0.24420857429504395,6.40869140625,-0.0457763671875,-5.79833984375
15.789999900000002,-8.434772491455078,-0.5267243981361389,0.004788403399288654,14.2669677734375,-3.47900390625,-3.6468505859375
15.809999900000001,-8.039729118347168,-0.8858546018600464,-0.21547815203666687,21.91162109375,-5.5389404296875,1.0833740234375
15.8299999,-7.785943984985352,-1.1252747774124146,-0.2753331959247589,26.641845703125,-8.819580078125,6.317138671875
15.8499999,-7.762001991271973,-1.170764684677124,-0.1388636976480484,26.30615234375,-9.185791015625,8.8348388671875
15.869999900000002,-8.066065788269043,-0.9792284965515137,0.16998831927776337,20.751953125,-5.43212890625,6.9122314453125
15.889999900000001,-8.678980827331543,-0.6248866319656372,0.4908113479614258,12.6800537109375,-3.0517578125,4.8370361328125
15.9099999,-9.48343276977539,-0.30885201692581177,0.7134721279144287,9.2315673828125,-6.256103515625,3.570556640625
15.9299999,-10.371682167053223,-0.07182604819536209,0.7829039692878723,12.176513671875,-9.2620849609375,2.7923583984375
15.9499999,-11.623848915100098,-0.014365210197865963,0.7110779285430908,17.2271728515625,-10.986328125,-1.9989013671875
15.969999900000001,-11.994950294494629,-0.033518824726343155,0.6536170840263367,17.6849365234375,-15.899658203125,-21.91162109375
15.9899999,-12.571952819824219,-0.021547814831137657,0.6799532771110535,5.2032470703125,-13.641357421875,-2.0751953125
16.0099999,-11.870451927185059,-0.17717093229293823,0.8020575642585754,-9.8876953125,-16.0675048828125,0.518798828125
16.0299999,-11.176133155822754,-0.22266076505184174,0.790086567401886,-11.3677978515625,-8.6212158203125,-9.5672607421875
16.0499999,-10.393229484558105,-0.47644615173339844,0.6368576288223267,1.220703125,-13.3209228515625,-9.8724365234375
16.0699999,-9.885659217834473,-0.6416460275650024,0.5530605912208557,16.571044921875,-19.622802734375,-11.04736328125
16.089999900000002,-9.694122314453125,-0.790086567401886,0.44771572947502136,10.68115234375,-18.6767578125,-4.0740966796875
16.109999900000002,-9.660603523254395,-0.8140285611152649,0.6823474764823914,2.4871826171875,-16.90673828125,-2.0294189453125
16.1299999,-9.679757118225098,-0.7876923680305481,1.237802267074585,-3.936767578125,-13.00048828125,-5.31005859375
16.1499999,-9.68694019317627,-0.6033388376235962,2.161964178085327,-30.9295654296875,-3.2501220703125,2.6397705078125
16.1699999,-9.658209800720215,-0.4429273009300232,3.0095114707946777,-69.3206787109375,15.3656005859375,4.6539306640625
16.1899999,-9.607931137084961,-0.33758243918418884,3.5721490383148193,-89.78271484375,33.8897705078125,4.4403076171875
16.2099999,-9.622296333312988,-0.5147533416748047,3.090914487838745,-71.8231201171875,34.515380859375,0.8697509765625
16.2299999,-9.864110946655273,-0.7852981686592102,1.8148049116134644,-14.70947265625,16.265869140625,2.1820068359375
16.249999900000002,-10.050858497619629,-0.9864110946655273,0.21547815203666687,34.423828125,-4.4708251953125,0.6103515625
16.269999900000002,-10.237606048583984,-0.9528923034667969,-1.1276689767837524,45.3643798828125,-13.7481689453125,-9.613037109375
16.2899999,-10.321403503417969,-0.8020575642585754,-1.6855180263519287,37.5823974609375,-20.7672119140625,-9.9334716796875
16.3099999,-10.1753568649292,-0.43335050344467163,-1.259350061416626,30.3802490234375,-22.918701171875,-13.5040283203125
16.3299999,-10.017339706420898,-0.22026655077934265,-0.07422025501728058,7.01904296875,-16.5863037109375,-9.6282958984375
16.3499999,-9.825803756713867,-0.31603461503982544,1.1755530834197998,-39.3829345703125,-0.213623046875,-5.9814453125
16.3699999,-9.706093788146973,-0.5339069962501526,2.5929205417633057,-57.80029296875,10.6048583984375,0.732421875
16.3899999,-9.528923034667969,-0.9481038451194763,3.361459255218506,-61.95068359375,19.1497802734375,6.6375732421875
16.4099999,-9.674968719482422,-1.525106430053711,3.2082302570343018,-71.258544921875,30.029296875,15.8843994140625
16.429999900000002,-9.737217903137207,-1.8052281141281128,2.4013843536376953,-53.924560546875,23.193359375,20.9197998046875
16.4499999,-9.62947940826416,-1.824381709098816,1.173158884048462,-20.8282470703125,10.5743408203125,18.402099609375
16.4699999,-9.787496566772461,-1.3742717504501343,0.24181437492370605,-10.772705078125,-0.3662109375,21.7742919921875
16.4899999,-9.816226959228516,-0.8667010068893433,-0.3687070608139038,-44.2962646484375,2.960205078125,11.627197265625
16.5099999,-9.955090522766113,-0.0071826050989329815,0.18914192914962769,-64.5294189453125,4.852294921875,6.8817138671875
16.5299999,-9.701305389404297,-0.090979665517807,-0.11252748221158981,-84.0911865234375,21.4080810546875,17.669677734375
16.5499999,-8.944737434387207,-0.2944868206977844,-0.5171475410461426,-9.674072265625,0.4119873046875,20.7366943359375
16.5699999,-8.157045364379883,-1.173158884048462,-1.4173674583435059,110.3363037109375,-38.87939453125,12.451171875
16.589999900000002,-7.884106159210205,-1.4652514457702637,-1.9800047874450684,153.1524658203125,-53.5888671875,6.3323974609375
16.609999900000002,-8.317456245422363,-1.2880805730819702,-0.9888052940368652,113.9068603515625,-40.52734375,4.425048828125
16.6299999,-9.258378028869629,-0.08858546614646912,1.2258312702178955,26.611328125,-3.7384033203125,11.2152099609375
16.6499999,-10.481815338134766,1.1204863786697388,3.643975019454956,-57.0526123046875,45.3033447265625,5.7220458984375
16.6699999,-11.130643844604492,1.9919757843017578,5.118803024291992,-81.9091796875,67.3980712890625,-5.4473876953125
16.6899999,-11.894393920898438,1.802833914756775,4.632780075073242,-62.31689453125,64.8345947265625,-1.983642578125
16.7099999,-12.30859088897705,0.9265560507774353,2.4372973442077637,-5.401611328125,31.67724609375,-6.866455078125
16.7299999,-12.504915237426758,-0.33279404044151306,-0.3016694188117981,48.675537109375,-6.195068359375,-0.79345703125
16.749999900000002,-12.433089256286621,-1.1516109704971313,-2.365471363067627,64.422607421875,-29.3426513671875,1.15966796875
16.769999900000002,-11.824962615966797,-1.3527239561080933,-2.8850131034851074,49.163818359375,-33.2183837890625,-3.5858154296875
16.7899999,-10.831368446350098,-1.072602391242981,-1.941697597503662,19.0277099609375,-16.845703125,-3.0059814453125
16.8099999,-9.53849983215332,-0.6655880808830261,-0.28730419278144836,-7.9498291015625,2.25830078125,1.220703125
16.8299999,-8.346187591552734,-0.2825157940387726,1.216254472732544,-17.486572265625,14.22119140625,6.65283203125
16.8499999,-7.675810813903809,-0.05985504388809204,1.9536685943603516,-9.09423828125,16.4642333984375,4.5166015625
16.8699999,-7.63989782333374,0.014365210197865963,1.7908629179000854,6.072998046875,10.894775390625,-1.983642578125
16.8899999,-8.149862289428711,-0.016759412363171577,1.2018892765045166,16.90673828125,1.2054443359375,-3.5858154296875
16.9099999,-8.942343711853027,-0.13168109953403473,0.5722141861915588,18.280029296875,-3.90625,-1.5869140625
16.929999900000002,-9.727641105651855,-0.22744916379451752,0.22744916379451752,17.5628662109375,-1.5716552734375,-2.0599365234375
16.9499999,-10.359710693359375,-0.2298433631658554,0.19632454216480255,17.7154541015625,1.8768310546875,-4.974365234375
16.9699999,-10.740388870239258,-0.16519992053508759,0.3734954595565796,16.387939453125,1.8157958984375,-7.75146484375
16.9899999,-10.900800704956055,-0.05985504388809204,0.569819986820221,12.6953125,1.922607421875,-9.33837890625
17.0099999,-10.812214851379395,-0.10534487664699554,0.6991068720817566,13.458251953125,4.6844482421875,-11.7950439453125
17.0299999,-10.591948509216309,-0.28969839215278625,0.706289529800415,20.2484130859375,4.8828125,-11.5509033203125
17.0499999,-10.285490036010742,-0.5650315880775452,0.6727706789970398,26.2298583984375,2.471923828125,-6.7138671875
17.0699999,-9.758766174316406,-0.9672574996948242,0.5147533416748047,29.327392578125,3.265380859375,0.42724609375
17.089999900000002,-9.627084732055664,-0.849941611289978,0.4668693244457245,29.571533203125,1.9989013671875,0.1373291015625
17.109999900000002,-9.66299819946289,-0.6009446382522583,0.3758896589279175,26.3671875,-0.9765625,-2.044677734375
17.1299999,-9.86650562286377,-0.38307225704193115,0.1843535304069519,18.9971923828125,-7.32421875,-3.35693359375
17.1499999,-10.230423927307129,-0.2298433631658554,0.05506663769483566,13.73291015625,-12.176513671875,-2.9754638671875
17.1699999,-10.565611839294434,-0.23942017555236816,0.021547814831137657,13.671875,-13.00048828125,-3.0364990234375
17.1899999,-10.697293281555176,-0.33518823981285095,0.24181437492370605,17.1966552734375,-11.2457275390625,-4.1351318359375
17.2099999,-10.587160110473633,-0.47405192255973816,0.5961562395095825,19.6533203125,-9.1400146484375,-0.8087158203125
17.2299999,-10.345345497131348,-0.5602431893348694,0.9481038451194763,14.7705078125,-5.4168701171875,3.2806396484375
17.249999900000002,-10.170568466186523,-0.5770025849342346,1.1276689767837524,5.0201416015625,-3.9215087890625,3.84521484375
17.269999900000002,-10.077195167541504,-0.47644615173339844,1.1085153818130493,-0.5645751953125,-8.0108642578125,1.129150390625
17.2899999,-10.165780067443848,-0.363918662071228,0.9385270476341248,4.241943359375,-8.087158203125,-1.739501953125
17.3099999,-10.204087257385254,-0.2968810200691223,0.7637503147125244,14.3280029296875,-10.040283203125,-3.9825439453125
17.3299999,-10.249577522277832,-0.27054479718208313,0.7422025203704834,22.247314453125,-12.0697021484375,-3.8299560546875
17.3499999,-10.194510459899902,-0.4118026793003082,0.7924807667732239,23.5595703125,-8.5906982421875,-4.8065185546875
17.3699999,-10.180145263671875,-0.6105214357376099,0.8547300100326538,32.196044921875,-8.4075927734375,-2.471923828125
17.3899999,-10.103530883789062,-0.5746083855628967,0.9600749015808105,42.694091796875,-13.73291015625,-0.79345703125
17.409999900000003,-10.043676376342773,-0.608127236366272,1.015141487121582,37.7044677734375,-8.9874267578125,-0.8697509765625
17.429999900000002,-10.02691650390625,-0.2992752194404602,1.1444283723831177,35.33935546875,-4.8065185546875,-6.2408447265625
17.4499999,-9.871294021606445,0.004788403399288654,1.3886369466781616,25.3753662109375,-4.33349609375,-12.75634765625
17.4699999,-10.08198356628418,0.2513911724090576,1.656787633895874,3.11279296875,5.2490234375,-11.5966796875
17.4899999,-10.070012092590332,0.22266076505184174,1.8315643072128296,-16.021728515625,15.80810546875,-15.594482421875
17.5099999,-10.522516250610352,0.1364694982767105,1.9177556037902832,-25.054931640625,20.1568603515625,-2.4871826171875
17.5299999,-10.766724586486816,-0.17477671802043915,1.723825216293335,-24.3682861328125,15.80810546875,-7.3699951171875
17.5499999,-10.826580047607422,-0.5195417404174805,1.3263877630233765,-11.199951171875,8.270263671875,-13.1378173828125
17.5699999,-11.061211585998535,-0.7709329724311829,0.8762778043746948,5.615234375,1.2969970703125,-6.7291259765625
17.589999900000002,-10.63504409790039,-0.9241618514060974,0.4213795065879822,14.0380859375,-0.457763671875,-6.3629150390625
17.609999900000002,-10.527304649353027,-0.8523358106613159,0.2537853717803955,12.115478515625,-2.01416015625,-7.049560546875
17.6299999,-10.32858657836914,-0.569819986820221,0.31603461503982544,8.575439453125,-2.960205078125,-15.106201171875
17.6499999,-10.35252857208252,-0.42616790533065796,0.5626373887062073,1.40380859375,-4.9285888671875,-19.775390625
17.6699999,-10.529699325561523,-0.2561795711517334,0.9074024558067322,-0.274658203125,-28.9764404296875,-9.429931640625
17.6899999,-10.776301383972168,-0.33039984107017517,1.1827356815338135,5.615234375,-17.8070068359375,2.1514892578125
17.7099999,-10.821791648864746,-0.4118026793003082,1.314416766166687,10.43701171875,5.2947998046875,-4.5623779296875
17.7299999,-10.642226219177246,-0.4596867263317108,1.3479355573654175,11.016845703125,19.561767578125,-17.39501953125
17.749999900000002,-10.177751541137695,-0.4668693244457245,1.2761094570159912,4.486083984375,19.7906494140625,-21.1639404296875
17.769999900000002,-9.481039047241211,-0.5961562395095825,1.1803414821624756,-3.143310546875,14.22119140625,-10.4522705078125
17.7899999,-8.633491516113281,-0.7445967197418213,1.0893617868423462,1.2969970703125,14.556884765625,3.2806396484375
17.8099999,-7.829039573669434,-0.9600749015808105,0.9840168952941895,9.21630859375,17.7154541015625,10.3302001953125
17.8299999,-7.223306655883789,-1.1204863786697388,0.8858546018600464,12.054443359375,15.0146484375,10.5743408203125
17.8499999,-6.9024834632873535,-1.170764684677124,0.8236053586006165,8.7738037109375,12.63427734375,5.0048828125
17.8699999,-6.892906665802002,-1.1061211824417114,0.768538773059845,3.204345703125,13.6566162109375,1.9378662109375
17.8899999,-7.053318023681641,-1.0414776802062988,0.7661445140838623,-0.79345703125,8.7738037109375,8.97216796875
17.909999900000003,-7.443572998046875,-0.9385270476341248,0.7637503147125244,-1.7852783203125,8.72802734375,22.6898193359375
17.929999900000002,-8.003816604614258,-0.8523358106613159,0.7589619159698486,-0.1983642578125,17.608642578125,27.313232421875
17.9499999,-8.7484130859375,-0.768538773059845,0.7254431247711182,0.244140625,21.270751953125,22.003173828125
17.9699999,-9.627084732055664,-0.6536170840263367,0.6392518281936646,-1.3580322265625,5.9661865234375,16.082763671875
17.9899999,-10.424354553222656,-0.5626373887062073,0.5434837937355042,-3.23486328125,-19.0582275390625,9.3994140625
18.0099999,-10.975020408630371,-0.5363011956214905,0.44771572947502136,-3.143310546875,-26.824951171875,2.7618408203125
18.0299999,-11.152191162109375,-0.5626373887062073,0.43335050344467163,-2.166748046875,-27.0233154296875,5.4931640625
18.0499999,-10.960655212402344,-0.6057330369949341,0.5363011956214905,-3.90625,-15.07568359375,11.2457275390625
18.0699999,-10.630255699157715,-0.6560112833976746,0.6200982332229614,-3.23486328125,23.3001708984375,2.0904541015625
18.089999900000002,-10.366893768310547,-0.667982280254364,0.6751648783683777,0.3509521484375,34.5916748046875,-8.3160400390625
18.109999900000002,-10.230423927307129,-0.6560112833976746,0.6392518281936646,-1.52587890625,9.6893310546875,-6.9122314453125
18.1299999,-10.223240852355957,-0.6631938815116882,0.5315127968788147,-5.126953125,-4.8065185546875,-5.279541015625
18.1499999,-10.211270332336426,-0.6967126727104187,0.3902548849582672,-3.2958984375,3.0364990234375,-6.927490234375
18.1699999,-10.086771965026855,-0.7709329724311829,0.2777273952960968,3.448486328125,11.9476318359375,-7.01904296875
18.1899999,-9.979032516479492,-0.828393816947937,0.19393034279346466,8.6212158203125,12.14599609375,-1.8157958984375
18.2099999,-9.926360130310059,-0.8236053586006165,0.16519992053508759,9.2620849609375,4.1961669921875,0.48828125
18.2299999,-9.995792388916016,-0.7613561153411865,0.19632454216480255,7.843017578125,-0.885009765625,-3.9520263671875
18.249999900000002,-10.127472877502441,-0.7110779285430908,0.27054479718208313,8.880615234375,-3.2196044921875,-7.843017578125
18.269999900000002,-10.244789123535156,-0.6823474764823914,0.3734954595565796,10.406494140625,-11.871337890625,-6.8359375
18.2899999,-10.326191902160645,-0.7110779285430908,0.44771572947502136,12.2528076171875,-13.18359375,-11.1083984375
18.3099999,-10.326191902160645,-0.768538773059845,0.5291185975074768,16.845703125,-6.89697265625,-19.622802734375
18.3299999,-10.278307914733887,-0.828393816947937,0.5674257874488831,19.6990966796875,-7.1868896484375,-17.2882080078125
18.3499999,-10.11550235748291,-0.8547300100326538,0.6607996821403503,17.27294921875,-23.7274169921875,-2.227783203125
18.3699999,-9.832986831665039,-0.8188169598579407,0.7972691655158997,10.833740234375,-26.397705078125,9.9029541015625
18.3899999,-9.48343276977539,-0.689530074596405,0.9864110946655273,3.6468505859375,-0.4425048828125,9.979248046875
18.409999900000003,-9.162610054016113,-0.47405192255973816,1.1420341730117798,-3.753662109375,23.3612060546875,10.6964111328125
18.429999900000002,-8.973467826843262,-0.19871874153614044,1.2425906658172607,-11.53564453125,22.705078125,19.4549560546875
18.4499999,-9.643844604492188,-0.028730420395731926,1.1851298809051514,-19.47021484375,17.913818359375,19.8822021484375
18.4699999,-10.007762908935547,-0.009576806798577309,0.9888052940368652,-21.78955078125,1.7852783203125,-16.3421630859375
18.4899999,-10.886435508728027,-0.19871874153614044,0.7015010714530945,-14.5263671875,-3.448486328125,-16.326904296875
18.5099999,-11.113883972167969,-0.42856210470199585,0.3902548849582672,-2.7008056640625,-0.823974609375,-0.335693359375
18.5299999,-10.960655212402344,-0.706289529800415,0.06464344263076782,6.256103515625,-7.01904296875,-4.669189453125
18.5499999,-10.63743782043457,-0.8762778043746948,-0.1628057211637497,16.6473388671875,-12.2222900390625,-6.7596435546875
18.5699999,-10.244789123535156,-0.9696516990661621,-0.2322375625371933,25.604248046875,-17.9443359375,-8.209228515625
18.589999900000002,-10.041281700134277,-1.0007762908935547,-0.08858546614646912,26.397705078125,-19.1192626953125,-5.18798828125
18.609999900000002,-9.907206535339355,-0.9481038451194763,0.26815059781074524,20.1416015625,-16.693115234375,-3.0517578125
18.6299999,-9.885659217834473,-0.8403648138046265,0.7924807667732239,13.824462890625,-12.847900390625,-2.1514892578125
18.6499999,-9.80904483795166,-0.6967126727104187,1.3838485479354858,8.60595703125,-8.209228515625,-2.1209716796875
18.6699999,-9.718064308166504,-0.5937620401382446,1.8914192914962769,0.6103515625,-1.1749267578125,-1.1444091796875
18.6899999,-9.634267807006836,-0.5770025849342346,2.1930887699127197,-7.99560546875,5.828857421875,0.06103515625
18.7099999,-9.63187313079834,-0.6512228846549988,2.252943754196167,-12.5579833984375,8.9111328125,1.434326171875
18.7299999,-9.696516990661621,-0.7972691655158997,2.0638017654418945,-16.2506103515625,9.857177734375,4.08935546875
18.749999900000002,-9.78989028930664,-0.8906430602073669,1.6735470294952393,-22.186279296875,10.986328125,7.7362060546875
18.769999900000002,-9.888052940368652,-0.9265560507774353,1.1444283723831177,-23.8494873046875,9.8876953125,8.514404296875
18.7899999,-10.000580787658691,-0.8906430602073669,0.5291185975074768,-13.7176513671875,3.9215087890625,6.1187744140625
18.8099999,-10.129867553710938,-0.7876923680305481,-0.07661445438861847,2.3345947265625,-5.43212890625,4.150390625
18.8299999,-10.268731117248535,-0.6584054827690125,-0.5650315880775452,15.594482421875,-14.22119140625,2.1820068359375
18.8499999,-10.38604736328125,-0.5530605912208557,-0.7637503147125244,25.5126953125,-21.17919921875,-0.6103515625
18.8699999,-10.38604736328125,-0.47165772318840027,-0.6320692300796509,30.4412841796875,-25.5126953125,-2.3193359375
18.8899999,-10.24239444732666,-0.35434186458587646,-0.1149216815829277,26.30615234375,-26.4129638671875,-1.6326904296875
18.909999900000003,-10.029311180114746,-0.24420857429504395,0.6727706789970398,9.796142578125,-22.247314453125,-0.7476806640625
18.929999900000002,-9.78989028930664,-0.2082955539226532,1.482010841369629,-11.1236572265625,-11.77978515625,-2.410888671875
18.9499999,-9.653421401977539,-0.24899697303771973,2.2194249629974365,-21.1639404296875,-3.8299560546875,-2.044677734375
18.9699999,-9.579200744628906,-0.4644751250743866,2.5977089405059814,-20.6756591796875,1.129150390625,1.8768310546875
18.9899999,-9.617507934570312,-0.7254431247711182,2.6455929279327393,-12.451171875,2.86865234375,5.7373046875
19.0099999,-9.660603523254395,-0.9792284965515137,2.3247697353363037,1.3885498046875,2.655029296875,4.669189453125
19.0299999,-9.773131370544434,-1.0462661981582642,1.9081788063049316,13.580322265625,2.7618408203125,7.75146484375
19.0499999,-9.926360130310059,-0.9409212470054626,1.5322890281677246,11.932373046875,-2.13623046875,8.11767578125
19.0699999,-9.880870819091797,-0.6560112833976746,1.3263877630233765,0.6561279296875,-4.1046142578125,1.89208984375
19.089999900000002,-9.926360130310059,-0.42616790533065796,1.2880805730819702,-6.988525390625,7.171630859375,-1.861572265625
19.109999900000002,-9.837775230407715,-0.1628057211637497,1.400607943534851,-6.0882568359375,9.765625,-0.3814697265625
19.1299999,-9.859322547912598,-0.10295066982507706,1.4700398445129395,-8.3465576171875,8.9111328125,-1.03759765625
19.1499999,-9.794678688049316,-0.06224924325942993,1.4867992401123047,-13.4429931640625,9.9029541015625,-5.67626953125
19.1699999,-9.967061996459961,-0.18914192914962769,1.3646949529647827,-12.0086669921875,15.411376953125,-1.190185546875
19.1899999,-9.821015357971191,-0.3711012601852417,1.1516109704971313,-5.06591796875,6.9732666015625,-1.77001953125
19.2099999,-9.967061996459961,-0.6129156351089478,0.8643068075180054,0.42724609375,8.2855224609375,3.5400390625
19.2299999,-10.110713958740234,-0.9002198576927185,0.5602431893348694,7.7362060546875,0.06103515625,6.6375732421875
19.249999900000002,-10.079588890075684,-1.0893617868423462,0.38546648621559143,17.1356201171875,-12.20703125,1.739501953125
19.269999900000002,-10.1753568649292,-1.0821791887283325,0.3734954595565796,22.918701171875,-5.9967041015625,3.0059814453125
19.2899999,-10.022128105163574,-0.9696516990661621,0.569819986820221,16.17431640625,-4.4097900390625,6.5460205078125
19.3099999,-9.849745750427246,-0.6967126727104187,0.9600749015808105,1.8768310546875,-5.3863525390625,3.387451171875
19.3299999,-9.792284965515137,-0.40940847992897034,1.335964560508728,-8.392333984375,2.593994140625,0.701904296875
19.3499999,-9.744400978088379,-0.17956513166427612,1.656787633895874,-11.016845703125,5.950927734375,6.591796875
19.3699999,-9.78989028930664,-0.05267243832349777,1.7118542194366455,-12.3138427734375,5.7525634765625,3.7994384765625
19.3899999,-9.99100399017334,-0.05267243832349777,1.5538369417190552,-7.01904296875,5.18798828125,8.4991455078125
19.409999900000003,-9.971850395202637,-0.12449848651885986,1.2976573705673218,2.5787353515625,-8.331298828125,0.6103515625
19.429999900000002,-10.072406768798828,-0.2537853717803955,0.9983820915222168,10.833740234375,-2.3956298828125,-2.74658203125
19.4499999,-10.041281700134277,-0.3447650372982025,0.849941611289978,11.688232421875,-1.434326171875,0.4425048828125
19.4699999,-9.909601211547852,-0.40462008118629456,0.9241618514060974,5.79833984375,-4.7607421875,-1.7242431640625
19.4899999,-9.90241813659668,-0.4405331015586853,1.1109095811843872,-1.0223388671875,3.1890869140625,-3.082275390625
19.5099999,-9.797073364257812,-0.42616790533065796,1.400607943534851,-2.7923583984375,6.8511962890625,4.1656494140625
19.5299999,-9.758766174316406,-0.40222588181495667,1.580173134803772,-5.55419921875,7.8887939453125,3.60107421875
19.5499999,-9.892841339111328,-0.3663128614425659,1.6065093278884888,-8.1024169921875,9.7808837890625,7.9345703125
19.5699999,-9.818621635437012,-0.3016694188117981,1.525106430053711,-8.575439453125,-1.0833740234375,-0.1678466796875
19.589999900000002,-9.93354320526123,-0.28730419278144836,1.2952631711959839,-3.9520263671875,7.6141357421875,-2.1820068359375
19.609999900000002,-9.947908401489258,-0.272938996553421,1.0438719987869263,1.129150390625,7.38525390625,0.8697509765625
19.6299999,-9.876082420349121,-0.31842881441116333,0.8307880163192749,3.0059814453125,-0.9918212890625,-2.86865234375
19.6499999,-10.010157585144043,-0.4620809257030487,0.6368576288223267,2.99072265625,3.4332275390625,-1.03759765625
19.6699999,-9.962273597717285,-0.6153098344802856,0.5506663918495178,4.730224609375,-1.6021728515625,6.04248046875
19.6899999,-10.002974510192871,-0.7589619159698486,0.5578489899635315,4.974365234375,-1.068115234375,9.6435546875
19.7099999,-10.156203269958496,-0.7469909191131592,0.6536170840263367,5.4168701171875,-5.55419921875,13.2904052734375
19.7299999,-10.022128105163574,-0.6009446382522583,0.7852981686592102,5.340576171875,-15.777587890625,4.7149658203125
19.749999900000002,-10.077195167541504,-0.30885201692581177,0.9481038451194763,7.01904296875,-5.584716796875,2.838134765625
19.769999900000002,-9.981427192687988,-0.06703764945268631,1.0749965906143188,6.072998046875,-4.33349609375,4.638671875
19.7899999,-9.785101890563965,0.15562310814857483,1.1851298809051514,0.5645751953125,-8.8958740234375,-1.7852783203125
19.8099999,-9.849745750427246,0.24420857429504395,1.2737152576446533,-4.791259765625,-0.3204345703125,-2.0294189453125
19.8299999,-9.768342971801758,0.3016694188117981,1.3982137441635132,-5.9814453125,-2.9144287109375,-0.213623046875
19.8499999,-9.86889934539795,0.26575639843940735,1.4963760375976562,-7.99560546875,1.5869140625,0.18310546875
19.8699999,-9.99339771270752,0.22744916379451752,1.5873557329177856,-8.23974609375,-0.48828125,1.617431640625
19.8899999,-9.938331604003906,0.14365209639072418,1.558625340461731,-7.3699951171875,-8.697509765625,-8.056640625
19.909999900000003,-9.981427192687988,0.026336219161748886,1.455674648284912,-2.6397705078125,1.9683837890625,-8.5906982421875
19.929999900000002,-9.964667320251465,-0.1173158809542656,1.278503656387329,2.38037109375,0.6561279296875,-6.0577392578125
19.9499999,-9.818621635437012,-0.2777273952960968,1.115697979927063,3.9215087890625,-5.828857421875,-10.9405517578125
19.9699999,-9.964667320251465,-0.4357447028160095,1.0319008827209473,3.936767578125,1.3580322265625,-7.720947265625
19.9899999,-9.818621635437012,-0.5554547905921936,1.015141487121582,5.4931640625,-3.326416015625,-4.57763671875
