# Time (seconds),Accel_X,Accel_Y,Accel_Z,Gyro_X,Gyro_Y,Gyro_Z
0.0099999,-8.44434928894043,-4.946420669555664,1.5514427423477173,20.93505859375,13.48876953125,78.399658203125
0.029999900000000003,-8.157045364379883,-4.702212333679199,1.659181833267212,17.2882080078125,11.8560791015625,85.357666015625
0.0499999,-7.9631147384643555,-4.443638324737549,1.6927006244659424,12.39013671875,4.8370361328125,88.2568359375
0.0699999,-7.903259754180908,-4.134786128997803,1.6927006244659424,5.4779052734375,0.152587890625,89.447021484375
0.08999990000000001,-7.948749542236328,-3.825934410095215,1.7142484188079834,-2.7313232421875,-3.2958984375,91.0797119140625
0.10999990000000001,-8.085219383239746,-3.5027170181274414,1.778891921043396,-11.749267578125,-3.60107421875,92.4072265625
0.1299999,-8.300697326660156,-3.2178070545196533,1.8722656965255737,-21.4691162109375,-0.2288818359375,89.9505615234375
0.14999990000000002,-8.5903959274292,-2.978386878967285,1.9584569931030273,-31.4178466796875,1.2359619140625,85.6781005859375
0.1699999,-8.939949035644531,-2.7916390895843506,2.0039467811584473,-40.557861328125,-1.6021728515625,81.9091796875
0.1899999,-9.330204010009766,-2.6791117191314697,1.9632453918457031,-48.1109619140625,-4.3792724609375,77.4688720703125
0.20999990000000002,-9.68933391571045,-2.5929205417633057,1.8339585065841675,-53.558349609375,-5.157470703125,70.5413818359375
0.2299999,-10.005369186401367,-2.5737667083740234,1.6184803247451782,-56.15234375,-3.448486328125,60.8978271484375
0.2499999,-10.278307914733887,-2.5665841102600098,1.3335703611373901,-56.4117431640625,-0.3204345703125,52.6275634765625
0.2699999,-10.47702693939209,-2.58813214302063,1.0103530883789062,-54.443359375,3.875732421875,42.1142578125
0.28999990000000003,-10.613495826721191,-2.63362193107605,0.6536170840263367,-49.9267578125,11.71875,29.35791015625
0.3099999,-10.690110206604004,-2.7006595134735107,0.2944868206977844,-43.0145263671875,18.2037353515625,21.5301513671875
0.3299999,-10.742782592773438,-2.7557260990142822,-0.09816227108240128,-34.60693359375,18.280029296875,19.3023681640625
0.34999990000000003,-10.721235275268555,-2.827552318572998,-0.4668693244457245,-23.193359375,9.033203125,16.2353515625
0.3699999,-10.632649421691895,-2.892195701599121,-0.7805097699165344,-9.9029541015625,-1.129150390625,14.95361328125
0.3899999,-10.450690269470215,-2.8993782997131348,-0.9816226959228516,2.3345947265625,-6.0577392578125,18.7530517578125
0.40999990000000003,-10.1753568649292,-2.8227639198303223,-1.0247182846069336,11.1846923828125,-5.92041015625,20.5535888671875
0.4299999,-9.861717224121094,-2.6623523235321045,-0.933738648891449,17.2119140625,-2.838134765625,19.134521484375
0.4499999,-9.59835433959961,-2.410961151123047,-0.7326257228851318,20.81298828125,-3.6773681640625,21.54541015625
0.4699999,-9.440337181091309,-2.073378562927246,-0.4572925269603729,21.148681640625,-10.2691650390625,26.8707275390625
0.4899999,-9.375694274902344,-1.6879122257232666,-0.1364694982767105,17.9443359375,-14.892578125,26.611328125
0.5099999,-9.363722801208496,-1.2832920551300049,0.2059013396501541,13.0615234375,-14.2364501953125,21.8048095703125
0.5299999,-9.378087997436523,-0.8858546018600464,0.5578489899635315,7.781982421875,-8.85009765625,19.683837890625
0.5499999,-9.430760383605957,-0.586579442024231,0.811634361743927,2.960205078125,-0.5645751953125,20.9808349609375
0.5699999,-9.536105155944824,-0.3687070608139038,0.9576807022094727,2.5482177734375,-2.86865234375,21.514892578125
0.5899998999999999,-9.679757118225098,-0.2322375625371933,1.0031704902648926,5.8746337890625,-13.519287109375,18.8446044921875
0.6099998999999999,-9.816226959228516,-0.15322890877723694,0.993593692779541,8.5906982421875,-16.7236328125,17.181396484375
0.6299999,-9.897629737854004,-0.05506663769483566,1.0199298858642578,7.62939453125,-12.4969482421875,18.8751220703125
0.6499999,-9.883264541625977,0.014365210197865963,1.094150185585022,3.173828125,-4.9591064453125,19.622802734375
0.6699999,-9.828198432922363,0.0933738648891449,1.213860273361206,-3.204345703125,0.48828125,21.514892578125
0.6899999,-9.806650161743164,0.17238251864910126,1.314416766166687,-9.9945068359375,5.096435546875,24.0478515625
0.7099999,-9.830592155456543,0.2082955539226532,1.3215993642807007,-14.5111083984375,9.246826171875,21.453857421875
0.7299998999999999,-9.9000244140625,0.21547815203666687,1.256955862045288,-14.495849609375,6.28662109375,16.05224609375
0.7499998999999999,-9.988609313964844,0.17238251864910126,1.1085153818130493,-12.1307373046875,4.5928955078125,12.51220703125
0.7699999,-10.043676376342773,0.08140286058187485,0.9265560507774353,-9.2315673828125,5.615234375,12.420654296875
0.7899999,-10.034099578857422,-0.019153613597154617,0.768538773059845,-6.7596435546875,3.5400390625,15.3350830078125
0.8099999,-9.96945571899414,-0.10055647045373917,0.6512228846549988,-5.2337646484375,0.67138671875,16.632080078125
0.8299999,-9.895236015319824,-0.1388636976480484,0.5841852426528931,-4.913330078125,1.9378662109375,14.4195556640625
0.8499998999999999,-10.072406768798828,-0.10534487664699554,0.5578489899635315,-4.3792724609375,6.3629150390625,10.7421875
0.8699998999999999,-10.192116737365723,-0.1173158809542656,0.5626373887062073,-3.4332275390625,2.410888671875,-1.28173828125
0.8899999,-10.512939453125,-0.14365209639072418,0.5650315880775452,-4.6234130859375,0.274658203125,2.7008056640625
0.9099999,-10.584765434265137,-0.15322890877723694,0.5554547905921936,-4.1961669921875,2.716064453125,15.2130126953125
0.9299999,-10.524910926818848,-0.1412578970193863,0.5386953949928284,-3.7384033203125,0.6256103515625,13.7481689453125
0.9499999,-10.311826705932617,-0.06464344263076782,0.5099649429321289,-2.6702880859375,-0.457763671875,10.406494140625
0.9699998999999999,-10.110713958740234,0.035913024097681046,0.48602294921875,-1.190185546875,-2.01416015625,8.697509765625
0.9899998999999999,-9.976638793945312,0.12689268589019775,0.49320554733276367,0.0457763671875,-3.47900390625,9.0484619140625
1.0099999,-9.919178009033203,0.21308395266532898,0.5291185975074768,-1.3275146484375,-2.9754638671875,11.260986328125
1.0299999,-9.892841339111328,0.3208230137825012,0.5913678407669067,-2.655029296875,-2.0904541015625,9.979248046875
1.0499999,-9.880870819091797,0.43335050344467163,0.7254431247711182,-1.922607421875,-2.410888671875,6.2713623046875
1.0699999,-9.86650562286377,0.5434837937355042,0.9074024558067322,-3.84521484375,-0.701904296875,5.0506591796875
1.0899999,-9.86889934539795,0.6368576288223267,1.036689281463623,-8.4228515625,3.753662109375,5.5389404296875
1.1099999,-9.892841339111328,0.646434485912323,1.0965443849563599,-7.0648193359375,5.1727294921875,3.173828125
1.1299999,-9.926360130310059,0.6177040338516235,1.0654197931289673,-1.4801025390625,3.692626953125,1.15966796875
1.1499999,-9.955090522766113,0.569819986820221,0.9433154463768005,0.244140625,3.7841796875,1.739501953125
1.1699998999999999,-9.979032516479492,0.49559974670410156,0.7757213711738586,0.640869140625,4.3792724609375,1.007080078125
1.1899998999999999,-10.000580787658691,0.4189853072166443,0.6057330369949341,5.5694580078125,2.86865234375,-1.4190673828125
1.2099999,-10.014945983886719,0.35913026332855225,0.45010992884635925,11.627197265625,-0.3814697265625,-1.9073486328125
1.2299999,-10.02452278137207,0.272938996553421,0.3280056416988373,13.641357421875,-2.3040771484375,-0.5645751953125
1.2499999,-10.046070098876953,0.1628057211637497,0.2513911724090576,14.1754150390625,-3.3416748046875,0.3204345703125
1.2699999,-10.04846477508545,0.0694318488240242,0.2322375625371933,17.578125,-5.43212890625,1.4190673828125
1.2899999,-9.90241813659668,0.08379705995321274,0.31124621629714966,20.1416015625,-8.1024169921875,2.9144287109375
1.3099999,-9.888052940368652,0.2059013396501541,0.5099649429321289,12.0391845703125,-7.4615478515625,3.9825439453125
1.3299999,-9.859322547912598,0.3711012601852417,0.7398083209991455,1.068115234375,-4.8828125,-2.685546875
1.3499999,-9.876082420349121,0.5841852426528931,1.0414776802062988,-3.2501220703125,-1.373291015625,-0.091552734375
1.3699999,-9.976638793945312,0.751779317855835,1.2617442607879639,-6.439208984375,0.244140625,2.593994140625
1.3899999,-9.976638793945312,0.7757213711738586,1.3287819623947144,-8.0108642578125,1.373291015625,-2.7923583984375
1.4099999,-9.955090522766113,0.7781155705451965,1.3263877630233765,-3.2806396484375,4.8828125,-4.730224609375
1.4299998999999999,-9.93593692779541,0.6320692300796509,1.2234370708465576,3.2501220703125,4.3487548828125,-5.31005859375
1.4499999,-9.931148529052734,0.4692635238170624,1.0247182846069336,4.608154296875,3.2806396484375,-4.913330078125
1.4699999,-9.931148529052734,0.21547815203666687,0.8140285611152649,3.6468505859375,5.157470703125,-0.640869140625
1.4899999,-9.93593692779541,-0.004788403399288654,0.48602294921875,7.171630859375,6.103515625,2.8839111328125
1.5099999,-9.926360130310059,-0.17477671802043915,0.24420857429504395,13.8092041015625,-1.8463134765625,4.180908203125
1.5299999,-10.002974510192871,-0.19393034279346466,0.0933738648891449,13.7176513671875,-7.7667236328125,6.7596435546875
1.5499999,-10.014945983886719,-0.0933738648891449,0.15083470940589905,6.2103271484375,-10.92529296875,9.58251953125
1.5699999,-10.007762908935547,0.15801730751991272,0.35913026332855225,-0.8697509765625,-9.09423828125,7.5836181640625
1.5899999,-9.962273597717285,0.35673606395721436,0.6272808313369751,-1.0528564453125,-4.8675537109375,4.0740966796875
1.6099999,-9.871294021606445,0.629675030708313,0.9050082564353943,0.091552734375,-4.608154296875,0.7781982421875
1.6299999,-9.888052940368652,0.7781155705451965,1.0558429956436157,-3.2501220703125,-1.983642578125,3.2501220703125
1.6499999,-9.823410034179688,0.9313444495201111,1.2018892765045166,-4.486083984375,0.2288818359375,4.8828125
1.6699999,-9.93593692779541,0.9840168952941895,1.235408067703247,-2.9144287109375,4.150390625,1.8463134765625
1.6899998999999999,-9.897629737854004,1.0079588890075684,1.2401964664459229,0.1373291015625,2.471923828125,-1.3275146484375
1.7099999,-9.96945571899414,0.9002198576927185,1.2282254695892334,1.52587890625,-3.0059814453125,-5.035400390625
1.7299999,-9.940725326538086,0.7829039692878723,1.2186486721038818,1.64794921875,-1.8463134765625,-9.94873046875
1.7499999,-9.921571731567383,0.6057330369949341,1.216254472732544,3.0670166015625,7.171630859375,-6.6070556640625
1.7699999,-9.873687744140625,0.47165772318840027,1.2641384601593018,3.9520263671875,11.3983154296875,-5.2642822265625
1.7899999,-9.782708168029785,0.3926490843296051,1.2952631711959839,-4.5013427734375,14.129638671875,-7.87353515625
1.8099999,-9.852140426635742,0.3208230137825012,1.2473790645599365,-17.2576904296875,14.7247314453125,-2.6397705078125
1.8299999,-9.849745750427246,0.3495534360408783,1.1276689767837524,-18.035888671875,15.289306640625,3.1890869140625
1.8499999,-9.93593692779541,0.3471592366695404,0.9074024558067322,-10.040283203125,10.6353759765625,4.608154296875
1.8699999,-9.964667320251465,0.3064578175544739,0.5913678407669067,-7.26318359375,10.55908203125,-5.5084228515625
1.8899999,-10.031704902648926,0.26575639843940735,0.26575639843940735,-2.288818359375,6.1798095703125,-10.4827880859375
1.9099999,-10.098742485046387,0.22026655077934265,0.014365210197865963,7.7362060546875,2.74658203125,-5.2947998046875
1.9299998999999999,-10.120290756225586,0.16519992053508759,-0.19393034279346466,13.1683349609375,1.1749267578125,-1.0986328125
1.9499999,-10.160991668701172,0.14365209639072418,-0.2849099934101105,7.5836181640625,3.4942626953125,-1.7242431640625
1.9699999,-10.103530883789062,0.1867477297782898,-0.2059013396501541,4.547119140625,-4.974365234375,-0.091552734375
1.9899999,-10.091560363769531,0.19393034279346466,-0.031124621629714966,6.011962890625,-11.9781494140625,1.15966796875
2.0099999,-10.04846477508545,0.2513911724090576,0.49559974670410156,8.9111328125,-4.9591064453125,-2.471923828125
2.0299999,-9.895236015319824,0.28969839215278625,0.7134721279144287,6.0272216796875,-5.3863525390625,-6.927490234375
2.0499999,-9.916783332824707,0.4429273009300232,1.05105459690094,4.9591064453125,-3.2196044921875,-3.3111572265625
2.0699999,-9.765948295593262,0.569819986820221,1.2473790645599365,-6.134033203125,0.9918212890625,-1.5869140625
2.0899999,-9.916783332824707,0.6775590777397156,1.3096283674240112,-17.2119140625,11.6119384765625,-0.91552734375
2.1099999,-9.816226959228516,0.7661445140838623,1.2856862545013428,-10.6964111328125,6.0272216796875,-2.8533935546875
2.1299999,-9.99339771270752,0.6751648783683777,1.0869675874710083,-0.79345703125,-2.3040771484375,-7.8887939453125
2.1499999,-9.911994934082031,0.5578489899635315,0.8978256583213806,2.50244140625,-0.6103515625,-12.481689453125
2.1699999,-9.926360130310059,0.3519476354122162,0.8355764150619507,3.5247802734375,8.72802734375,-8.85009765625
2.1899999,-9.861717224121094,0.1867477297782898,0.8523358106613159,-1.1138916015625,11.993408203125,-9.0484619140625
2.2099999,-9.828198432922363,0.11013327538967133,1.05105459690094,-14.0533447265625,11.505126953125,-6.5460205078125
2.2299999,-9.763554573059082,0.05506663769483566,1.1803414821624756,-35.736083984375,16.2200927734375,-0.8392333984375
2.2499999,-9.883264541625977,0.004788403399288654,1.0678139925003052,-42.96875,23.6358642578125,4.608154296875
2.2699999,-9.947908401489258,-0.12928688526153564,0.730231523513794,-21.5301513671875,14.404296875,4.3487548828125
2.2899999,-10.165780067443848,-0.3495534360408783,0.08858546614646912,2.3040771484375,0.06103515625,-2.74658203125
2.3099999,-10.27591323852539,-0.5913678407669067,-0.689530074596405,19.3023681640625,-4.8828125,-4.425048828125
2.3299999,-10.33098030090332,-0.6775590777397156,-1.1324573755264282,39.8712158203125,-11.90185546875,1.708984375
2.3499999,-10.259154319763184,-0.5267243981361389,-1.2641384601593018,45.5474853515625,-16.571044921875,4.82177734375
2.3699999,-10.134655952453613,-0.19871874153614044,-0.8954314589500427,23.62060546875,-17.242431640625,0.54931640625
2.3899999,-9.962273597717285,0.3232172429561615,-0.19632454216480255,-3.448486328125,-13.885498046875,4.4708251953125
2.4099999,-9.907206535339355,0.6919242739677429,0.569819986820221,-23.0712890625,-10.1165771484375,6.4544677734375
2.4299999,-9.751583099365234,0.933738648891449,1.173158884048462,-27.03857421875,-8.4381103515625,3.7078857421875
2.4499999,-9.861717224121094,0.7541735172271729,1.359906554222107,-19.0887451171875,-10.2996826171875,-3.3721923828125
2.4699999,-9.825803756713867,0.5506663918495178,1.4484920501708984,-7.32421875,-6.317138671875,-3.0364990234375
2.4899999,-9.837775230407715,0.31603461503982544,1.41257905960083,-2.7313232421875,-0.9307861328125,0.0152587890625
2.5099999,-9.888052940368652,0.15083470940589905,1.3838485479354858,-17.425537109375,3.387451171875,-1.739501953125
2.5299999,-9.837775230407715,0.028730420395731926,1.2856862545013428,-21.1181640625,5.035400390625,-0.3509521484375
2.5499999,-9.93593692779541,-0.1149216815829277,0.9744400978088379,-3.265380859375,2.3345947265625,2.410888671875
2.5699999,-9.988609313964844,-0.22505496442317963,0.7158663272857666,19.5159912109375,-3.509521484375,4.6234130859375
2.5899999,-10.070012092590332,-0.20111294090747833,0.38307225704193115,21.087646484375,-6.072998046875,5.950927734375
2.6099999,-10.098742485046387,-0.026336219161748886,0.3519476354122162,13.36669921875,-7.9498291015625,-4.2572021484375
2.6299999,-10.04846477508545,0.26575639843940735,0.5386953949928284,9.796142578125,-6.77490234375,-7.62939453125
2.6499999,-9.888052940368652,0.6823474764823914,0.950498104095459,-0.4425048828125,-0.8392333984375,-6.683349609375
2.6699999,-9.792284965515137,1.0079588890075684,1.5275006294250488,-22.5067138671875,9.1705322265625,-8.9111328125
2.6899999,-9.59596061706543,1.2689268589019775,2.0590133666992188,-48.4619140625,24.5208740234375,-10.1165771484375
2.7099999,-9.612719535827637,1.2401964664459229,2.276885747909546,-60.0433349609375,34.85107421875,-11.322021484375
2.7299999,-9.677363395690918,0.8236053586006165,1.9177556037902832,-51.2237548828125,28.7933349609375,-8.819580078125
2.7499999,-9.931148529052734,-0.047884032130241394,0.8643068075180054,-17.3492431640625,14.0228271484375,-7.3699951171875
2.7699999,-10.189722061157227,-0.9792284965515137,-0.5099649429321289,35.5224609375,-4.119873046875,0.30517578125
2.7899999,-10.438719749450684,-1.699883222579956,-1.7501614093780518,74.493408203125,-21.3165283203125,4.1656494140625
2.8099999,-10.527304649353027,-1.9321208000183105,-2.4636335372924805,77.6214599609375,-30.45654296875,3.8299560546875
2.8299999,-10.441113471984863,-1.6328455209732056,-2.3774423599243164,65.7958984375,-35.369873046875,4.94384765625
2.8499999,-10.199298858642578,-0.7350199222564697,-1.314416766166687,51.69677734375,-37.322998046875,5.523681640625
2.8699999,-9.904812812805176,0.2082955539226532,0.2059013396501541,8.30078125,-27.9998779296875,10.6964111328125
2.8899999,-9.653421401977539,1.0342950820922852,1.680729627609253,-43.3807373046875,-3.3111572265625,9.6282958984375
2.9099999,-9.552865028381348,1.381454348564148,2.676717519760132,-50.9033203125,0.79345703125,5.7830810546875
2.9299999,-9.636661529541016,1.1683704853057861,2.6886885166168213,-25.81787109375,-7.2174072265625,3.3721923828125
2.9499999,-9.835380554199219,0.5530605912208557,2.054224967956543,11.77978515625,-17.364501953125,5.828857421875
2.9699999,-9.962273597717285,-0.009576806798577309,1.2952631711959839,39.031982421875,-19.47021484375,5.767822265625
2.9899999,-10.017339706420898,-0.2801215946674347,0.8044517636299133,39.3829345703125,-14.862060546875,4.4708251953125
3.0099999,-9.931148529052734,-0.10534487664699554,0.9385270476341248,20.4315185546875,-11.4288330078125,2.1514892578125
3.0299999,-9.765948295593262,0.3758896589279175,1.5897499322891235,-8.7890625,-2.8076171875,0.30517578125
3.0499999,-9.57441234588623,1.0558429956436157,2.583343744277954,-47.8668212890625,10.1165771484375,1.77001953125
3.0699999,-9.490615844726562,1.4317326545715332,3.2345664501190186,-83.0535888671875,33.9813232421875,2.3040771484375
3.0899999,-9.493009567260742,1.4460978507995605,3.24414324760437,-72.235107421875,35.58349609375,-1.15966796875
3.1099999,-9.706093788146973,0.950498104095459,2.363077163696289,-26.1688232421875,20.8282470703125,-5.0201416015625
3.1299999,-9.995792388916016,0.22266076505184174,0.8475474119186401,28.472900390625,2.9144287109375,-7.4005126953125
3.1499999,-10.220847129821777,-0.4884171485900879,-0.6416460275650024,67.7642822265625,-7.87353515625,-7.75146484375
3.1699999,-10.340557098388672,-0.7541735172271729,-1.4437036514282227,78.9337158203125,-16.510009765625,-7.965087890625
3.1899999,-10.230423927307129,-0.6105214357376099,-1.2042834758758545,55.8624267578125,-19.95849609375,-6.072998046875
3.2099999,-10.031704902648926,-0.05985504388809204,-0.019153613597154617,6.1492919921875,-7.62939453125,-2.8839111328125
3.2299999,-9.77791976928711,0.5219359993934631,1.5179238319396973,-44.3115234375,10.467529296875,-0.3204345703125
3.2499999,-9.624691009521484,0.7876923680305481,2.5761611461639404,-65.9332275390625,26.1688232421875,1.64794921875
3.2699999,-9.610325813293457,0.7445967197418213,2.851494312286377,-37.750244140625,18.8751220703125,1.40380859375
3.2899999,-9.763554573059082,0.23942017555236816,2.161964178085327,-1.8310546875,6.5155029296875,-0.457763671875
3.3099999,-9.945513725280762,-0.2753331959247589,1.0821791887283325,26.8707275390625,-0.274658203125,-1.373291015625
3.3299999000000002,-10.101137161254883,-0.586579442024231,0.24899697303771973,39.4134521484375,-2.1820068359375,2.2735595703125
3.3499999,-10.139444351196289,-0.4668693244457245,-0.002394201699644327,24.9176025390625,-2.9296875,1.1749267578125
3.3699999,-10.014945983886719,-0.15562310814857483,0.2801215946674347,-6.8359375,2.899169921875,1.2054443359375
3.3899999,-9.909601211547852,0.4141969084739685,0.9720458984375,-32.40966796875,11.29150390625,1.40380859375
3.4099999,-9.761159896850586,0.7182605266571045,1.5059528350830078,-48.309326171875,17.547607421875,3.90625
3.4299999,-9.773131370544434,0.7541735172271729,1.577778935432434,-41.900634765625,18.2952880859375,4.1046142578125
3.4499999,-9.907206535339355,0.5482721924781799,1.2497732639312744,-13.0767822265625,6.8511962890625,1.7547607421875
3.4699999,-10.019734382629395,0.17238251864910126,0.5315127968788147,12.847900390625,-2.9449462890625,-3.41796875
3.4899999,-10.170568466186523,-0.1149216815829277,-0.12928688526153564,32.3486328125,-5.645751953125,-5.6915283203125
3.5099999,-10.14902114868164,-0.16998831927776337,-0.44771572947502136,40.0543212890625,-9.1705322265625,-5.5389404296875
3.5299999,-10.132261276245117,-0.035913024097681046,-0.2585737705230713,29.510498046875,-10.7269287109375,-8.392333984375
3.5499999,-9.947908401489258,0.22026655077934265,0.40940847992897034,7.8277587890625,-4.7607421875,-7.01904296875
3.5699999,-9.871294021606445,0.49559974670410156,1.335964560508728,-17.486572265625,6.134033203125,-1.983642578125
3.5899999,-9.730035781860352,0.5410895943641663,2.011129379272461,-38.0859375,17.08984375,0.7171630859375
3.6099999,-9.768342971801758,0.4381389021873474,2.212242364883423,-32.379150390625,17.88330078125,-0.0152587890625
3.6299999,-9.787496566772461,0.1149216815829277,1.8315643072128296,-11.0626220703125,9.09423828125,-0.1373291015625
3.6499999,-9.943120002746582,-0.2298433631658554,0.9983820915222168,8.5601806640625,3.3111572265625,-3.4027099609375
3.6699999,-10.050858497619629,-0.49559974670410156,0.18914192914962769,23.956298828125,0.8697509765625,-1.922607421875
3.6899999,-10.122684478759766,-0.5219359993934631,-0.3711012601852417,28.3966064453125,-5.767822265625,-1.7547607421875
3.7099999,-10.146626472473145,-0.3734954595565796,-0.4213795065879822,17.730712890625,-8.48388671875,-1.64794921875
3.7299999,-10.062829971313477,-0.08858546614646912,-0.014365210197865963,-0.640869140625,-4.2572021484375,0.1373291015625
3.7499999,-10.002974510192871,0.17477671802043915,0.5913678407669067,-20.6146240234375,2.3193359375,5.06591796875
3.7699999,-9.914389610290527,0.2849099934101105,1.015141487121582,-26.092529296875,4.57763671875,5.126953125
3.7899999,-9.995792388916016,0.22505496442317963,1.1540051698684692,-10.80322265625,-1.312255859375,4.8370361328125
3.8099999,-9.945513725280762,0.05027823522686958,0.8786720037460327,8.636474609375,-9.918212890625,1.28173828125
3.8299999000000002,-10.06043529510498,-0.13168109953403473,0.4213795065879822,25.8941650390625,-9.7503662109375,-0.91552734375
3.8499999,-10.005369186401367,-0.2059013396501541,0.1412578970193863,36.19384765625,-13.4429931640625,-0.091552734375
3.8699999,-10.005369186401367,-0.004788403399288654,0.28969839215278625,25.7415771484375,-15.19775390625,-0.8392333984375
3.8899999,-9.904812812805176,0.21308395266532898,0.7398083209991455,-2.01416015625,-6.7901611328125,0.2899169921875
3.9099999,-9.832986831665039,0.45489832758903503,1.434126853942871,-22.4761962890625,3.662109375,2.105712890625
3.9299999,-9.739612579345703,0.5530605912208557,1.9105730056762695,-27.40478515625,8.23974609375,4.08935546875
3.9499999,-9.773131370544434,0.4429273009300232,1.9560627937316895,-20.08056640625,7.87353515625,4.6539306640625
3.9699999,-9.806650161743164,0.26336219906806946,1.7262194156646729,-4.8828125,2.1209716796875,3.631591796875
3.9899999,-9.909601211547852,0.13168109953403473,1.3239935636520386,2.86865234375,-0.1983642578125,-2.7313232421875
4.0099999,-9.964667320251465,0.035913024097681046,0.9528923034667969,1.8463134765625,6.9580078125,-1.6326904296875
4.029999900000001,-9.90241813659668,0.12928688526153564,0.8738836050033569,-3.1585693359375,6.500244140625,-2.5177001953125
4.0499999,-9.890447616577148,0.2561795711517334,0.9528923034667969,-15.80810546875,8.2855224609375,-3.6468505859375
4.069999900000001,-9.797073364257812,0.3998316824436188,1.2090718746185303,-29.78515625,14.1754150390625,-2.13623046875
4.0899999000000005,-9.761159896850586,0.4668693244457245,1.4437036514282227,-38.1317138671875,20.93505859375,0.0762939453125
4.1099999,-9.80904483795166,0.4213795065879822,1.50355863571167,-36.62109375,23.040771484375,2.62451171875
4.1299999000000005,-9.837775230407715,0.28730419278144836,1.3551181554794312,-32.379150390625,19.7296142578125,4.2724609375
4.1499999,-9.921571731567383,0.17477671802043915,0.9959878921508789,-31.2042236328125,16.9830322265625,1.983642578125
4.1699999000000005,-9.986215591430664,0.08379705995321274,0.5219359993934631,-29.571533203125,13.336181640625,-1.15966796875
4.1899999,-10.074800491333008,-0.040701430290937424,-0.16759411990642548,-21.3470458984375,13.4124755859375,0.9918212890625
4.209999900000001,-10.11550235748291,-0.0694318488240242,-0.47165772318840027,3.631591796875,-2.7618408203125,-4.21142578125
4.2299999,-10.065223693847656,-0.0071826050989329815,-0.545877993106842,3.265380859375,-8.2550048828125,-4.9591064453125
4.249999900000001,-10.139444351196289,-0.10055647045373917,-0.304063618183136,-27.587890625,5.92041015625,1.708984375
4.2699999,-10.010157585144043,-0.05746084079146385,0.1364694982767105,-25.57373046875,5.9661865234375,3.5858154296875
4.289999900000001,-10.06043529510498,-0.24899697303771973,0.33758243918418884,-10.833740234375,2.3040771484375,5.92041015625
4.3099999,-10.11789608001709,-0.5650315880775452,0.10773907601833344,2.3956298828125,-1.434326171875,6.2408447265625
4.329999900000001,-10.101137161254883,-0.6631938815116882,-0.20350714027881622,34.8052978515625,-11.2762451171875,6.561279296875
4.3499999,-10.237606048583984,-0.7182605266571045,-0.49320554733276367,52.7496337890625,-20.7061767578125,7.99560546875
4.369999900000001,-10.218452453613281,-0.28730419278144836,-0.5482721924781799,48.248291015625,-22.796630859375,4.3487548828125
4.3899999,-10.132261276245117,0.1604115068912506,-0.11971008777618408,25.4058837890625,-17.822265625,3.173828125
4.409999900000001,-10.014945983886719,0.6799532771110535,0.31364041566848755,3.1585693359375,-12.2833251953125,-1.7852783203125
4.4299999,-9.919178009033203,0.9576807022094727,0.8858546018600464,8.2550048828125,-11.810302734375,-4.1351318359375
4.449999900000001,-9.785101890563965,0.9744400978088379,1.3096283674240112,17.2119140625,-13.0157470703125,-3.47900390625
4.4699999,-9.742006301879883,0.9816226959228516,1.8602946996688843,6.0272216796875,-5.096435546875,-2.74658203125
4.489999900000001,-9.627084732055664,0.8595184087753296,2.403778553009033,-30.4412841796875,13.702392578125,1.2359619140625
4.5099999,-9.564835548400879,0.6847416758537292,2.63362193107605,-55.2215576171875,27.7557373046875,3.60107421875
4.529999900000001,-9.66299819946289,0.3208230137825012,2.2912509441375732,-38.848876953125,23.2391357421875,4.7607421875
4.5499999,-9.847352027893066,-0.1604115068912506,1.280897855758667,5.9051513671875,9.246826171875,4.7607421875
4.569999900000001,-10.113107681274414,-0.524330198764801,-0.004788403399288654,46.2799072265625,-6.7138671875,2.8228759765625
4.5899999000000005,-10.307038307189941,-0.5506663918495178,-1.0079588890075684,58.8836669921875,-14.862060546875,0.2899169921875
4.609999900000001,-10.311826705932617,-0.24181437492370605,-1.3431471586227417,46.8292236328125,-18.98193359375,-4.180908203125
4.6299999000000005,-10.278307914733887,0.3711012601852417,-0.9672574996948242,29.60205078125,-19.3328857421875,-7.232666015625
4.6499999,-10.02452278137207,0.9289502501487732,0.0933738648891449,6.2408447265625,-14.0838623046875,-7.843017578125
4.6699999000000005,-9.828198432922363,1.235408067703247,1.338358759880066,-28.8238525390625,0.6866455078125,-8.85009765625
4.6899999,-9.591172218322754,1.2090718746185303,2.4851813316345215,-54.99267578125,18.9361572265625,-4.57763671875
4.709999900000001,-9.50498104095459,0.7038952708244324,2.9065608978271484,-56.915283203125,27.069091796875,3.631591796875
4.7299999,-9.63187313079834,0.002394201699644327,2.47560453414917,-31.6009521484375,20.8282470703125,7.8125
4.749999900000001,-9.816226959228516,-0.7709329724311829,1.3096283674240112,10.4827880859375,6.988525390625,8.6822509765625
4.7699999,-10.096348762512207,-1.1252747774124146,-0.035913024097681046,49.3011474609375,-6.6070556640625,8.1634521484375
4.789999900000001,-10.259154319763184,-1.01753568649292,-1.05105459690094,60.2569580078125,-14.70947265625,6.7596435546875
4.8099999,-10.27591323852539,-0.3998316824436188,-1.3263877630233765,45.6390380859375,-18.402099609375,1.1749267578125
4.829999900000001,-10.228029251098633,0.5722141861915588,-0.7613561153411865,20.8282470703125,-15.5181884765625,-4.8370361328125
4.8499999,-9.99339771270752,1.4628572463989258,0.4189853072166443,-13.5650634765625,-9.58251953125,-8.758544921875
4.869999900000001,-9.765948295593262,1.8698714971542358,1.6974890232086182,-50.7965087890625,10.7421875,-12.237548828125
4.8899999,-9.5624418258667,1.7094600200653076,2.5737667083740234,-64.544677734375,25.4669189453125,-8.209228515625
4.909999900000001,-9.564835548400879,0.8571242094039917,2.5737667083740234,-45.7305908203125,24.871826171875,1.6937255859375
4.9299999,-9.744400978088379,-0.2561795711517334,1.7334020137786865,-0.8392333984375,10.43701171875,7.4310302734375
4.949999900000001,-9.995792388916016,-1.194706678390503,0.363918662071228,42.8619384765625,-5.340576171875,8.1634521484375
4.9699999,-10.278307914733887,-1.5490485429763794,-0.7948749661445618,71.4569091796875,-16.3116455078125,6.1187744140625
4.989999900000001,-10.304644584655762,-1.1252747774124146,-1.314416766166687,66.3299560546875,-21.209716796875,5.2337646484375
5.0099999,-10.249577522277832,-0.17717093229293823,-1.0582371950149536,35.09521484375,-18.98193359375,-0.2288818359375
5.029999900000001,-10.0580415725708,0.9983820915222168,0.038307227194309235,-0.946044921875,-11.8865966796875,-6.4849853515625
5.0499999,-9.768342971801758,1.9512743949890137,1.41257905960083,-41.2750244140625,-0.274658203125,-8.087158203125
5.069999900000001,-9.591172218322754,2.2170307636260986,2.540247917175293,-73.516845703125,21.0113525390625,-11.962890625
5.0899999000000005,-9.502586364746094,1.7621324062347412,2.985569477081299,-73.5626220703125,30.0750732421875,-8.331298828125
5.109999900000001,-9.627084732055664,0.6751648783683777,2.4372973442077637,-37.9180908203125,23.86474609375,2.1820068359375
5.1299999000000005,-9.911994934082031,-0.6177040338516235,1.1683704853057861,12.0697021484375,7.1563720703125,8.026123046875
5.1499999,-10.15141487121582,-1.5322890281677246,-0.36152446269989014,52.9632568359375,-9.5367431640625,7.26318359375
5.1699999000000005,-10.362105369567871,-1.6687586307525635,-1.400607943534851,74.5086669921875,-18.9361572265625,5.279541015625
5.1899999,-10.302249908447266,-1.070208191871643,-1.6280571222305298,61.767578125,-22.9949951171875,3.9520263671875
5.209999900000001,-10.146626472473145,0.06464344263076782,-0.8738836050033569,25.6805419921875,-18.2342529296875,-2.2735595703125
5.2299999,-9.950302124023438,1.2186486721038818,0.5339069962501526,-24.10888671875,-4.3487548828125,-5.7373046875
5.249999900000001,-9.655815124511719,1.9991583824157715,2.006340980529785,-67.0623779296875,12.1307373046875,-6.317138671875
5.2699999,-9.552865028381348,2.0446481704711914,2.96162748336792,-84.3963623046875,27.679443359375,-8.514404296875
5.289999900000001,-9.495404243469238,1.381454348564148,2.9328970909118652,-67.352294921875,31.341552734375,-2.7313232421875
5.3099999,-9.68933391571045,0.2513911724090576,1.9943699836730957,-21.3775634765625,21.3165283203125,4.486083984375
5.329999900000001,-9.864110946655273,-0.7398083209991455,0.7876923680305481,24.4903564453125,3.753662109375,9.307861328125
5.3499999,-10.113107681274414,-1.1899182796478271,-0.2753331959247589,30.09033203125,-4.5623779296875,9.8876953125
5.369999900000001,-10.278307914733887,-0.9864110946655273,-0.912190854549408,4.9591064453125,-0.6103515625,4.364013671875
5.3899999,-10.24000072479248,-0.2825157940387726,-0.9313444495201111,-3.3721923828125,-3.265380859375,2.166748046875
5.409999900000001,-10.254365921020508,0.33518823981285095,-0.751779317855835,1.2969970703125,-14.3280029296875,-8.148193359375
5.4299999,-10.074800491333008,0.8738836050033569,-0.0933738648891449,5.5084228515625,-15.5792236328125,-12.3138427734375
5.449999900000001,-9.947908401489258,0.8475474119186401,0.6368576288223267,-12.237548828125,-1.2359619140625,-6.561279296875
5.4699999,-9.835380554199219,0.5171475410461426,1.278503656387329,-21.1029052734375,6.317138671875,-1.3275146484375
5.489999900000001,-9.797073364257812,-0.031124621629714966,1.5418659448623657,-0.54931640625,7.3089599609375,3.0670166015625
5.5099999,-9.895236015319824,-0.6560112833976746,1.1803414821624756,25.6500244140625,2.5634765625,7.8582763671875
5.529999900000001,-10.002974510192871,-0.9361328482627869,0.5650315880775452,53.8177490234375,-5.889892578125,6.866455078125
5.5499999,-10.144232749938965,-0.7829039692878723,-0.011971008032560349,73.486328125,-13.9617919921875,7.0648193359375
5.569999900000001,-10.134655952453613,-0.24420857429504395,-0.2106897532939911,62.80517578125,-19.0277099609375,3.3721923828125
5.5899999000000005,-10.125079154968262,0.5841852426528931,0.028730420395731926,27.89306640625,-13.5650634765625,-2.7923583984375
5.609999900000001,-9.971850395202637,1.2856862545013428,0.586579442024231,-10.5133056640625,-4.2724609375,-5.645751953125
5.6299999000000005,-9.840168952941895,1.699883222579956,1.1180921792984009,-27.435302734375,-1.6937255859375,-9.0789794921875
5.6499999,-9.763554573059082,1.6089035272598267,1.6112977266311646,-23.651123046875,-0.152587890625,-13.4429931640625
5.6699999000000005,-9.742006301879883,1.0007762908935547,1.7741034030914307,-14.434814453125,5.55419921875,-11.871337890625
5.6899999,-9.6989107131958,0.3734954595565796,1.9919757843017578,-2.4566650390625,10.2996826171875,-3.570556640625
5.709999900000001,-9.734824180603027,-0.31124621629714966,1.9393033981323242,-8.85009765625,16.693115234375,2.899169921875
5.7299999,-9.782708168029785,-0.7182605266571045,1.5705963373184204,-13.9923095703125,22.7203369140625,4.852294921875
5.749999900000001,-9.904812812805176,-0.8643068075180054,0.8738836050033569,10.3607177734375,11.2457275390625,6.40869140625
5.7699999,-10.093954086303711,-0.7613561153411865,-0.09816227108240128,40.71044921875,-5.9814453125,3.84521484375
5.789999900000001,-10.271124839782715,-0.45010992884635925,-0.912190854549408,54.1839599609375,-17.9290771484375,-1.953125
5.8099999,-10.316615104675293,0.023942016065120697,-1.1061211824417114,45.867919921875,-20.5841064453125,-5.279541015625
5.829999900000001,-10.247182846069336,0.629675030708313,-0.608127236366272,21.1944580078125,-16.5557861328125,-6.622314453125
5.8499999,-10.031704902648926,1.0534487962722778,0.4118026793003082,-8.453369140625,-8.4381103515625,-9.1705322265625
5.869999900000001,-9.543288230895996,1.3072341680526733,2.7892448902130127,-56.7779541015625,21.30126953125,-6.072998046875
5.8899999,-9.473855972290039,0.8810662031173706,3.1244332790374756,-71.6094970703125,36.1785888671875,-0.67138671875
5.909999900000001,-9.555258750915527,0.1412578970193863,2.5761611461639404,-48.88916015625,35.2325439453125,4.39453125
5.9299999,-9.832986831665039,-0.6153098344802856,1.1348515748977661,-0.1068115234375,16.387939453125,6.561279296875
5.949999900000001,-10.160991668701172,-1.2066776752471924,-0.629675030708313,46.3409423828125,-5.7373046875,5.3863525390625
5.9699999,-10.395624160766602,-1.1348515748977661,-1.9321208000183105,68.8018798828125,-22.1710205078125,1.03759765625
5.989999900000001,-10.453084945678711,-0.7254431247711182,-2.298433542251587,56.5185546875,-27.4200439453125,-1.89208984375
6.0099999,-10.295066833496094,0.12689268589019775,-1.6184803247451782,24.200439453125,-24.23095703125,-6.2255859375
6.029999900000001,-10.065223693847656,0.8020575642585754,-0.2346317619085312,-7.8125,-16.78466796875,-8.11767578125
6.0499999,-9.75397777557373,1.2497732639312744,1.4293384552001953,-33.2489013671875,-1.7852783203125,-6.866455078125
6.069999900000001,-9.552865028381348,1.2258312702178955,2.7557260990142822,-57.6019287109375,17.6544189453125,-3.7384033203125
6.0899999000000005,-9.469067573547363,0.6991068720817566,3.1938650608062744,-65.49072265625,29.35791015625,3.4942626953125
6.109999900000001,-9.670180320739746,-0.05985504388809204,2.6192567348480225,-32.440185546875,25.0396728515625,9.0179443359375
6.1299999000000005,-9.883264541625977,-0.8451532125473022,1.1037269830703735,21.8048095703125,2.1209716796875,9.490966796875
6.149999900000001,-10.256759643554688,-1.2210428714752197,-0.5889736413955688,66.314697265625,-17.791748046875,5.6304931640625
6.1699999000000005,-10.395624160766602,-1.0247182846069336,-1.6424223184585571,74.4781494140625,-29.4647216796875,1.9989013671875
6.1899999,-10.366893768310547,-0.3208230137825012,-1.6735470294952393,44.8760986328125,-27.28271484375,-1.40380859375
6.209999900000001,-10.160991668701172,0.7086837291717529,-0.5363011956214905,4.974365234375,-18.707275390625,-5.3253173828125
6.2299999,-9.816226959228516,1.4891934394836426,1.1348515748977661,-42.0684814453125,-4.425048828125,-9.1552734375
6.249999900000001,-9.557653427124023,1.8052281141281128,2.6192567348480225,-77.3773193359375,20.5535888671875,-11.1846923828125
6.2699999,-9.375694274902344,1.4772224426269531,3.380612850189209,-75.927734375,30.609130859375,-5.950927734375
6.289999900000001,-9.473855972290039,0.4812345504760742,2.8802247047424316,-44.98291015625,28.106689453125,2.288818359375
6.3099999,-9.761159896850586,-0.6512228846549988,1.522712230682373,8.697509765625,12.8936767578125,7.5836181640625
6.329999900000001,-10.067618370056152,-1.5442601442337036,-0.2561795711517334,57.18994140625,-10.6658935546875,10.6201171875
6.3499999,-10.383652687072754,-1.7812861204147339,-1.6424223184585571,78.948974609375,-24.8565673828125,6.9122314453125
6.369999900000001,-10.402806282043457,-1.2665326595306396,-2.161964178085327,69.88525390625,-29.9530029296875,3.0975341796875
6.3899999,-10.323798179626465,-0.2968810200691223,-1.7118542194366455,38.9862060546875,-28.656005859375,-0.6866455078125
6.409999900000001,-10.050858497619629,0.993593692779541,-0.1628057211637497,2.7923583984375,-26.458740234375,-5.31005859375
6.4299999,-9.696516990661621,1.886630892753601,1.6855180263519287,-50.0335693359375,-6.439208984375,-7.9193115234375
6.449999900000001,-9.44991397857666,2.212242364883423,3.378218650817871,-95.2606201171875,26.123046875,-12.20703125
6.4699999,-9.299078941345215,1.6663644313812256,4.046200752258301,-96.893310546875,39.642333984375,-5.06591796875
6.489999900000001,-9.418789863586426,0.47884035110473633,3.315969467163086,-52.978515625,32.0281982421875,6.4544677734375
6.5099999,-9.780313491821289,-0.9289502501487732,1.4867992401123047,16.357421875,10.80322265625,10.1318359375
6.529999900000001,-10.14902114868164,-1.8770540952682495,-0.6392518281936646,78.1097412109375,-16.387939453125,13.214111328125
6.5499999,-10.484209060668945,-1.965639591217041,-2.1595699787139893,98.1292724609375,-34.0576171875,7.415771484375
6.569999900000001,-10.508151054382324,-1.1659762859344482,-2.4851813316345215,77.1484375,-35.5987548828125,1.6937255859375
6.5899999000000005,-10.319009780883789,0.14844051003456116,-1.6711528301239014,31.6619873046875,-29.510498046875,-2.01416015625
6.609999900000001,-9.986215591430664,1.558625340461731,0.31364041566848755,-17.9443359375,-21.7437744140625,-9.1094970703125
6.6299999000000005,-9.548076629638672,2.5306711196899414,2.3343467712402344,-75.98876953125,-1.922607421875,-12.664794921875
6.649999900000001,-9.346963882446289,2.4827871322631836,3.845088005065918,-109.86328125,30.4412841796875,-13.5040283203125
6.6699999000000005,-9.241618156433105,1.6855180263519287,4.290409564971924,-88.7451171875,35.400390625,-8.392333984375
6.6899999,-9.406818389892578,0.1604115068912506,3.2992098331451416,-43.02978515625,28.6102294921875,5.3863525390625
6.709999900000001,-9.773131370544434,-1.3910311460494995,1.482010841369629,11.7645263671875,12.87841796875,11.1541748046875
6.7299999,-10.086771965026855,-2.2361843585968018,-0.2298433631658554,58.868408203125,-7.7972412109375,12.8936767578125
6.749999900000001,-10.362105369567871,-2.188300371170044,-1.4221558570861816,63.2781982421875,-19.500732421875,13.5498046875
6.7699999,-10.400412559509277,-1.3646949529647827,-1.6208745241165161,37.9638671875,-20.8740234375,5.3558349609375
6.789999900000001,-10.251971244812012,-0.11971008777618408,-0.9576807022094727,10.8795166015625,-16.510009765625,0.885009765625
6.8099999,-10.014945983886719,0.9840168952941895,0.1388636976480484,-14.2669677734375,-12.4969482421875,-1.8768310546875
6.829999900000001,-9.787496566772461,1.7190368175506592,1.5155296325683594,-37.65869140625,-6.2713623046875,-6.195068359375
6.8499999,-9.59596061706543,1.8794482946395874,2.6455929279327393,-68.05419921875,10.3912353515625,-6.04248046875
6.869999900000001,-9.557653427124023,1.3862427473068237,2.9903578758239746,-82.03125,25.4058837890625,-2.50244140625
6.8899999,-9.622296333312988,0.4429273009300232,2.7222073078155518,-45.166015625,19.6533203125,3.631591796875
6.909999900000001,-9.773131370544434,-0.6847416758537292,1.556231141090393,9.9945068359375,6.7138671875,8.453369140625
6.9299999,-9.971850395202637,-1.4484920501708984,0.47405192255973816,52.9327392578125,-3.631591796875,11.29150390625
6.949999900000001,-10.192116737365723,-1.5107412338256836,-0.24660277366638184,55.72509765625,-10.1776123046875,12.5579833984375
6.9699999,-10.165780067443848,-0.9169792532920837,-0.3280056416988373,16.5252685546875,-4.4708251953125,8.9263916015625
6.989999900000001,-10.20887565612793,0.05985504388809204,-0.07182604819536209,-7.3699951171875,-1.556396484375,0.4730224609375
7.0099999,-10.02691650390625,0.8523358106613159,0.35434186458587646,-9.735107421875,-4.4708251953125,-5.5694580078125
7.029999900000001,-9.919178009033203,1.3215993642807007,0.8643068075180054,0.5645751953125,-8.1939697265625,-9.09423828125
7.0499999,-9.787496566772461,1.2018892765045166,1.3455413579940796,0.4730224609375,-4.974365234375,-11.7340087890625
7.069999900000001,-9.603142738342285,0.8523358106613159,2.1475989818573,-9.3841552734375,8.9569091796875,-8.1024169921875
7.0899999000000005,-9.583989143371582,0.33279404044151306,2.6144683361053467,-32.2418212890625,27.3895263671875,1.922607421875
7.109999900000001,-9.624691009521484,-0.26336219906806946,2.4851813316345215,-43.1365966796875,34.1339111328125,10.1776123046875
7.1299999000000005,-9.818621635437012,-0.6607996821403503,1.6304513216018677,-8.5601806640625,17.364501953125,10.4522705078125
7.149999900000001,-10.160991668701172,-0.828393816947937,0.24660277366638184,36.3006591796875,-3.0059814453125,8.4228515625
7.1699999000000005,-10.342951774597168,-0.608127236366272,-0.9457096457481384,51.025390625,-16.937255859375,3.082275390625
7.1899999,-10.390835762023926,-0.05027823522686958,-1.41257905960083,34.4085693359375,-22.216796875,-2.960205078125
7.209999900000001,-10.27591323852539,0.5937620401382446,-1.05105459690094,11.0626220703125,-19.10400390625,-8.544921875
7.2299999,-9.998186111450195,1.0271124839782715,0.12928688526153564,-4.5928955078125,-16.8609619140625,-10.6048583984375
7.249999900000001,-9.691728591918945,1.115697979927063,1.623268723487854,-27.7557373046875,-1.708984375,-8.2244873046875
7.2699999,-9.490615844726562,0.7445967197418213,2.7892448902130127,-53.8177490234375,24.8260498046875,-1.15966796875
7.289999900000001,-9.44752025604248,0.1628057211637497,3.117250680923462,-48.6297607421875,34.7137451171875,9.8114013671875
7.3099999,-9.639056205749512,-0.4908113479614258,2.4157495498657227,-4.21142578125,17.4102783203125,13.0615234375
7.329999900000001,-9.983820915222168,-0.8571242094039917,0.8571242094039917,40.191650390625,-5.279541015625,9.8724365234375
7.3499999,-10.261548042297363,-0.646434485912323,-0.5099649429321289,55.96923828125,-17.303466796875,2.8533935546875
7.369999900000001,-10.38844108581543,-0.05027823522686958,-1.2641384601593018,39.4287109375,-22.003173828125,-5.4168701171875
7.3899999,-10.335768699645996,0.6727706789970398,-1.115697979927063,17.1051025390625,-19.256591796875,-12.7105712890625
7.409999900000001,-10.089165687561035,1.3311761617660522,0.035913024097681046,2.960205078125,-16.8914794921875,-14.1143798828125
7.4299999,-9.734824180603027,1.3934253454208374,1.5538369417190552,-33.660888671875,-2.3956298828125,-14.0533447265625
7.449999900000001,-9.557653427124023,0.9983820915222168,2.691082715988159,-64.239501953125,27.0538330078125,-7.9193115234375
7.4699999,-9.466673851013184,0.09576806426048279,2.9305028915405273,-47.36328125,32.5927734375,6.0272216796875
7.489999900000001,-9.684545516967773,-0.9002198576927185,1.9704279899597168,11.0931396484375,8.5601806640625,12.969970703125
7.5099999,-10.031704902648926,-1.577778935432434,0.28730419278144836,65.9027099609375,-18.890380859375,9.979248046875
7.529999900000001,-10.316615104675293,-1.45806884765625,-1.0773907899856567,86.5631103515625,-29.937744140625,4.9591064453125
7.5499999,-10.359710693359375,-0.6344634294509888,-1.403002142906189,64.94140625,-32.501220703125,0.732421875
7.569999900000001,-10.199298858642578,0.646434485912323,-0.4596867263317108,17.8375244140625,-23.193359375,-6.7291259765625
7.5899999000000005,-9.773131370544434,1.9153614044189453,1.5682021379470825,-42.5262451171875,-4.1961669921875,-10.9100341796875
7.609999900000001,-9.390059471130371,2.365471363067627,3.471592426300049,-106.689453125,31.2042236328125,-16.632080078125
7.6299999000000005,-9.255983352661133,1.9608511924743652,4.230554580688477,-111.0687255859375,55.23681640625,-9.8724365234375
7.649999900000001,-9.354146003723145,0.6655880808830261,3.378218650817871,-40.771484375,37.59765625,6.195068359375
7.6699999000000005,-9.861717224121094,-0.9409212470054626,1.0749965906143188,51.544189453125,0.030517578125,8.270263671875
7.6899999,-10.27591323852539,-2.03507137298584,-1.4173674583435059,113.433837890625,-31.768798828125,4.5928955078125
7.709999900000001,-10.553641319274902,-2.051830768585205,-2.7964274883270264,123.9013671875,-42.41943359375,2.8839111328125
7.7299999,-10.469843864440918,-1.1324573755264282,-2.5665841102600098,79.6661376953125,-37.322998046875,0.762939453125
7.749999900000001,-10.098742485046387,0.4812345504760742,-0.706289529800415,12.39013671875,-21.453857421875,-3.631591796875
7.7699999,-9.583989143371582,1.8531121015548706,1.9488801956176758,-64.971923828125,1.28173828125,-6.7138671875
7.789999900000001,-9.14345645904541,2.5282769203186035,4.225766181945801,-127.9754638671875,34.5306396484375,-10.6201171875
7.8099999,-9.10993766784668,2.027888774871826,4.910507678985596,-127.3193359375,59.0972900390625,-1.0833740234375
7.829999900000001,-9.311050415039062,0.7398083209991455,3.794809579849243,-53.955078125,40.3289794921875,11.4593505859375
7.8499999,-9.873687744140625,-0.8834604024887085,1.2018892765045166,40.52734375,-1.4801025390625,12.2833251953125
7.869999900000001,-10.359710693359375,-1.9105730056762695,-1.4748282432556152,101.1810302734375,-31.890869140625,7.293701171875
7.8899999,-10.56800651550293,-1.9057846069335938,-2.942473888397217,110.6414794921875,-41.56494140625,6.40869140625
7.909999900000001,-10.486603736877441,-0.9265560507774353,-2.58813214302063,66.375732421875,-36.895751953125,2.6092529296875
7.9299999,-10.113107681274414,0.7038952708244324,-0.5482721924781799,-2.3040771484375,-19.8974609375,-3.4027099609375
7.949999900000001,-9.516951560974121,2.0422539710998535,2.2601263523101807,-81.1614990234375,8.7127685546875,-6.6375732421875
7.9699999,-9.181763648986816,2.5665841102600098,4.402936935424805,-134.429931640625,45.3948974609375,-11.383056640625
7.989999900000001,-9.05247688293457,1.8794482946395874,4.817133903503418,-115.631103515625,59.417724609375,0.3662109375
8.0099999,-9.337387084960938,0.3711012601852417,3.3207578659057617,-35.125732421875,31.4178466796875,14.6484375
8.0299999,-9.86650562286377,-1.2521674633026123,0.5602431893348694,50.3692626953125,-7.598876953125,16.2353515625
8.049999900000001,-10.369287490844727,-2.0614075660705566,-2.0015525817871094,101.1810302734375,-32.65380859375,12.3138427734375
8.069999900000001,-10.553641319274902,-1.6950948238372803,-3.00711727142334,100.189208984375,-41.229248046875,7.4615478515625
8.0899999,-10.457873344421387,-0.40940847992897034,-2.31758713722229,44.0521240234375,-32.073974609375,-0.823974609375
8.1099999,-10.11789608001709,1.3527239561080933,-0.05746084079146385,-25.115966796875,-10.07080078125,-7.7972412109375
8.129999900000001,-9.564835548400879,2.4660277366638184,2.4875755310058594,-90.484619140625,15.2130126953125,-13.12255859375
8.149999900000001,-9.315838813781738,2.5546131134033203,4.10366153717041,-114.2425537109375,42.7093505859375,-15.19775390625
8.1699999,-9.232041358947754,1.5610195398330688,4.170699596405029,-74.6917724609375,42.7398681640625,-1.52587890625
8.1899999,-9.495404243469238,-0.07182604819536209,2.628833532333374,-5.340576171875,21.78955078125,12.63427734375
8.2099999,-9.928754806518555,-1.45806884765625,0.4165911078453064,57.373046875,-6.8206787109375,12.6800537109375
8.229999900000001,-10.290278434753418,-1.9369091987609863,-1.4724340438842773,85.3118896484375,-27.16064453125,6.7291259765625
8.2499999,-10.414777755737305,-1.2952631711959839,-2.1068975925445557,70.25146484375,-28.01513671875,4.08935546875
8.2699999,-10.333374977111816,-0.035913024097681046,-1.5418659448623657,21.697998046875,-21.1639404296875,-4.7149658203125
8.2899999,-10.101137161254883,1.280897855758667,-0.019153613597154617,-22.0947265625,-10.2996826171875,-15.4876708984375
8.309999900000001,-9.725247383117676,2.0159177780151367,1.8746598958969116,-55.0079345703125,1.129150390625,-13.5650634765625
8.3299999,-9.514557838439941,1.8291701078414917,3.0813376903533936,-77.63671875,24.71923828125,-10.7421875
8.3499999,-9.421183586120605,0.8858546018600464,3.4117374420166016,-61.8133544921875,32.77587890625,-2.899169921875
8.3699999,-9.564835548400879,-0.3711012601852417,2.5330653190612793,-16.448974609375,19.805908203125,9.5062255859375
8.389999900000001,-9.919178009033203,-1.4389152526855469,0.993593692779541,31.097412109375,-0.42724609375,12.8021240234375
8.4099999,-10.180145263671875,-1.7956513166427612,-0.5410895943641663,58.6090087890625,-18.4783935546875,9.5367431640625
8.4299999,-10.342951774597168,-1.3072341680526733,-1.2521674633026123,61.5081787109375,-21.91162109375,4.3792724609375
8.4499999,-10.251971244812012,-0.3016694188117981,-0.9648633003234863,29.2816162109375,-18.585205078125,-0.42724609375
8.469999900000001,-10.0580415725708,0.8882488012313843,0.12928688526153564,-16.4642333984375,-8.026123046875,-6.16455078125
8.4899999,-9.780313491821289,1.8171991109848022,1.7046716213226318,-52.703857421875,4.0740966796875,-6.6375732421875
8.5099999,-9.552865028381348,1.9177556037902832,2.80361008644104,-78.79638671875,22.0489501953125,-10.284423828125
8.5299999,-9.50737476348877,1.3646949529647827,3.205836057662964,-68.023681640625,31.1737060546875,-10.31494140625
8.549999900000001,-9.543288230895996,0.2346317619085312,2.542642116546631,-30.2734375,22.15576171875,6.195068359375
8.569999900000001,-9.832986831665039,-1.015141487121582,1.1276689767837524,15.0909423828125,8.8653564453125,13.48876953125
8.5899999,-10.129867553710938,-1.7597382068634033,-0.3974374830722809,55.6488037109375,-11.566162109375,12.51220703125
8.6099999,-10.359710693359375,-1.6974890232086182,-1.5155296325683594,67.1234130859375,-25.115966796875,9.2926025390625
8.629999900000001,-10.381258964538574,-0.9169792532920837,-1.6735470294952393,52.642822265625,-27.28271484375,4.241943359375
8.649999900000001,-10.230423927307129,0.20350714027881622,-0.8930372595787048,19.0582275390625,-22.5830078125,-1.495361328125
8.6699999,-9.931148529052734,1.3287819623947144,0.689530074596405,-17.0135498046875,-12.5732421875,-8.544921875
8.6899999,-9.607931137084961,2.0254945755004883,2.52109432220459,-59.722900390625,5.5694580078125,-7.38525390625
8.709999900000001,-9.363722801208496,1.920149803161621,3.6152446269989014,-94.5281982421875,32.2113037109375,-8.9569091796875
8.729999900000001,-9.363722801208496,1.213860273361206,3.778050184249878,-73.66943359375,37.7197265625,-6.591796875
8.7499999,-9.531316757202148,-0.038307227194309235,2.6455929279327393,-19.4244384765625,22.8424072265625,5.7220458984375
8.7699999,-9.9000244140625,-1.2737152576446533,0.7757213711738586,34.8663330078125,4.2877197265625,8.941650390625
8.7899999,-10.256759643554688,-1.843535304069519,-0.811634361743927,78.3538818359375,-15.5029296875,10.6048583984375
8.809999900000001,-10.376470565795898,-1.479616641998291,-1.5945383310317993,72.723388671875,-25.238037109375,6.6375732421875
8.8299999,-10.398017883300781,-0.4812345504760742,-1.37906014919281,30.6396484375,-17.1661376953125,-2.532958984375
8.8499999,-10.165780067443848,0.727837324142456,-0.35913026332855225,-9.002685546875,-9.0179443359375,-8.48388671875
8.8699999,-9.892841339111328,1.5059528350830078,0.8810662031173706,-30.7464599609375,-6.0272216796875,-13.48876953125
8.889999900000001,-9.725247383117676,1.656787633895874,1.9776105880737305,-34.85107421875,0.48828125,-12.176513671875
8.9099999,-9.583989143371582,1.0414776802062988,2.5091233253479004,-37.078857421875,9.70458984375,-6.8817138671875
8.9299999,-9.684545516967773,0.07661445438861847,2.3942017555236816,-25.5126953125,15.0909423828125,-2.288818359375
8.9499999,-9.768342971801758,-0.9169792532920837,1.723825216293335,12.3138427734375,6.34765625,8.9569091796875
8.969999900000001,-9.964667320251465,-1.5131354331970215,0.7852981686592102,42.999267578125,-4.9285888671875,13.336181640625
8.9899999,-10.036493301391602,-1.2976573705673218,0.22744916379451752,47.943115234375,-10.1776123046875,9.33837890625
9.0099999,-10.113107681274414,-0.47405192255973816,0.2346317619085312,12.20703125,-7.843017578125,5.889892578125
9.0299999,-10.038887977600098,0.5602431893348694,0.5434837937355042,-33.75244140625,-0.2899169921875,-1.28173828125
9.049999900000001,-10.02691650390625,1.316810965538025,0.8858546018600464,-46.2493896484375,4.791259765625,-6.6680908203125
9.069999900000001,-9.916783332824707,1.3623007535934448,1.0031704902648926,-28.6865234375,-5.157470703125,-10.43701171875
9.0899999,-9.885659217834473,0.8092401623725891,0.950498104095459,-4.364013671875,-12.3291015625,-10.7879638671875
9.1099999,-9.739612579345703,0.08140286058187485,1.2641384601593018,7.049560546875,-6.65283203125,-3.96728515625
9.129999900000001,-9.667786598205566,-0.5793967843055725,1.699883222579956,-6.2255859375,8.636474609375,4.4403076171875
9.149999900000001,-9.588777542114258,-0.7206547260284424,2.408566951751709,-21.6522216796875,21.2860107421875,8.544921875
9.1699999,-9.488221168518066,-0.3711012601852417,2.7700912952423096,-46.051025390625,30.8990478515625,9.5977783203125
9.1899999,-9.672574996948242,0.021547814831137657,2.432508945465088,-64.361572265625,36.2701416015625,5.8746337890625
9.209999900000001,-9.782708168029785,0.5363011956214905,1.5897499322891235,-42.999267578125,25.20751953125,-1.678466796875
9.229999900000001,-9.95748519897461,0.6991068720817566,0.507570743560791,-16.4794921875,9.6282958984375,-4.94384765625
9.2499999,-10.14902114868164,0.6105214357376099,-0.3902548849582672,-27.77099609375,0.54931640625,-8.1939697265625
9.2699999,-10.091560363769531,0.4357447028160095,-0.21308395266532898,-52.30712890625,2.4871826171875,-0.213623046875
9.2899999,-10.20887565612793,-0.009576806798577309,-0.1149216815829277,-92.8802490234375,18.6309814453125,7.4462890625
9.309999900000001,-10.280701637268066,-0.7972691655158997,-0.4836287498474121,-81.9549560546875,25.421142578125,9.429931640625
9.3299999,-10.362105369567871,-1.5394717454910278,-1.2401964664459229,38.7725830078125,-26.1993408203125,6.7138671875
9.3499999,-10.424354553222656,-1.599326729774475,-1.577778935432434,138.73291015625,-62.286376953125,3.448486328125
9.3699999,-10.046070098876953,-0.7829039692878723,-0.4189853072166443,74.1119384765625,-31.982421875,7.659912109375
9.389999900000001,-9.533711433410645,1.1037269830703735,2.185906171798706,-95.9014892578125,27.5726318359375,2.0751953125
9.4099999,-9.2033109664917,2.4827871322631836,3.6846764087677,-220.9014892578125,80.291748046875,-1.068115234375
9.4299999,-9.339780807495117,2.2888567447662354,2.5665841102600098,-170.8221435546875,60.5621337890625,1.2664794921875
9.4499999,-9.725247383117676,0.6703764796257019,-0.40701428055763245,40.191650390625,-50.445556640625,2.9296875
9.469999900000001,-10.38844108581543,-1.173158884048462,-3.40216064453125,210.0067138671875,-102.3101806640625,-2.2735595703125
9.4899999,-10.093954086303711,-1.4437036514282227,-2.389413356781006,189.7125244140625,-73.638916015625,10.894775390625
9.5099999,-9.703699111938477,-0.016759412363171577,0.524330198764801,-41.473388671875,37.0025634765625,8.2550048828125
9.5299999,-9.126696586608887,1.7573440074920654,3.4739866256713867,-210.7696533203125,103.94287109375,-4.57763671875
9.549999900000001,-9.222464561462402,2.2218191623687744,3.2082302570343018,-132.232666015625,62.3321533203125,-7.4462890625
9.569999900000001,-9.519346237182617,1.3503297567367554,0.49559974670410156,72.6165771484375,-54.19921875,-2.960205078125
9.5899999,-10.093954086303711,0.1628057211637497,-1.8315643072128296,175.628662109375,-95.367431640625,-0.42724609375
9.6099999,-9.84495735168457,0.040701430290937424,-1.2449848651885986,53.1463623046875,-39.154052734375,5.31005859375
9.629999900000001,-9.569623947143555,0.6655880808830261,1.137245774269104,-151.8096923828125,60.5316162109375,0.6256103515625
9.649999900000001,-9.634267807006836,0.40701428055763245,1.8531121015548706,-31.951904296875,18.1427001953125,19.683837890625
9.6699999,-10.065223693847656,-0.33997663855552673,-0.1388636976480484,121.3531494140625,-68.267822265625,15.4266357421875
9.6899999,-10.160991668701172,-0.3208230137825012,-0.7781155705451965,108.5968017578125,-54.9163818359375,-0.1678466796875
9.709999900000001,-9.914389610290527,0.5793967843055725,0.3447650372982025,-65.765380859375,23.86474609375,-9.4146728515625
9.729999900000001,-9.591172218322754,1.1827356815338135,1.7381904125213623,-168.1976318359375,72.8302001953125,-3.84521484375
9.7499999,-9.715670585632324,0.9528923034667969,1.556231141090393,-72.5860595703125,35.0494384765625,20.5078125
9.7699999,-9.832986831665039,0.10055647045373917,0.014365210197865963,86.944580078125,-54.2755126953125,25.20751953125
9.7899999,-10.134655952453613,-0.08379705995321274,-0.9409212470054626,122.8179931640625,-64.544677734375,-1.2664794921875
9.809999900000001,-9.816226959228516,0.730231523513794,0.17717093229293823,-5.9051513671875,-4.82177734375,-14.70947265625
9.8299999,-9.373299598693848,2.013523578643799,2.231395959854126,-178.375244140625,57.1441650390625,-5.3558349609375
9.8499999,-9.567230224609375,1.7956513166427612,2.0661959648132324,-196.5484619140625,74.70703125,21.2249755859375
9.8699999,-9.457097053527832,1.0534487962722778,1.2066776752471924,10.345458984375,-21.9879150390625,20.7366943359375
9.889999900000001,-9.95748519897461,-0.29209262132644653,-0.9816226959228516,129.0740966796875,-77.1026611328125,-0.48828125
9.9099999,-10.170568466186523,-1.2425906658172607,-2.3247697353363037,81.84814453125,-25.665283203125,-14.5263671875
9.9299999,-10.110713958740234,-1.1061211824417114,-1.5514427423477173,86.3189697265625,-8.880615234375,-19.9127197265625
9.9499999,-9.9000244140625,-0.7398083209991455,-0.19153612852096558,106.9183349609375,-14.6026611328125,-21.8505859375
9.969999900000001,-9.81143856048584,-0.3256114423274994,0.993593692779541,66.314697265625,2.9449462890625,-19.989013671875
9.9899999,-9.660603523254395,0.19393034279346466,2.027888774871826,19.7296142578125,16.11328125,-12.054443359375
10.0099999,-9.622296333312988,0.6560112833976746,2.494758129119873,-1.7547607421875,12.1307373046875,-9.429931640625
10.0299999,-9.768342971801758,0.8834604024887085,2.1811177730560303,-5.096435546875,9.368896484375,-9.9334716796875
10.049999900000001,-9.943120002746582,0.8403648138046265,1.5610195398330688,-5.6915283203125,1.5869140625,-7.8277587890625
10.069999900000001,-10.055646896362305,0.5650315880775452,0.9720458984375,-11.260986328125,-8.5296630859375,-0.2288818359375
10.0899999,-10.11550235748291,0.23942017555236816,0.5937620401382446,-20.93505859375,-10.040283203125,6.8817138671875
10.1099999,-10.11789608001709,-0.05985504388809204,0.5003881454467773,-21.9268798828125,-6.561279296875,8.1329345703125
10.129999900000001,-10.036493301391602,-0.14365209639072418,0.6847416758537292,-11.9781494140625,-7.8887939453125,7.7667236328125
10.149999900000001,-9.919178009033203,-0.026336219161748886,1.0055646896362305,-10.040283203125,-8.087158203125,5.31005859375
10.1699999,-9.835380554199219,0.0694318488240242,1.173158884048462,-19.866943359375,-0.0457763671875,-1.3885498046875
10.1899999,-9.799467086791992,0.16519992053508759,1.4437036514282227,-16.387939453125,3.0975341796875,-1.3885498046875
10.209999900000001,-9.57441234588623,0.7469909191131592,2.5665841102600098,-33.416748046875,4.058837890625,9.1552734375
10.229999900000001,-9.394847869873047,1.1851298809051514,3.157952070236206,-146.240234375,45.0439453125,11.0931396484375
10.2499999,-9.612719535827637,1.235408067703247,2.559401512145996,-211.24267578125,72.3419189453125,4.5623779296875
10.2699999,-9.964667320251465,0.40701428055763245,0.2944868206977844,-87.8143310546875,17.6849365234375,14.2822265625
10.2899999,-10.366893768310547,-0.3926490843296051,-2.293645143508911,122.00927734375,-82.5958251953125,11.7034912109375
10.309999900000001,-10.556035041809082,-0.6607996821403503,-2.8874073028564453,181.45751953125,-80.5511474609375,-9.429931640625
10.3299999,-9.895236015319824,0.3232172429561615,-0.5722141861915588,16.6015625,2.2735595703125,-22.2930908203125
10.3499999,-9.313444137573242,1.7070658206939697,2.542642116546631,-183.59375,88.6383056640625,-10.894775390625
10.3699999,-9.210494041442871,1.7262194156646729,3.066972494125366,-193.1304931640625,88.409423828125,13.6566162109375
10.389999900000001,-9.418789863586426,0.6129156351089478,1.2090718746185303,20.6756591796875,-29.5867919921875,23.345947265625
10.4099999,-10.02691650390625,-0.5626373887062073,-1.414973258972168,193.6798095703125,-112.24365234375,7.4310302734375
10.4299999,-10.038887977600098,-0.7469909191131592,-1.7118542194366455,133.575439453125,-47.18017578125,-7.659912109375
10.4499999,-9.890447616577148,-0.13168109953403473,-0.35434186458587646,-32.8369140625,43.15185546875,-18.6767578125
10.469999900000001,-9.5408935546875,0.8236053586006165,1.7693150043487549,-64.4683837890625,49.713134765625,-14.9688720703125
10.4899999,-9.469067573547363,1.036689281463623,2.6001031398773193,-7.568359375,3.3111572265625,9.6893310546875
10.5099999,-9.555258750915527,0.9074024558067322,2.3319525718688965,-20.5841064453125,-3.2196044921875,16.41845703125
10.5299999,-9.861717224121094,0.3878606855869293,1.2306196689605713,-76.446533203125,20.416259765625,4.8828125
10.549999900000001,-10.029311180114746,0.07900865375995636,0.3998316824436188,-31.43310546875,3.143310546875,-0.732421875
10.569999900000001,-10.220847129821777,-0.2944868206977844,-0.4884171485900879,41.290283203125,-24.261474609375,1.1444091796875
10.5899999,-10.283096313476562,-0.4836287498474121,-0.7996633648872375,53.0548095703125,-25.08544921875,-0.396728515625
10.6099999,-10.113107681274414,-0.2849099934101105,-0.21547815203666687,20.08056640625,-16.143798828125,-3.204345703125
10.629999900000001,-9.9000244140625,0.21547815203666687,0.8331822156906128,-4.0435791015625,4.2877197265625,-7.2021484375
10.649999900000001,-9.734824180603027,0.5961562395095825,1.7262194156646729,-1.6021728515625,15.8843994140625,-15.1824951171875
10.6699999,-9.66299819946289,0.7086837291717529,2.1380221843719482,4.39453125,11.71875,-16.3726806640625
10.6899999,-9.72285270690918,0.5123591423034668,1.9967641830444336,1.678466796875,7.354736328125,-9.735107421875
10.709999900000001,-9.849745750427246,0.2082955539226532,1.5705963373184204,-1.434326171875,8.8653564453125,-4.33349609375
10.729999900000001,-9.916783332824707,-0.09576806426048279,1.1827356815338135,2.62451171875,5.279541015625,-1.2054443359375
10.7499999,-9.962273597717285,-0.3998316824436188,0.8595184087753296,6.3629150390625,1.5716552734375,-2.86865234375
10.7699999,-10.002974510192871,-0.6248866319656372,0.7445967197418213,6.5155029296875,2.62451171875,0.1678466796875
10.7899999,-9.983820915222168,-0.6775590777397156,0.6488286852836609,5.2490234375,3.7994384765625,8.7890625
10.809999900000001,-10.043676376342773,-0.6440402865409851,0.5626373887062073,-0.2288818359375,1.800537109375,8.453369140625
10.8299999,-10.062829971313477,-0.42616790533065796,0.4213795065879822,-0.3662109375,-1.5106201171875,1.1749267578125
10.8499999,-10.038887977600098,-0.20111294090747833,0.3280056416988373,7.8125,-4.45556640625,2.62451171875
10.8699999,-9.995792388916016,0.0694318488240242,0.44532153010368347,10.284423828125,-5.615234375,6.7291259765625
10.889999900000001,-9.926360130310059,0.2992752194404602,0.7254431247711182,-0.2593994140625,-3.265380859375,5.7220458984375
10.9099999,-9.880870819091797,0.43335050344467163,0.9528923034667969,-7.476806640625,3.1280517578125,-2.3345947265625
10.9299999,-9.871294021606445,0.48602294921875,1.1803414821624756,3.60107421875,3.4637451171875,-6.0882568359375
10.9499999,-9.873687744140625,0.26336219906806946,1.161187767982483,14.373779296875,2.899169921875,-3.60107421875
10.969999900000001,-9.892841339111328,-0.07661445438861847,1.1085153818130493,26.55029296875,2.6092529296875,-1.6632080078125
10.9899999,-9.916783332824707,-0.3208230137825012,1.0558429956436157,38.8031005859375,1.953125,2.0599365234375
11.0099999,-9.945513725280762,-0.3519476354122162,1.0127472877502441,40.557861328125,4.0130615234375,3.84521484375
11.0299999,-9.971850395202637,-0.011971008032560349,1.0247182846069336,28.3355712890625,4.150390625,0.4425048828125
11.049999900000001,-9.998186111450195,0.5578489899635315,0.9768342971801758,3.8909912109375,5.18798828125,-7.3089599609375
11.069999900000001,-10.038887977600098,0.9840168952941895,0.7110779285430908,-17.120361328125,6.8817138671875,-15.106201171875
11.0899999,-10.04846477508545,1.0247182846069336,0.45489832758903503,-13.1378173828125,-0.5950927734375,-15.380859375
11.1099999,-10.038887977600098,0.5817909836769104,0.2992752194404602,3.1585693359375,-9.735107421875,-9.2010498046875
11.129999900000001,-9.99339771270752,-0.21787235140800476,0.5099649429321289,8.056640625,-7.4005126953125,-0.18310546875
11.149999900000001,-10.129867553710938,-1.1755530834197998,0.44532153010368347,11.0931396484375,4.45556640625,8.1939697265625
11.1699999,-10.18493366241455,-1.9033904075622559,0.2968810200691223,67.2149658203125,-5.8135986328125,11.3525390625
11.1899999,-10.314221382141113,-1.9943699836730957,-0.3208230137825012,128.326416015625,-25.1007080078125,13.702392578125
11.209999900000001,-10.42195987701416,-1.5897499322891235,-0.9433154463768005,146.17919921875,-36.224365234375,7.476806640625
11.229999900000001,-10.383652687072754,-0.33997663855552673,-0.7110779285430908,128.8604736328125,-36.346435546875,-9.6893310546875
11.2499999,-10.500968933105469,1.0534487962722778,0.26096799969673157,76.5228271484375,-22.76611328125,-20.1568603515625
11.2699999,-10.572794914245605,2.296039342880249,1.800439715385437,7.6141357421875,-1.0223388671875,-24.4140625
11.2899999,-10.675745010375977,2.8371291160583496,3.1459810733795166,-47.8668212890625,12.451171875,-15.2740478515625
11.309999900000001,-10.65898609161377,2.7006595134735107,3.7708675861358643,-72.4334716796875,22.5982666015625,-11.23046875
11.3299999,-10.563218116760254,1.845929503440857,3.4308910369873047,-64.666748046875,24.5513916015625,-11.7950439453125
11.3499999,-10.335768699645996,0.6344634294509888,2.343923568725586,-31.9976806640625,11.9171142578125,-13.85498046875
11.3699999,-10.098742485046387,-0.5722141861915588,1.0103530883789062,7.1868896484375,-2.197265625,-7.1868896484375
11.389999900000001,-9.856928825378418,-1.501164436340332,-0.14844051003456116,33.99658203125,-10.7574462890625,-2.1209716796875
11.4099999,-9.634267807006836,-1.8267759084701538,-0.6248866319656372,45.440673828125,-17.5018310546875,-5.828857421875
11.4299999,-9.500192642211914,-1.6855180263519287,-0.3758896589279175,37.41455078125,-21.728515625,-12.1002197265625
11.4499999,-9.361329078674316,-1.170764684677124,0.3471592366695404,9.7503662109375,-0.3204345703125,-15.716552734375
11.469999900000001,-9.337387084960938,-0.6248866319656372,1.1540051698684692,-4.33349609375,24.47509765625,-15.44189453125
11.4899999,-9.337387084960938,-0.26336219906806946,1.6615760326385498,-3.8604736328125,31.0516357421875,-16.7694091796875
11.5099999,-9.437943458557129,-0.15801730751991272,1.6831238269805908,0.54931640625,28.3050537109375,-16.021728515625
11.5299999,-9.617507934570312,-0.2346317619085312,1.3287819623947144,8.758544921875,19.0277099609375,-9.5977783203125
11.549999900000001,-9.751583099365234,-0.33279404044151306,0.8403648138046265,17.181396484375,3.1585693359375,-1.617431640625
11.569999900000001,-9.703699111938477,-0.44532153010368347,0.4429273009300232,21.026611328125,-7.843017578125,3.2501220703125
11.5899999,-9.533711433410645,-0.4381389021873474,0.26575639843940735,22.369384765625,-1.2969970703125,10.986328125
11.6099999,-9.311050415039062,-0.35673606395721436,0.2968810200691223,22.857666015625,11.627197265625,20.01953125
11.629999900000001,-9.17697525024414,-0.1843535304069519,0.49559974670410156,17.76123046875,8.97216796875,18.8446044921875
11.649999900000001,-9.263166427612305,0.05985504388809204,0.7398083209991455,9.5367431640625,4.5166015625,9.002685546875
11.6699999,-9.516951560974121,0.2801215946674347,0.9528923034667969,1.983642578125,4.45556640625,-2.685546875
11.6899999,-9.832986831665039,0.40701428055763245,1.1348515748977661,-5.645751953125,-2.2430419921875,-8.8958740234375
11.709999900000001,-10.070012092590332,0.3711012601852417,1.2545616626739502,-13.24462890625,-9.1705322265625,-10.8795166015625
11.729999900000001,-10.165780067443848,0.15083470940589905,1.280897855758667,-15.2435302734375,-4.608154296875,-10.7269287109375
11.7499999,-10.15141487121582,-0.15801730751991272,1.213860273361206,-9.9639892578125,6.500244140625,-5.31005859375
11.7699999,-10.096348762512207,-0.4620809257030487,1.0654197931289673,-2.1514892578125,8.941650390625,-0.1373291015625
11.7899999,-10.11789608001709,-0.667982280254364,0.8475474119186401,3.9520263671875,2.8228759765625,-2.0599365234375
11.809999900000001,-10.204087257385254,-0.7469909191131592,0.6320692300796509,9.1400146484375,-5.615234375,-9.185791015625
11.8299999,-10.283096313476562,-0.7254431247711182,0.47644615173339844,14.8162841796875,-13.1072998046875,-11.566162109375
11.8499999,-10.26394271850586,-0.667982280254364,0.4141969084739685,19.317626953125,-18.6614990234375,-8.4991455078125
11.8699999,-10.137049674987793,-0.5841852426528931,0.47165772318840027,21.4996337890625,-18.6767578125,-8.1634521484375
11.889999900000001,-9.931148529052734,-0.5051765441894531,0.6129156351089478,21.1181640625,-13.4429931640625,-12.603759765625
11.9099999,-9.725247383117676,-0.4357447028160095,0.8259995579719543,18.6614990234375,-9.7503662109375,-11.9476318359375
11.9299999,-9.576807022094727,-0.3687070608139038,1.0223240852355957,13.427734375,-10.4827880859375,-4.150390625
11.9499999,-9.406818389892578,-0.33997663855552673,1.292868971824646,4.8828125,-6.3629150390625,-0.4425048828125
11.969999900000001,-9.30386734008789,-0.31364041566848755,1.522712230682373,-0.30517578125,10.8642578125,-4.94384765625
11.9899999,-9.282320022583008,-0.31364041566848755,1.6711528301239014,-6.65283203125,24.688720703125,-8.087158203125
12.0099999,-9.404424667358398,-0.3256114423274994,1.7142484188079834,-12.4359130859375,33.599853515625,-13.1988525390625
12.0299999,-9.605537414550781,-0.4213795065879822,1.556231141090393,-15.4876708984375,20.4620361328125,-16.90673828125
12.049999900000001,-9.794678688049316,-0.586579442024231,1.3072341680526733,-18.2952880859375,6.1798095703125,-14.129638671875
12.069999900000001,-9.847352027893066,-0.811634361743927,1.0558429956436157,-17.51708984375,5.3253173828125,-4.150390625
12.0899999,-9.75637149810791,-1.048660397529602,0.8643068075180054,-14.129638671875,10.25390625,4.7454833984375
12.1099999,-9.639056205749512,-1.2042834758758545,0.751779317855835,-10.25390625,12.7716064453125,10.2081298828125
12.129999900000001,-9.610325813293457,-1.2617442607879639,0.6799532771110535,-6.5460205078125,13.9923095703125,10.7574462890625
12.149999900000001,-9.706093788146973,-1.2210428714752197,0.6224924325942993,-1.861572265625,9.429931640625,9.09423828125
12.1699999,-9.911994934082031,-1.0893617868423462,0.5841852426528931,1.3427734375,-1.3275146484375,8.0108642578125
12.1899999,-10.139444351196289,-0.933738648891449,0.5817909836769104,1.28173828125,-8.1787109375,3.1280517578125
12.209999900000001,-10.335768699645996,-0.7637503147125244,0.6272808313369751,-0.7476806640625,-9.0789794921875,-1.77001953125
12.229999900000001,-10.395624160766602,-0.6416460275650024,0.689530074596405,-2.5787353515625,-10.986328125,-1.6326904296875
12.2499999,-10.299856185913086,-0.5482721924781799,0.7757213711738586,-3.41796875,-15.899658203125,3.0364990234375
12.2699999,-10.072406768798828,-0.4644751250743866,0.8451532125473022,-4.0740966796875,-12.1612548828125,5.9967041015625
12.289999900000002,-9.792284965515137,-0.3758896589279175,0.8858546018600464,-4.6539306640625,-0.396728515625,4.57763671875
12.309999900000001,-9.490615844726562,-0.2968810200691223,0.8523358106613159,-3.387451171875,2.593994140625,9.2926025390625
12.3299999,-9.208099365234375,-0.22266076505184174,0.7972691655158997,0.457763671875,-7.75146484375,27.16064453125
12.3499999,-9.655815124511719,-0.08619125932455063,0.8092401623725891,0.7781982421875,-12.1307373046875,45.59326171875
12.3699999,-9.749189376831055,-0.1412578970193863,0.7445967197418213,-4.4403076171875,4.82177734375,6.6680908203125
12.389999900000001,-10.560823440551758,-0.11252748221158981,0.7948749661445618,-6.9427490234375,3.72314453125,-0.7476806640625
12.4099999,-10.706870079040527,-0.17717093229293823,0.7757213711738586,-9.82666015625,2.105712890625,16.3421630859375
12.4299999,-10.78348445892334,-0.05985504388809204,0.7613561153411865,-17.1661376953125,5.889892578125,9.94873046875
12.4499999,-10.556035041809082,0.10055647045373917,0.6607996821403503,-19.9127197265625,1.89208984375,3.0975341796875
12.469999900000001,-10.32858657836914,0.2513911724090576,0.5315127968788147,-12.7105712890625,-1.861572265625,-1.8310546875
12.4899999,-10.158597946166992,0.2753331959247589,0.3878606855869293,-2.74658203125,-7.3699951171875,-1.5716552734375
12.5099999,-10.043676376342773,0.1604115068912506,0.31364041566848755,4.150390625,-9.063720703125,2.7618408203125
12.5299999,-9.952696800231934,-0.002394201699644327,0.47405192255973816,5.0201416015625,-9.4451904296875,0.457763671875
12.549999900000001,-9.856928825378418,-0.2753331959247589,0.6943184733390808,-1.7852783203125,-6.53076171875,-1.40380859375
12.569999900000001,-9.840168952941895,-0.3280056416988373,1.0414776802062988,-8.7127685546875,-4.669189453125,4.5928955078125
12.5899999,-9.818621635437012,-0.6057330369949341,1.2258312702178955,-13.61083984375,-4.9896240234375,12.359619140625
12.6099999,-9.847352027893066,-0.5770025849342346,1.290474772453308,-11.3067626953125,-6.378173828125,11.1846923828125
12.629999900000001,-9.890447616577148,-0.6105214357376099,1.1971008777618408,-0.48828125,-11.0015869140625,4.638671875
12.649999900000001,-9.923966407775879,-0.49559974670410156,1.1180921792984009,12.054443359375,-7.598876953125,5.2032470703125
12.6699999,-9.897629737854004,-0.20350714027881622,1.0893617868423462,12.7716064453125,-0.8087158203125,7.6446533203125
12.6899999,-9.856928825378418,0.12449848651885986,1.1516109704971313,4.5318603515625,-2.62451171875,3.7841796875
12.709999900000001,-9.916783332824707,0.4596867263317108,1.1516109704971313,2.5177001953125,-6.65283203125,-6.6986083984375
12.729999900000001,-9.847352027893066,0.7924807667732239,1.292868971824646,7.4005126953125,-4.2724609375,-1.2969970703125
12.7499999,-9.856928825378418,1.0319008827209473,1.656787633895874,-6.8817138671875,-0.5645751953125,0.30517578125
12.7699999,-9.837775230407715,0.9026140570640564,1.8770540952682495,-35.09521484375,8.1787109375,-10.5743408203125
12.789999900000002,-9.864110946655273,0.7086837291717529,2.1787235736846924,-38.482666015625,11.016845703125,-14.7552490234375
12.809999900000001,-9.813833236694336,0.1604115068912506,2.054224967956543,-20.81298828125,14.404296875,-2.86865234375
12.8299999,-9.976638793945312,-0.5171475410461426,1.6184803247451782,-9.429931640625,15.3656005859375,5.950927734375
12.8499999,-9.895236015319824,-0.9169792532920837,1.1420341730117798,2.38037109375,9.0179443359375,3.0975341796875
12.8699999,-9.99339771270752,-1.2090718746185303,0.8738836050033569,11.4898681640625,2.3193359375,6.103515625
12.889999900000001,-9.940725326538086,-1.05105459690094,0.5961562395095825,9.2010498046875,7.110595703125,9.6282958984375
12.9099999,-10.02452278137207,-0.6967126727104187,0.6607996821403503,2.105712890625,4.8980712890625,4.6234130859375
12.9299999,-9.907206535339355,-0.08140286058187485,0.828393816947937,-11.4898681640625,6.0882568359375,8.148193359375
12.9499999,-9.907206535339355,0.4692635238170624,1.0223240852355957,-30.853271484375,19.195556640625,5.340576171875
12.969999900000001,-9.876082420349121,0.768538773059845,1.2114660739898682,-30.6854248046875,18.12744140625,-3.082275390625
12.9899999,-9.885659217834473,0.6943184733390808,1.039083480834961,-15.7928466796875,9.4757080078125,-0.7171630859375
13.0099999,-9.890447616577148,0.31364041566848755,0.6153098344802856,3.1890869140625,1.983642578125,3.173828125
13.0299999,-10.120290756225586,-0.23942017555236816,0.07900865375995636,20.8892822265625,-0.0457763671875,0.244140625
13.049999900000001,-10.053253173828125,-0.5985504388809204,-0.17477671802043915,25.1922607421875,-6.53076171875,2.349853515625
13.069999900000001,-10.20887565612793,-0.7110779285430908,0.08619125932455063,0.4730224609375,-0.1373291015625,10.833740234375
13.0899999,-10.062829971313477,-0.5363011956214905,0.6967126727104187,-45.47119140625,5.0048828125,11.16943359375
13.1099999,-9.959878921508789,-0.22505496442317963,1.3670891523361206,-54.412841796875,13.9312744140625,13.671875
13.129999900000001,-9.801861763000488,0.15322890877723694,1.6424223184585571,-33.050537109375,17.27294921875,16.754150390625
13.149999900000001,-9.773131370544434,0.17956513166427612,1.3048399686813354,-8.880615234375,7.3394775390625,3.23486328125
13.1699999,-9.852140426635742,0.2298433631658554,0.6967126727104187,18.0511474609375,-0.7781982421875,-0.274658203125
13.1899999,-9.983820915222168,0.17717093229293823,0.14844051003456116,33.9508056640625,-3.7078857421875,9.5672607421875
13.209999900000001,-10.101137161254883,0.1843535304069519,-0.08140286058187485,14.34326171875,-0.3204345703125,4.57763671875
13.229999900000001,-10.132261276245117,0.33758243918418884,-0.06464344263076782,-4.45556640625,-1.1749267578125,1.1749267578125
13.2499999,-10.192116737365723,0.35434186458587646,0.06703764945268631,3.0670166015625,-5.0201416015625,2.4566650390625
13.2699999,-10.079588890075684,0.395043283700943,0.13407529890537262,20.6756591796875,-10.772705078125,-0.0457763671875
13.289999900000002,-10.098742485046387,0.35913026332855225,0.19153612852096558,29.3121337890625,-12.14599609375,-4.638671875
13.309999900000001,-9.974244117736816,0.4213795065879822,0.5147533416748047,28.839111328125,-13.2598876953125,-5.5084228515625
13.3299999,-9.895236015319824,0.5913678407669067,1.1037269830703735,4.2724609375,-5.279541015625,1.1138916015625
13.3499999,-9.816226959228516,0.6344634294509888,1.580173134803772,-34.942626953125,12.5579833984375,2.716064453125
13.3699999,-9.696516990661621,0.5674257874488831,1.8531121015548706,-38.421630859375,14.8162841796875,-2.6702880859375
13.389999900000001,-9.892841339111328,0.17238251864910126,1.5394717454910278,-6.65283203125,3.0059814453125,-2.410888671875
13.4099999,-9.830592155456543,-0.23702596127986908,0.8475474119186401,30.792236328125,-6.53076171875,4.9285888671875
13.4299999,-10.122684478759766,-0.47644615173339844,0.23702596127986908,46.0205078125,-4.08935546875,5.340576171875
13.4499999,-10.055646896362305,-0.3902548849582672,-0.011971008032560349,32.3333740234375,-10.406494140625,-1.220703125
13.469999900000001,-9.928754806518555,0.5554547905921936,0.8978256583213806,-45.34912109375,11.138916015625,8.9263916015625
13.4899999,-9.81143856048584,0.8140285611152649,1.4053963422775269,-44.8455810546875,15.19775390625,3.4027099609375
13.5099999,-9.947908401489258,0.7541735172271729,1.3311761617660522,-17.3797607421875,1.4495849609375,0.4119873046875
13.5299999,-9.9000244140625,0.3974374830722809,0.8068459630012512,8.3770751953125,-7.4920654296875,4.364013671875
13.549999900000001,-10.189722061157227,0.06703764945268631,0.22505496442317963,25.7720947265625,-2.655029296875,6.7138671875
13.569999900000001,-10.11789608001709,-0.06703764945268631,-0.1173158809542656,34.5306396484375,-11.9781494140625,1.0833740234375
13.5899999,-10.204087257385254,-0.14844051003456116,-0.3016694188117981,31.402587890625,-15.6707763671875,-0.2288818359375
13.6099999,-10.189722061157227,0.090979665517807,-0.181959331035614,38.6199951171875,-21.17919921875,5.096435546875
13.629999900000001,-10.134655952453613,0.3495534360408783,0.12210428714752197,49.7589111328125,-22.918701171875,1.2664794921875
13.649999900000001,-10.041281700134277,0.7852981686592102,0.4572925269603729,42.5262451171875,-21.8048095703125,-3.448486328125
13.6699999,-9.921571731567383,1.1755530834197998,0.9026140570640564,27.4505615234375,-18.7530517578125,-8.575439453125
13.6899999,-9.816226959228516,1.4437036514282227,1.3072341680526733,20.6756591796875,-12.9241943359375,-12.939453125
13.709999900000001,-9.746794700622559,1.4053963422775269,1.522712230682373,20.233154296875,-11.688232421875,-15.2435302734375
13.729999900000001,-9.765948295593262,1.1109095811843872,1.5418659448623657,24.84130859375,-14.9078369140625,-13.7176513671875
13.7499999,-9.832986831665039,0.6488286852836609,1.3694833517074585,33.203125,-16.815185546875,-11.6119384765625
13.7699999,-9.923966407775879,0.18914192914962769,1.1827356815338135,40.924072265625,-19.012451171875,-10.284423828125
13.789999900000002,-10.022128105163574,-0.1412578970193863,1.0342950820922852,45.59326171875,-22.5067138671875,-9.613037109375
13.809999900000001,-10.04846477508545,-0.2992752194404602,0.9768342971801758,50.018310546875,-23.8800048828125,-7.5225830078125
13.8299999,-10.249577522277832,-0.26096799969673157,1.0079588890075684,54.9163818359375,-24.993896484375,-3.0517578125
13.8499999,-10.383652687072754,-0.1388636976480484,1.1252747774124146,59.9365234375,-27.0538330078125,-10.589599609375
13.8699999,-10.623072624206543,0.0694318488240242,1.314416766166687,62.80517578125,-30.0445556640625,-17.1966552734375
13.889999900000001,-10.848128318786621,0.24899697303771973,1.5179238319396973,63.9190673828125,-34.698486328125,-19.3023681640625
13.9099999,-10.931924819946289,0.38307225704193115,1.7405846118927002,65.032958984375,-37.41455078125,-26.336669921875
13.9299999,-10.910377502441406,0.4381389021873474,1.9081788063049316,65.7196044921875,-36.6363525390625,-33.0810546875
13.9499999,-10.793061256408691,0.4213795065879822,2.0015525817871094,67.0928955078125,-35.3240966796875,-35.7208251953125
13.969999900000001,-10.582371711730957,0.35434186458587646,2.054224967956543,70.526123046875,-40.679931640625,-36.07177734375
13.9899999,-10.36449909210205,0.2801215946674347,2.075772762298584,73.91357421875,-49.163818359375,-36.163330078125
14.0099999,-10.160991668701172,0.22744916379451752,2.121262788772583,75.5767822265625,-55.8319091796875,-37.04833984375
14.0299999,-9.971850395202637,0.23702596127986908,2.2577321529388428,74.9664306640625,-63.812255859375,-40.5120849609375
14.049999900000001,-9.799467086791992,0.2849099934101105,2.4899697303771973,70.49560546875,-69.3511962890625,-47.9888916015625
14.069999900000001,-9.634267807006836,0.3447650372982025,2.806004285812378,64.7430419921875,-70.098876953125,-56.0302734375
14.0899999,-9.476250648498535,0.3734954595565796,3.1747114658355713,58.2733154296875,-69.5953369140625,-61.6455078125
14.1099999,-9.339780807495117,0.35434186458587646,3.5410242080688477,50.3387451171875,-71.6552734375,-64.971923828125
14.129999900000001,-9.205705642700195,0.2753331959247589,3.8786067962646484,40.8935546875,-77.63671875,-68.267822265625
14.149999900000001,-9.023746490478516,0.12689268589019775,4.180276393890381,31.6314697265625,-83.6334228515625,-71.1822509765625
14.1699999,-8.757989883422852,-0.07900865375995636,4.4723687171936035,24.59716796875,-82.1075439453125,-69.8089599609375
14.1899999,-8.425195693969727,-0.31842881441116333,4.76924991607666,19.8822021484375,-72.479248046875,-64.6209716796875
14.209999900000001,-8.101978302001953,-0.5434837937355042,5.0685248374938965,13.916015625,-61.6302490234375,-61.248779296875
14.229999900000001,-7.841010570526123,-0.7086837291717529,5.377377033233643,4.3487548828125,-56.09130859375,-63.04931640625
14.2499999,-7.68538761138916,-0.8140285611152649,5.669469833374023,-8.544921875,-51.605224609375,-67.8863525390625
14.2699999,-7.589619159698486,-0.9169792532920837,5.882553577423096,-21.575927734375,-44.8760986328125,-71.441650390625
14.289999900000002,-7.429207801818848,-1.1013327836990356,6.035782337188721,-29.7088623046875,-42.8314208984375,-68.9239501953125
14.309999900000001,-7.225700855255127,-1.3431471586227417,6.145915985107422,-35.491943359375,-40.985107421875,-60.302734375
14.3299999,-7.010222434997559,-1.6424223184585571,6.160281181335449,-42.083740234375,-31.341552734375,-52.7191162109375
14.3499999,-6.823474884033203,-1.9776105880737305,6.1315507888793945,-46.0357666015625,-29.7393798828125,-48.7823486328125
14.3699999,-6.71334171295166,-2.31758713722229,6.033388137817383,-45.2880859375,-39.48974609375,-40.6494140625
14.389999900000001,-6.66785192489624,-2.6360161304473877,5.920860767364502,-41.595458984375,-47.271728515625,-29.72412109375
14.4099999,-6.651092529296875,-2.9257144927978516,5.853823184967041,-38.665771484375,-47.1038818359375,-24.3988037109375
14.4299999,-6.72531270980835,-3.095702886581421,5.861005783081055,-38.055419921875,-44.036865234375,-26.1383056640625
14.4499999,-6.84981107711792,-3.19865345954895,5.906495571136475,-36.0107421875,-46.4630126953125,-32.2723388671875
14.469999900000001,-6.981492042541504,-3.2752678394317627,5.940014362335205,-30.609130859375,-55.6640625,-35.5377197265625
14.4899999,-7.0557122230529785,-3.3662476539611816,5.949591159820557,-25.08544921875,-68.359375,-33.26416015625
14.5099999,-6.938396453857422,-3.4955344200134277,6.026205539703369,-23.1475830078125,-78.125,-29.937744140625
14.5299999,-6.677428722381592,-3.624821424484253,6.191405773162842,-25.360107421875,-75.01220703125,-27.1759033203125
14.549999900000001,-6.327875137329102,-3.7205893993377686,6.433219909667969,-29.388427734375,-64.1632080078125,-24.5513916015625
14.569999900000001,-5.980715751647949,-3.8331170082092285,6.653486728668213,-39.24560546875,-58.9599609375,-28.4881591796875
14.5899999,-5.65031623840332,-3.9863457679748535,6.797138690948486,-42.9229736328125,-61.9049072265625,-30.670166015625
14.6099999,-5.355829238891602,-4.199429988861084,6.8593878746032715,-46.20361328125,-62.5,-29.205322265625
14.629999900000001,-5.0254292488098145,-4.443638324737549,6.854599475860596,-50.628662109375,-53.6041259765625,-27.7252197265625
14.649999900000001,-4.675876140594482,-4.675876140594482,6.878541469573975,-54.50439453125,-41.8853759765625,-25.1617431640625
14.6699999,-4.393360137939453,-4.831499099731445,6.888118267059326,-62.5152587890625,-32.196044921875,-31.3720703125
14.6899999,-4.2090067863464355,-4.9368438720703125,6.873753070831299,-70.2362060546875,-25.909423828125,-38.51318359375
14.709999900000001,-4.120420932769775,-5.032611846923828,6.821080684661865,-72.662353515625,-21.1181640625,-44.158935546875
14.729999900000001,-4.060565948486328,-5.173870086669922,6.739677906036377,-72.5555419921875,-11.1846923828125,-49.346923828125
14.7499999,-3.9911341667175293,-5.39174222946167,6.596025466918945,-74.4781494140625,2.86865234375,-53.0853271484375
14.7699999,-3.931279182434082,-5.688623428344727,6.426037311553955,-73.3795166015625,14.678955078125,-56.4117431640625
14.789999900000002,-3.9647979736328125,-6.038176536560059,6.232107162475586,-69.244384765625,21.575927734375,-62.1337890625
14.809999900000001,-4.158728122711182,-6.380547523498535,5.978321552276611,-63.232421875,24.322509765625,-69.122314453125
14.8299999,-4.469974517822266,-6.7061591148376465,5.681440830230713,-58.4869384765625,19.1497802734375,-77.20947265625
14.8499999,-4.790797710418701,-6.959944248199463,5.372588634490967,-54.3212890625,0.1983642578125,-86.273193359375
14.8699999,-5.035006046295166,-7.173028469085693,5.109226226806641,-50.9033203125,-18.06640625,-93.6737060546875
14.889999900000001,-5.037400245666504,-7.41484260559082,4.879383087158203,-46.93603515625,-27.2369384765625,-95.2911376953125
14.9099999,-4.790797710418701,-7.745242595672607,4.752490520477295,-38.421630859375,-38.9556884765625,-89.4927978515625
14.9299999,-4.285621166229248,-8.159439086914062,4.680664539337158,-26.6265869140625,-49.041748046875,-73.3642578125
14.9499999,-3.576937437057495,-8.573636054992676,4.572925090789795,-13.7176513671875,-47.2564697265625,-55.5267333984375
14.969999900000001,-2.82515811920166,-8.887276649475098,4.517858505249023,2.9144287109375,-42.2210693359375,-41.19873046875
14.9899999,-2.118868589401245,-8.927978515625,4.608838081359863,14.007568359375,-36.163330078125,-31.3720703125
15.0099999,-1.7262194156646729,-8.702922821044922,4.78122091293335,6.011962890625,-18.3563232421875,-33.9508056640625
15.0299999,-1.7070658206939697,-8.315062522888184,4.9368438720703125,-6.2713623046875,-5.92041015625,-44.342041015625
15.049999900000001,-2.013523578643799,-7.91283655166626,5.006275653839111,-4.302978515625,-24.8260498046875,-55.7861328125
15.069999900000001,-2.434903144836426,-7.637503623962402,4.862623691558838,1.2664794921875,-60.211181640625,-64.1937255859375
15.0899999,-2.6384103298187256,-7.601590633392334,4.716577529907227,4.058837890625,-82.8094482421875,-64.849853515625
15.1099999,-2.360682964324951,-7.790732383728027,4.642356872558594,2.7008056640625,-82.1075439453125,-62.591552734375
15.129999900000001,-1.6519991159439087,-8.142680168151855,4.6734819412231445,6.04248046875,-67.3980712890625,-50.384521484375
15.149999900000001,-0.7015010714530945,-8.559270858764648,4.680664539337158,19.6990966796875,-53.375244140625,-28.80859375
15.1699999,0.16998831927776337,-8.892065048217773,4.627991676330566,38.6505126953125,-45.623779296875,-11.8408203125
15.1899999,0.689530074596405,-9.006986618041992,4.5394062995910645,57.9071044921875,-40.52734375,-2.6702880859375
15.209999900000001,0.8044517636299133,-8.856152534484863,4.575319290161133,72.3876953125,-37.200927734375,0.8392333984375
15.229999900000001,0.5386953949928284,-8.47786808013916,4.81473970413208,78.033447265625,-33.3251953125,-0.152587890625
15.2499999,0.07422025501728058,-7.977479934692383,5.20978307723999,77.880859375,-28.1982421875,-3.814697265625
15.2699999,-0.40701428055763245,-7.484274387359619,5.738901615142822,76.7974853515625,-27.191162109375,-8.0718994140625
15.289999900000002,-0.7206547260284424,-7.046135425567627,6.414066314697266,70.5413818359375,-22.94921875,-11.962890625
15.309999900000001,-0.8403648138046265,-6.7492547035217285,7.06528902053833,48.1414794921875,-3.3111572265625,-18.61572265625
15.3299999,-0.8092401623725891,-6.5696892738342285,7.704541206359863,19.500732421875,15.8538818359375,-24.7650146484375
15.3499999,-0.7110779285430908,-6.464344501495361,8.185775756835938,-8.697509765625,18.8446044921875,-29.5867919921875
15.3699999,-0.608127236366272,-6.402095317840576,8.473079681396484,-41.56494140625,11.7034912109375,-32.928466796875
15.389999900000001,-0.49799394607543945,-6.354211330413818,8.597578048706055,-81.3751220703125,12.20703125,-35.369873046875
15.4099999,-0.304063618183136,-6.313509941101074,8.633491516113281,-121.7193603515625,20.8892822265625,-39.5965576171875
15.4299999,-0.023942016065120697,-6.315904140472412,8.49941635131836,-155.9906005859375,29.327392578125,-43.6248779296875
15.4499999,0.2513911724090576,-6.5265936851501465,8.032546997070312,-176.116943359375,34.60693359375,-44.1741943359375
15.469999900000001,0.5123591423034668,-6.919242858886719,7.180211067199707,-177.91748046875,33.0963134765625,-41.412353515625
15.4899999,0.7158663272857666,-7.422025203704834,6.074089527130127,-171.844482421875,23.4832763671875,-34.9578857421875
15.5099999,0.8523358106613159,-7.994239330291748,4.833893299102783,-168.0908203125,13.8397216796875,-26.85546875
15.5299999,0.9911994934082031,-8.497021675109863,3.6774938106536865,-163.3758544921875,10.498046875,-20.8587646484375
15.549999900000001,1.1180921792984009,-8.880094528198242,2.717418909072876,-148.6968994140625,11.4898681640625,-19.3023681640625
15.569999900000001,1.1468225717544556,-9.220070838928223,1.8842366933822632,-129.852294921875,12.603759765625,-19.775390625
15.5899999,1.1180921792984009,-9.548076629638672,1.1851298809051514,-112.24365234375,8.514404296875,-20.4620361328125
15.6099999,1.0558429956436157,-9.804255485534668,0.667982280254364,-88.19580078125,1.678466796875,-18.1121826171875
15.629999900000001,0.9672574996948242,-10.000580787658691,0.38307225704193115,-61.82861328125,-6.4697265625,-11.8255615234375
15.649999900000001,0.8762778043746948,-10.132261276245117,0.3519476354122162,-46.234130859375,-11.04736328125,-7.781982421875
15.6699999,0.790086567401886,-10.182539939880371,0.47884035110473633,-41.290283203125,-12.3748779296875,-8.514404296875
15.6899999,0.7110779285430908,-10.170568466186523,0.6488286852836609,-32.7606201171875,-12.02392578125,-10.5438232421875
15.709999900000001,0.6368576288223267,-10.11789608001709,0.7709329724311829,-18.157958984375,-12.4969482421875,-11.3067626953125
15.729999900000001,0.608127236366272,-10.04846477508545,0.7541735172271729,-8.11767578125,-16.05224609375,-13.5955810546875
15.7499999,0.9911994934082031,-10.876858711242676,0.7134721279144287,-5.06591796875,-17.547607421875,-14.5416259765625
15.7699999,1.0247182846069336,-11.013327598571777,0.5674257874488831,-4.0283203125,-16.0980224609375,11.77978515625
15.789999900000002,1.5275006294250488,-11.832144737243652,0.5027823448181152,11.1236572265625,-24.6429443359375,20.233154296875
15.809999900000001,1.5634137392044067,-11.571176528930664,0.3926490843296051,8.36181640625,-18.218994140625,10.711669921875
15.8299999,1.5083470344543457,-11.23598861694336,0.4429273009300232,2.777099609375,-3.1890869140625,12.5579833984375
15.8499999,1.2641384601593018,-10.450690269470215,0.6033388376235962,2.5482177734375,2.105712890625,2.655029296875
15.869999900000002,1.0103530883789062,-10.091560363769531,0.7757213711738586,3.9520263671875,5.9661865234375,-1.220703125
15.889999900000001,0.7829039692878723,-9.658209800720215,0.9672574996948242,1.6326904296875,2.13623046875,-0.5035400390625
15.9099999,0.7757213711738586,-9.622296333312988,1.0821791887283325,1.312255859375,1.3427734375,1.6326904296875
15.9299999,0.8786720037460327,-9.560047149658203,1.1276689767837524,-0.6866455078125,-0.2593994140625,-0.5950927734375
15.9499999,0.9816226959228516,-9.670180320739746,1.115697979927063,-0.9918212890625,0.0152587890625,1.8310546875
15.969999900000001,1.070208191871643,-9.720458984375,1.0869675874710083,0.823974609375,0.732421875,2.288818359375
15.9899999,1.1085153818130493,-9.782708168029785,1.0630255937576294,1.7852783203125,1.434326171875,-0.5340576171875
16.0099999,1.0869675874710083,-9.823410034179688,1.05105459690094,0.8544921875,0.946044921875,0.67138671875
16.0299999,1.036689281463623,-9.816226959228516,1.0797849893569946,-0.0152587890625,0.9002685546875,1.1749267578125
16.0499999,0.9768342971801758,-9.823410034179688,1.1563993692398071,-0.1068115234375,0.30517578125,0.762939453125
16.0699999,0.9217676520347595,-9.78989028930664,1.1540051698684692,-2.3345947265625,-0.2593994140625,-2.8839111328125
16.089999900000002,0.9433154463768005,-9.813833236694336,1.161187767982483,-1.6632080078125,0,-2.4566650390625
16.109999900000002,0.9720458984375,-9.799467086791992,1.0893617868423462,-0.9765625,0.335693359375,-0.3662109375
16.1299999,1.0582371950149536,-9.849745750427246,1.0247182846069336,-0.396728515625,0.396728515625,0.9307861328125
16.1499999,1.1180921792984009,-9.828198432922363,0.9672574996948242,0.3509521484375,0.9918212890625,-0.9613037109375
16.1699999,1.1228805780410767,-9.856928825378418,0.9313444495201111,0.457763671875,1.007080078125,0.457763671875
16.1899999,1.1180921792984009,-9.823410034179688,0.9624691009521484,1.2359619140625,1.1749267578125,0.946044921875
16.2099999,1.072602391242981,-9.821015357971191,1.0103530883789062,-0.0152587890625,0.67138671875,0.396728515625
16.2299999,1.0199298858642578,-9.80904483795166,1.05105459690094,-1.3275146484375,0.152587890625,-0.640869140625
16.249999900000002,0.993593692779541,-9.794678688049316,1.0989385843276978,-0.2288818359375,0.6561279296875,-1.922607421875
16.269999900000002,0.9672574996948242,-9.806650161743164,1.1037269830703735,0.030517578125,0.6256103515625,0.0457763671875
16.2899999,0.9840168952941895,-9.794678688049316,1.0965443849563599,-0.7476806640625,0.335693359375,-0.274658203125
16.3099999,0.9983820915222168,-9.81143856048584,1.0797849893569946,-1.1444091796875,0.18310546875,-1.2969970703125
16.3299999,1.0271124839782715,-9.821015357971191,0.9648633003234863,-0.6866455078125,0.5340576171875,-1.4801025390625
16.3499999,1.137245774269104,-9.849745750427246,0.9409212470054626,3.6163330078125,2.4871826171875,-0.1220703125
16.3699999,1.1420341730117798,-9.840168952941895,0.9217676520347595,3.875732421875,2.471923828125,4.1351318359375
16.3899999,1.1013327836990356,-9.823410034179688,1.0247182846069336,-0.335693359375,0.5950927734375,3.1280517578125
16.4099999,1.0127472877502441,-9.775525093078613,1.1420341730117798,-2.6397705078125,-0.18310546875,-3.021240234375
16.429999900000002,0.9528923034667969,-9.770736694335938,1.1755530834197998,-2.166748046875,0.152587890625,-3.4637451171875
16.4499999,0.9576807022094727,-9.782708168029785,1.158793568611145,0.823974609375,0.9918212890625,0.9613037109375
16.4699999,1.0007762908935547,-9.806650161743164,1.0821791887283325,0.79345703125,0.9613037109375,2.410888671875
16.4899999,1.0295066833496094,-9.825803756713867,1.05105459690094,-0.762939453125,0.54931640625,-0.5645751953125
16.5099999,1.0319008827209473,-9.821015357971191,1.039083480834961,-0.885009765625,0.4119873046875,-2.0904541015625
16.5299999,1.048660397529602,-9.835380554199219,1.0319008827209473,0.213623046875,0.8544921875,0.2593994140625
16.5499999,1.048660397529602,-9.828198432922363,1.0079588890075684,0.8544921875,1.1138916015625,2.410888671875
16.5699999,1.01753568649292,-9.830592155456543,1.039083480834961,0.18310546875,0.7476806640625,0.396728515625
16.589999900000002,0.9768342971801758,-9.81143856048584,1.0678139925003052,-1.3275146484375,0.0762939453125,-3.11279296875
16.609999900000002,0.9744400978088379,-9.806650161743164,1.1037269830703735,-1.5716552734375,0.091552734375,-2.8076171875
16.6299999,0.9888052940368652,-9.799467086791992,1.1085153818130493,-0.7171630859375,0.518798828125,1.007080078125
16.6499999,1.015141487121582,-9.80904483795166,1.094150185585022,-0.8544921875,0.244140625,1.2359619140625
16.6699999,1.05105459690094,-9.818621635437012,1.048660397529602,-1.4190673828125,0,-2.38037109375
16.6899999,1.0630255937576294,-9.828198432922363,1.015141487121582,-0.396728515625,0.701904296875,-1.953125
16.7099999,1.070208191871643,-9.84256362915039,0.9768342971801758,0.9307861328125,1.1138916015625,1.220703125
16.7299999,1.0821791887283325,-9.852140426635742,0.9576807022094727,0.9002685546875,0.7781982421875,0.8697509765625
16.749999900000002,1.0678139925003052,-9.847352027893066,0.9768342971801758,0.5950927734375,1.0223388671875,-1.7242431640625
16.769999900000002,1.0319008827209473,-9.830592155456543,1.0319008827209473,0.2899169921875,0.885009765625,-1.129150390625
16.7899999,1.01753568649292,-9.816226959228516,1.0797849893569946,-0.9307861328125,0.1068115234375,0.4425048828125
16.8099999,1.0223240852355957,-9.806650161743164,1.091755986213684,-1.4495849609375,-0.1678466796875,0.030517578125
16.8299999,1.0127472877502441,-9.806650161743164,1.0773907899856567,-0.213623046875,0.4730224609375,-0.701904296875
16.8499999,1.0079588890075684,-9.80904483795166,1.048660397529602,0.5645751953125,0.8392333984375,-0.762939453125
16.8699999,1.01753568649292,-9.816226959228516,1.0295066833496094,-0.2899169921875,0.5645751953125,-0.5340576171875
16.8899999,1.0247182846069336,-9.816226959228516,1.0247182846069336,-0.640869140625,0.396728515625,-0.1220703125
16.9099999,1.0342950820922852,-9.821015357971191,1.0271124839782715,-0.152587890625,0.6561279296875,-0.3509521484375
16.929999900000002,1.0414776802062988,-9.823410034179688,1.0199298858642578,-0.0152587890625,0.6256103515625,-0.3509521484375
16.9499999,1.048660397529602,-9.825803756713867,1.0223240852355957,0.1220703125,0.6561279296875,-0.1373291015625
16.9699999,1.0438719987869263,-9.825803756713867,1.015141487121582,0.2288818359375,0.640869140625,0.213623046875
16.9899999,1.036689281463623,-9.823410034179688,1.0223240852355957,0.5035400390625,0.885009765625,-0.1678466796875
17.0099999,1.0271124839782715,-9.818621635437012,1.0342950820922852,0.244140625,0.7781982421875,-0.5340576171875
17.0299999,1.0199298858642578,-9.818621635437012,1.0438719987869263,-0.213623046875,0.5645751953125,-0.244140625
17.0499999,1.015141487121582,-9.81143856048584,1.0558429956436157,-0.0457763671875,0.67138671875,-0.18310546875
17.0699999,1.0103530883789062,-9.813833236694336,1.0654197931289673,0.030517578125,0.67138671875,-0.396728515625
17.089999900000002,1.0127472877502441,-9.81143856048584,1.0630255937576294,-0.3509521484375,0.48828125,-0.6256103515625
17.109999900000002,1.0223240852355957,-9.816226959228516,1.0582371950149536,-0.335693359375,0.5035400390625,-0.579833984375
17.1299999,1.0342950820922852,-9.818621635437012,1.0462661981582642,0,0.67138671875,0.06103515625
17.1499999,1.039083480834961,-9.823410034179688,1.0342950820922852,0.1678466796875,0.6866455078125,0.2593994140625
17.1699999,1.0295066833496094,-9.821015357971191,1.0342950820922852,-0.0457763671875,0.732421875,-0.6866455078125
17.1899999,1.01753568649292,-9.816226959228516,1.0438719987869263,-0.091552734375,0.79345703125,-0.42724609375
17.2099999,1.01753568649292,-9.813833236694336,1.048660397529602,-0.3662109375,0.6256103515625,-0.3509521484375
17.2299999,1.01753568649292,-9.816226959228516,1.048660397529602,-0.1983642578125,0.5950927734375,-0.579833984375
17.249999900000002,1.0247182846069336,-9.813833236694336,1.048660397529602,0.1220703125,0.732421875,-0.5950927734375
17.269999900000002,1.0271124839782715,-9.818621635437012,1.0414776802062988,-0.030517578125,0.732421875,-0.1678466796875
17.2899999,1.0319008827209473,-9.816226959228516,1.0414776802062988,-0.1678466796875,0.6256103515625,-0.1678466796875
17.3099999,1.0342950820922852,-9.818621635437012,1.048660397529602,-0.0152587890625,0.6866455078125,-0.48828125
17.3299999,1.0295066833496094,-9.818621635437012,1.048660397529602,-0.1373291015625,0.6103515625,-0.4730224609375
17.3499999,1.0295066833496094,-9.818621635437012,1.0534487962722778,-0.1983642578125,0.5035400390625,-0.335693359375
17.3699999,1.0295066833496094,-9.816226959228516,1.05105459690094,-0.1983642578125,0.6561279296875,-0.30517578125
17.3899999,1.0319008827209473,-9.821015357971191,1.0462661981582642,-0.152587890625,0.579833984375,-0.335693359375
17.409999900000003,1.036689281463623,-9.821015357971191,1.039083480834961,-0.030517578125,0.6103515625,-0.213623046875
17.429999900000002,1.039083480834961,-9.823410034179688,1.039083480834961,0.0762939453125,0.7171630859375,-0.0152587890625
17.4499999,1.0295066833496094,-9.823410034179688,1.0414776802062988,0,0.67138671875,-0.0762939453125
17.4699999,1.0223240852355957,-9.818621635437012,1.048660397529602,-0.1068115234375,0.6103515625,-0.5645751953125
17.4899999,1.015141487121582,-9.818621635437012,1.0534487962722778,-0.274658203125,0.5645751953125,-0.6866455078125
17.5099999,1.015141487121582,-9.818621635437012,1.048660397529602,-0.1983642578125,0.5645751953125,-0.2288818359375
17.5299999,1.0247182846069336,-9.821015357971191,1.0438719987869263,0,0.6561279296875,-0.0457763671875
17.5499999,1.0319008827209473,-9.821015357971191,1.039083480834961,-0.0762939453125,0.6561279296875,-0.274658203125
17.5699999,1.0319008827209473,-9.821015357971191,1.039083480834961,-0.18310546875,0.6103515625,-0.396728515625
17.589999900000002,1.0247182846069336,-9.821015357971191,1.0438719987869263,-0.1983642578125,0.6561279296875,-0.3509521484375
17.609999900000002,1.0247182846069336,-9.821015357971191,1.05105459690094,-0.06103515625,0.701904296875,-0.5035400390625
17.6299999,1.0271124839782715,-9.821015357971191,1.0534487962722778,-0.030517578125,0.6256103515625,-0.42724609375
17.6499999,1.0319008827209473,-9.823410034179688,1.05105459690094,-0.3204345703125,0.5035400390625,-0.1373291015625
17.6699999,1.036689281463623,-9.823410034179688,1.048660397529602,-0.1220703125,0.6103515625,-0.1983642578125
17.6899999,1.039083480834961,-9.823410034179688,1.0438719987869263,0.0762939453125,0.67138671875,-0.3204345703125
17.7099999,1.0342950820922852,-9.823410034179688,1.039083480834961,-0.1373291015625,0.6256103515625,-0.213623046875
17.7299999,1.0319008827209473,-9.823410034179688,1.0414776802062988,-0.2288818359375,0.7171630859375,-0.3509521484375
17.749999900000002,1.0295066833496094,-9.823410034179688,1.0414776802062988,-0.1373291015625,0.67138671875,-0.3509521484375
17.769999900000002,1.0295066833496094,-9.823410034179688,1.039083480834961,-0.030517578125,0.6103515625,-0.2288818359375
17.7899999,1.0319008827209473,-9.823410034179688,1.0342950820922852,0.06103515625,0.6866455078125,-0.152587890625
17.8099999,1.0295066833496094,-9.821015357971191,1.0319008827209473,-0.06103515625,0.7781982421875,-0.1983642578125
17.8299999,1.0271124839782715,-9.818621635437012,1.039083480834961,-0.0762939453125,0.67138671875,-0.30517578125
17.8499999,1.0247182846069336,-9.816226959228516,1.048660397529602,-0.1220703125,0.6103515625,-0.3509521484375
17.8699999,1.0223240852355957,-9.813833236694336,1.0558429956436157,-0.18310546875,0.6866455078125,-0.3204345703125
17.8899999,1.0247182846069336,-9.813833236694336,1.0582371950149536,-0.152587890625,0.6256103515625,-0.244140625
17.909999900000003,1.0223240852355957,-9.813833236694336,1.0558429956436157,-0.213623046875,0.579833984375,-0.3814697265625
17.929999900000002,1.0271124839782715,-9.816226959228516,1.0462661981582642,-0.1678466796875,0.518798828125,-0.457763671875
17.9499999,1.0295066833496094,-9.821015357971191,1.0342950820922852,-0.091552734375,0.6103515625,-0.2288818359375
