# Time (seconds),Accel_X,Accel_Y,Accel_Z,Gyro_X,Gyro_Y,Gyro_Z
0.0099999,0.5674257874488831,-9.818621635437012,1.3934253454208374,0.030517578125,0.67138671875,-0.0762939453125
0.029999900000000003,0.5722141861915588,-9.821015357971191,1.3910311460494995,-0.06103515625,0.732421875,0.1983642578125
0.0499999,0.569819986820221,-9.821015357971191,1.3982137441635132,-0.0762939453125,0.762939453125,0.0457763671875
0.0699999,0.5650315880775452,-9.821015357971191,1.3982137441635132,-0.1373291015625,0.7171630859375,-0.274658203125
0.08999990000000001,0.5554547905921936,-9.821015357971191,1.3982137441635132,-0.335693359375,0.6256103515625,-0.1220703125
0.10999990000000001,0.5530605912208557,-9.818621635437012,1.3982137441635132,-0.2288818359375,0.640869140625,0.030517578125
0.1299999,0.5506663918495178,-9.816226959228516,1.400607943534851,-0.213623046875,0.640869140625,-0.1220703125
0.14999990000000002,0.545877993106842,-9.813833236694336,1.403002142906189,-0.30517578125,0.6256103515625,-0.2288818359375
0.1699999,0.5482721924781799,-9.81143856048584,1.4077905416488647,-0.1373291015625,0.7476806640625,-0.244140625
0.1899999,0.5482721924781799,-9.813833236694336,1.400607943534851,-0.0762939453125,0.7781982421875,-0.030517578125
0.20999990000000002,0.5530605912208557,-9.818621635437012,1.3910311460494995,-0.0762939453125,0.6866455078125,0.091552734375
0.2299999,0.5554547905921936,-9.821015357971191,1.3910311460494995,-0.0762939453125,0.7171630859375,-0.244140625
0.2499999,0.5530605912208557,-9.821015357971191,1.3958195447921753,-0.2593994140625,0.6103515625,-0.2288818359375
0.2699999,0.545877993106842,-9.818621635437012,1.4077905416488647,-0.396728515625,0.6256103515625,-0.091552734375
0.28999990000000003,0.5386953949928284,-9.816226959228516,1.41257905960083,-0.3204345703125,0.6866455078125,-0.1678466796875
0.3099999,0.5386953949928284,-9.816226959228516,1.400607943534851,-0.274658203125,0.67138671875,-0.3509521484375
0.3299999,0.5434837937355042,-9.816226959228516,1.3934253454208374,0.030517578125,0.640869140625,-0.3204345703125
0.34999990000000003,0.5506663918495178,-9.816226959228516,1.3862427473068237,-0.0762939453125,0.6103515625,-0.1068115234375
0.3699999,0.5602431893348694,-9.816226959228516,1.3886369466781616,-0.2288818359375,0.6103515625,0
0.3899999,0.5626373887062073,-9.813833236694336,1.403002142906189,-0.1983642578125,0.640869140625,-0.18310546875
0.40999990000000003,0.5602431893348694,-9.816226959228516,1.4053963422775269,-0.30517578125,0.8544921875,0.0457763671875
0.4299999,0.5482721924781799,-9.816226959228516,1.403002142906189,-0.213623046875,0.7781982421875,0.1373291015625
0.4499999,0.5363011956214905,-9.818621635437012,1.3982137441635132,-0.030517578125,0.6561279296875,-0.2288818359375
0.4699999,0.5291185975074768,-9.821015357971191,1.3934253454208374,-0.1678466796875,0.54931640625,-0.79345703125
0.4899999,0.5339069962501526,-9.821015357971191,1.400607943534851,-0.152587890625,0.5035400390625,-0.732421875
0.5099999,0.545877993106842,-9.821015357971191,1.4077905416488647,-0.3509521484375,0.6866455078125,-0.091552734375
0.5299999,0.5554547905921936,-9.821015357971191,1.4053963422775269,-0.396728515625,0.67138671875,0.1373291015625
0.5499999,0.5434837937355042,-9.821015357971191,1.403002142906189,-0.0152587890625,0.8087158203125,-0.335693359375
0.5699999,0.5315127968788147,-9.823410034179688,1.3934253454208374,-0.1220703125,0.5035400390625,-1.0223388671875
0.5899998999999999,0.524330198764801,-9.823410034179688,1.3910311460494995,-0.335693359375,0.4119873046875,-1.1138916015625
0.6099998999999999,0.5219359993934631,-9.821015357971191,1.4053963422775269,-0.2288818359375,0.5950927734375,-0.8087158203125
0.6299999,0.5147533416748047,-9.816226959228516,1.4173674583435059,-0.54931640625,0.4425048828125,-0.9918212890625
0.6499999,0.5219359993934631,-9.818621635437012,1.4197616577148438,-0.823974609375,0.18310546875,-1.89208984375
0.6699999,0.5602431893348694,-9.816226959228516,1.414973258972168,-0.3814697265625,0.2593994140625,-1.9683837890625
0.6899999,0.6009446382522583,-9.825803756713867,1.381454348564148,-0.2899169921875,0.79345703125,0.3509521484375
0.7099999,0.5889736413955688,-9.821015357971191,1.3766659498214722,0.335693359375,1.0986328125,1.312255859375
0.7299998999999999,0.507570743560791,-9.80904483795166,1.4245500564575195,0.0762939453125,0.18310546875,-1.800537109375
0.7499998999999999,0.4141969084739685,-9.816226959228516,1.4652514457702637,-2.227783203125,0.8697509765625,-4.33349609375
0.7699999,0.3878606855869293,-9.768342971801758,1.5945383310317993,-0.946044921875,7.3699951171875,0.0762939453125
0.7899999,0.44532153010368347,-9.785101890563965,1.599326729774475,-2.38037109375,14.2364501953125,-0.06103515625
0.8099999,0.5793967843055725,-9.751583099365234,1.6615760326385498,-2.0599365234375,24.1851806640625,-2.2735595703125
0.8299999,0.6919242739677429,-9.768342971801758,1.6735470294952393,-2.6397705078125,39.1082763671875,-3.2806396484375
0.8499998999999999,0.7541735172271729,-9.761159896850586,1.7190368175506592,-4.669189453125,64.117431640625,-7.0648193359375
0.8699998999999999,0.7661445140838623,-9.751583099365234,1.8267759084701538,-5.31005859375,81.8939208984375,-10.0860595703125
0.8899999,0.706289529800415,-9.742006301879883,1.8986018896102905,-7.659912109375,91.4306640625,-11.9781494140625
0.9099999,0.5985504388809204,-9.737217903137207,1.900996208190918,-10.406494140625,98.5565185546875,-13.73291015625
0.9299999,0.40222588181495667,-9.787496566772461,1.7621324062347412,-10.3759765625,101.287841796875,-14.0533447265625
0.9499999,0.3064578175544739,-9.938331604003906,1.5298948287963867,-6.40869140625,96.7864990234375,-8.8958740234375
0.9699998999999999,0.24899697303771973,-10.417171478271484,1.2306196689605713,1.64794921875,86.8988037109375,3.662109375
0.9899998999999999,0.2059013396501541,-11.14500904083252,0.9888052940368652,10.6048583984375,71.0906982421875,20.8740234375
1.0099999,0.19871874153614044,-11.930307388305664,0.9169792532920837,17.5933837890625,47.3480224609375,32.073974609375
1.0299999,0.05506663769483566,-12.713211059570312,1.0295066833496094,20.233154296875,31.3568115234375,25.299072265625
1.0499999,-0.17956513166427612,-13.15613842010498,1.4053963422775269,13.9923095703125,32.470703125,13.9617919921875
1.0699999,-0.5171475410461426,-13.218387603759766,1.9105730056762695,-3.5400390625,42.2821044921875,-0.5340576171875
1.0899999,-0.8834604024887085,-12.97657299041748,2.3798365592956543,-24.4293212890625,46.2493896484375,-24.810791015625
1.1099999,-1.1085153818130493,-12.495338439941406,2.7054479122161865,-39.3829345703125,40.6036376953125,-47.05810546875
1.1299999,-1.1109095811843872,-11.918335914611816,2.806004285812378,-54.351806640625,31.2042236328125,-52.490234375
1.1499999,-0.8595184087753296,-11.405977249145508,2.695871114730835,-73.760986328125,25.970458984375,-46.478271484375
1.1699998999999999,-0.49559974670410156,-11.05642318725586,2.4205379486083984,-90.6219482421875,24.90234375,-42.66357421875
1.1899998999999999,-0.14844051003456116,-10.84094524383545,2.0183119773864746,-98.114013671875,22.8424072265625,-45.440673828125
1.2099999,0.16759411990642548,-10.682928085327148,1.5610195398330688,-97.7020263671875,22.94921875,-52.337646484375
1.2299999,0.5123591423034668,-10.560823440551758,1.1228805780410767,-95.9320068359375,33.294677734375,-58.6700439453125
1.2499999,0.9265560507774353,-10.47702693939209,0.7326257228851318,-95.1080322265625,52.8106689453125,-59.844970703125
1.2699999,1.3718775510787964,-10.450690269470215,0.3878606855869293,-93.2159423828125,67.3370361328125,-54.595947265625
1.2899999,1.745373010635376,-10.450690269470215,0.031124621629714966,-90.118408203125,66.7266845703125,-45.1812744140625
1.3099999,1.968033790588379,-10.431536674499512,-0.36152446269989014,-88.592529296875,56.9000244140625,-37.6129150390625
1.3299999,2.030282974243164,-10.342951774597168,-0.790086567401886,-85.2508544921875,47.0123291015625,-36.529541015625
1.3499999,1.9608511924743652,-10.177751541137695,-1.2330138683319092,-77.850341796875,42.96875,-40.069580078125
1.3699999,1.889025092124939,-9.93593692779541,-1.6496049165725708,-69.76318359375,40.8477783203125,-46.5850830078125
1.3899999,1.8842366933822632,-9.6989107131958,-2.030282974243164,-63.201904296875,41.9464111328125,-54.6417236328125
1.4099999,1.9584569931030273,-9.509769439697266,-2.389413356781006,-57.2052001953125,44.3267822265625,-59.1888427734375
1.4299998999999999,2.118868589401245,-9.385271072387695,-2.717418909072876,-48.64501953125,38.39111328125,-56.3812255859375
1.4499999,2.2888567447662354,-9.311050415039062,-3.00711727142334,-37.811279296875,28.1829833984375,-50.933837890625
1.4699999,2.4444799423217773,-9.251194953918457,-3.246537446975708,-28.86962890625,24.6429443359375,-49.2401123046875
1.4899999,2.5713725090026855,-9.133879661560059,-3.399766445159912,-21.4996337890625,26.580810546875,-51.3763427734375
1.5099999,2.674323320388794,-8.942343711853027,-3.4548330307006836,-12.4053955078125,28.961181640625,-53.7567138671875
1.5299999,2.7078421115875244,-8.707711219787598,-3.4763808250427246,-0.701904296875,32.6995849609375,-55.908203125
1.5499999,2.7102363109588623,-8.4108304977417,-3.442862033843994,12.176513671875,32.012939453125,-57.06787109375
1.5699999,2.7269957065582275,-8.125920295715332,-3.35667085647583,22.8118896484375,25.9857177734375,-59.2193603515625
1.5899999,2.786850690841675,-7.841010570526123,-3.1914708614349365,28.045654296875,23.1475830078125,-62.4542236328125
1.6099999,2.959233283996582,-7.570465564727783,-2.9161376953125,29.0069580078125,27.52685546875,-65.338134765625
1.6299999,3.205836057662964,-7.338228225708008,-2.561795711517334,29.9835205078125,36.3922119140625,-68.5577392578125
1.6499999,3.4763808250427246,-7.129932880401611,-2.188300371170044,33.3709716796875,41.19873046875,-70.9991455078125
1.6699999,3.734954595565796,-6.9455790519714355,-1.8531121015548706,38.6199951171875,37.0635986328125,-73.089599609375
1.6899998999999999,3.936067581176758,-6.7708024978637695,-1.6136919260025024,44.5098876953125,28.1829833984375,-76.5228271484375
1.7099999,4.077325344085693,-6.574477672576904,-1.4628572463989258,49.13330078125,16.3116455078125,-81.3140869140625
1.7299999,4.206612586975098,-6.3733649253845215,-1.381454348564148,50.689697265625,3.0059814453125,-85.7391357421875
1.7499999,4.388571739196777,-6.172252178192139,-1.3048399686813354,48.6602783203125,-7.87353515625,-87.82958984375
1.7699999,4.67827033996582,-6.0597243309021,-1.2066776752471924,42.5872802734375,-10.7421875,-87.5244140625
1.7899999,5.070919036865234,-6.054935932159424,-1.072602391242981,33.538818359375,-5.889892578125,-83.953857421875
1.8099999,5.56173038482666,-6.112396717071533,-0.9050082564353943,23.040771484375,0.9613037109375,-76.7669677734375
1.8299999,6.1052141189575195,-6.162675380706787,-0.706289529800415,12.6800537109375,8.97216796875,-69.3511962890625
1.8499999,6.615179061889648,-6.157886981964111,-0.5434837937355042,4.486083984375,19.6075439453125,-63.7054443359375
1.8699999,7.024587631225586,-6.066906929016113,-0.42616790533065796,0.030517578125,24.017333984375,-57.5714111328125
1.8899999,7.285555839538574,-5.9304375648498535,-0.40701428055763245,-1.6937255859375,18.5089111328125,-50.262451171875
1.9099999,7.393294811248779,-5.748478412628174,-0.4620809257030487,-1.220703125,9.1552734375,-43.6248779296875
1.9299998999999999,7.42681360244751,-5.568912982940674,-0.5530605912208557,0.885009765625,5.218505859375,-40.374755859375
1.9499999,7.417236804962158,-5.403713226318359,-0.6584054827690125,4.1656494140625,5.401611328125,-38.8641357421875
1.9699999,7.422025203704834,-5.272032260894775,-0.751779317855835,7.3699951171875,-2.0294189453125,-35.6903076171875
1.9899999,7.486668586730957,-5.183446884155273,-0.7852981686592102,9.82666015625,-13.427734375,-31.79931640625
2.0099999,7.625532627105713,-5.130774021148682,-0.7565677165985107,11.29150390625,-14.9383544921875,-29.4647216796875
2.0299999,7.862558364868164,-5.078101634979248,-0.6320692300796509,11.7034912109375,-11.7340087890625,-25.7110595703125
2.0499999,8.152256965637207,-5.023035049438477,-0.4596867263317108,11.4593505859375,-13.092041015625,-18.1732177734375
2.0699999,8.432378768920898,-4.965574264526367,-0.28969839215278625,10.7421875,-19.8211669921875,-8.514404296875
2.0899999,8.671798706054688,-4.879383087158203,-0.14604631066322327,9.6893310546875,-24.5819091796875,0.1983642578125
2.1099999,8.875306129455566,-4.757278919219971,-0.031124621629714966,8.209228515625,-23.468017578125,6.4239501953125
2.1299999,9.074024200439453,-4.620809078216553,0.090979665517807,7.4615478515625,-22.03369140625,12.0697021484375
2.1499999,9.174580574035645,-4.546588897705078,0.12210428714752197,7.7362060546875,-28.3050537109375,19.9127197265625
2.1699999,9.174580574035645,-4.548983097076416,0.07661445438861847,8.7890625,-49.4384765625,29.9835205078125
2.1899999,9.069235801696777,-4.623203277587891,-0.026336219161748886,10.31494140625,-75.50048828125,37.90283203125
2.2099999,8.916007041931152,-4.692635536193848,-0.09576806426048279,10.6353759765625,-89.599609375,39.276123046875
2.2299999,8.820239067077637,-4.733336925506592,-0.05746084079146385,8.056640625,-88.3636474609375,36.1480712890625
2.2499999,8.647856712341309,-4.812345504760742,-0.026336219161748886,2.777099609375,-86.4105224609375,36.224365234375
2.2699999,8.360552787780762,-4.920084476470947,-0.07182604819536209,-2.3956298828125,-98.785400390625,43.3349609375
2.2899999,7.989450931549072,-5.066130638122559,-0.19632454216480255,-5.9051513671875,-110.626220703125,46.81396484375
2.3099999,7.577648162841797,-5.228936672210693,-0.4213795065879822,-8.636474609375,-103.1036376953125,40.3289794921875
2.3299999,7.161057472229004,-5.473145008087158,-0.7709329724311829,-9.3231201171875,-97.869873046875,36.4227294921875
2.3499999,6.739677906036377,-5.789179801940918,-1.235408067703247,-7.4920654296875,-125.1220703125,47.42431640625
2.3699999,6.378153324127197,-6.1267619132995605,-1.7501614093780518,-5.615234375,-161.2701416015625,61.370849609375
2.3899999,6.045359134674072,-6.469132900238037,-2.2625205516815186,-2.410888671875,-170.7916259765625,65.61279296875
2.4099999,5.628767967224121,-6.761225700378418,-2.784456491470337,1.129150390625,-174.62158203125,69.7784423828125
2.4299999,5.322310447692871,-6.916848659515381,-3.157952070236206,7.0648193359375,-203.369140625,81.4971923828125
2.4499999,5.013458251953125,-6.988674640655518,-3.445256233215332,12.5579833984375,-207.82470703125,82.4127197265625
2.4699999,4.699818134307861,-6.957550048828125,-3.6559460163116455,16.66259765625,-169.2657470703125,68.3441162109375
2.4899999,4.352658748626709,-6.993463039398193,-3.804386615753174,20.843505859375,-146.2860107421875,62.896728515625
2.5099999,3.9432501792907715,-7.0341644287109375,-3.9647979736328125,25.6500244140625,-171.295166015625,78.582763671875
2.5299999,3.469198226928711,-7.187393665313721,-4.1156325340271,30.8685302734375,-189.056396484375,86.334228515625
2.5499999,2.920926094055176,-7.3238630294799805,-4.261679172515869,36.5753173828125,-157.867431640625,72.967529296875
2.5699999,2.38462495803833,-7.429207801818848,-4.273650169372559,41.0919189453125,-128.72314453125,62.3931884765625
2.5899999,1.766920804977417,-7.524975776672363,-4.252102375030518,42.5872802734375,-139.3585205078125,68.42041015625
2.6099999,1.0893617868423462,-7.615955829620361,-4.182670593261719,41.8548583984375,-164.764404296875,76.8280029296875
2.6299999,0.43335050344467163,-7.649474620819092,-4.091690540313721,41.3360595703125,-164.9627685546875,72.6470947265625
2.6499999,-0.07661445438861847,-7.608773231506348,-3.9169139862060547,39.2608642578125,-153.8543701171875,66.3909912109375
2.6699999,-0.47165772318840027,-7.489062786102295,-3.670311212539673,33.2794189453125,-155.1666259765625,72.601318359375
2.6899999,-0.8164227604866028,-7.350199222564697,-3.4117374420166016,23.101806640625,-158.203125,80.2764892578125
2.7099999,-1.170764684677124,-7.2352776527404785,-3.2106244564056396,13.6871337890625,-148.92578125,79.1015625
2.7299999,-1.5083470344543457,-7.175422668457031,-3.0621838569641113,7.62939453125,-141.204833984375,81.085205078125
2.7499999,-1.8746598958969116,-7.1706342697143555,-2.985569477081299,1.2664794921875,-144.317626953125,96.923828125
2.7699999,-2.2816741466522217,-7.1706342697143555,-2.937685489654541,-8.453369140625,-146.1944580078125,113.4033203125
2.7899999,-2.736572504043579,-7.180211067199707,-2.9017724990844727,-18.5089111328125,-126.40380859375,111.724853515625
2.8099999,-3.2992098331451416,-7.168240070343018,-2.8634653091430664,-25.32958984375,-96.038818359375,103.179931640625
2.8299999,-3.97916316986084,-7.0772600173950195,-2.8634653091430664,-38.8031005859375,-79.8187255859375,96.343994140625
2.8499999,-4.728548526763916,-7.005434036254883,-2.940079689025879,-38.9251708984375,-90.576171875,102.752685546875
2.8699999,-5.434837818145752,-6.938396453857422,-3.0813376903533936,-28.8238525390625,-101.1810302734375,114.410400390625
2.8899999,-6.129156112670898,-6.861782073974609,-3.2800562381744385,-23.101806640625,-96.832275390625,122.8790283203125
2.9099999,-6.794744491577148,-6.701370716094971,-3.4165258407592773,-14.2364501953125,-98.7396240234375,131.28662109375
2.9299999,-7.462726593017578,-6.514622688293457,-3.469198226928711,-7.7362060546875,-102.5543212890625,121.4447021484375
2.9499999,-8.202534675598145,-6.270414352416992,-3.406949043273926,-5.4168701171875,-95.3521728515625,101.2115478515625
2.9699999,-8.908824920654297,-6.081272125244141,-3.272873640060425,-4.241943359375,-93.048095703125,92.9718017578125
2.9899999,-9.44752025604248,-5.9304375648498535,-3.069366693496704,-3.3111572265625,-101.3641357421875,98.0987548828125
3.0099999,-9.837775230407715,-5.856217384338379,-2.8634653091430664,-3.0364990234375,-97.3358154296875,100.0213623046875
3.0299999,-10.156203269958496,-5.767632007598877,-2.655169725418091,-3.1280517578125,-81.97021484375,96.160888671875
3.0499999,-10.462661743164062,-5.652710437774658,-2.4803929328918457,-3.265380859375,-81.390380859375,98.9837646484375
3.0699999,-10.812214851379395,-5.451597213745117,-2.296039342880249,-5.462646484375,-92.95654296875,108.001708984375
3.0899999,-11.188104629516602,-5.190629482269287,-2.126051187515259,-8.8958740234375,-88.8671875,107.666015625
3.1099999,-11.552022933959961,-4.8482584953308105,-1.944091796875,-11.8560791015625,-72.4029541015625,101.6387939453125
3.1299999,-11.90157699584961,-4.402936935424805,-1.6974890232086182,-15.9912109375,-60.4248046875,97.015380859375
3.1499999,-12.203246116638184,-3.9600095748901367,-1.5059528350830078,-21.636962890625,-44.219970703125,86.090087890625
3.1699999,-12.394782066345215,-3.531447410583496,-1.3766659498214722,-29.144287109375,-32.6995849609375,73.883056640625
3.1899999,-12.411541938781738,-3.1914708614349365,-1.3670891523361206,-37.261962890625,-33.0810546875,68.878173828125
3.2099999,-12.167332649230957,-2.9544448852539062,-1.4772224426269531,-42.510986328125,-35.7208251953125,68.2373046875
3.2299999,-11.66694450378418,-2.8634653091430664,-1.6927006244659424,-42.05322265625,-32.012939453125,66.2078857421875
3.2499999,-10.06043529510498,-3.0166940689086914,-2.1164743900299072,-29.3731689453125,-33.75244140625,66.9097900390625
3.2699999,-9.08838939666748,-3.1531636714935303,-2.183511972427368,-23.8037109375,-31.92138671875,60.9283447265625
3.2899999,-8.14028549194336,-3.2632968425750732,-2.123656988143921,-18.8140869140625,-19.1802978515625,47.760009765625
3.3099999,-7.242460250854492,-3.3231520652770996,-1.9608511924743652,-11.871337890625,-8.8348388671875,36.5753173828125
3.3299999000000002,-6.45476770401001,-3.308786630630493,-1.7525556087493896,-4.0435791015625,-9.8876953125,30.5633544921875
3.3499999,-5.839457988739014,-3.1866824626922607,-1.5298948287963867,4.3792724609375,-8.6822509765625,22.9644775390625
3.3699999,-5.446808815002441,-2.9065608978271484,-1.3192051649093628,14.2364501953125,-1.46484375,13.7786865234375
3.3899999,-5.410895824432373,-2.410961151123047,-1.0845733880996704,22.0947265625,-0.7171630859375,8.0413818359375
3.4099999,-5.810727596282959,-1.742978811264038,-0.8188169598579407,25.2227783203125,-1.4190673828125,2.197265625
3.4299999,-6.607996463775635,-1.0438719987869263,-0.5578489899635315,24.8565673828125,-3.0364990234375,1.6632080078125
3.4499999,-7.723694801330566,-0.37828385829925537,-0.28969839215278625,21.0723876953125,-19.012451171875,13.3514404296875
3.4699999,-8.937555313110352,0.1388636976480484,0.002394201699644327,14.5721435546875,-32.7911376953125,22.979736328125
3.4899999,-10.093954086303711,0.4668693244457245,0.2753331959247589,8.270263671875,-16.998291015625,20.44677734375
3.5099999,-11.15697956085205,0.6488286852836609,0.5219359993934631,1.6326904296875,9.4146728515625,13.7786865234375
3.5299999,-12.011710166931152,0.6488286852836609,0.6560112833976746,2.471923828125,15.7012939453125,9.7808837890625
3.5499999,-12.629413604736328,0.4884171485900879,0.6631938815116882,9.796142578125,-1.708984375,11.749267578125
3.5699999,-12.96460247039795,0.2585737705230713,0.5817909836769104,13.7481689453125,-13.3819580078125,14.7247314453125
3.5899999,-13.019668579101562,0.011971008032560349,0.48602294921875,15.655517578125,-8.4381103515625,16.0369873046875
3.6099999,-12.835315704345703,-0.1388636976480484,0.44771572947502136,14.984130859375,-6.65283203125,15.838623046875
3.6299999,-12.4785795211792,-0.19871874153614044,0.4644751250743866,13.092041015625,-12.6190185546875,14.2364501953125
3.6499999,-12.042834281921387,-0.17956513166427612,0.5123591423034668,8.2550048828125,-14.1754150390625,12.481689453125
3.6699999,-11.583148002624512,-0.15322890877723694,0.5554547905921936,4.791259765625,-9.979248046875,12.7410888671875
3.6899999,-11.135432243347168,-0.1412578970193863,0.5937620401382446,3.35693359375,-12.0697021484375,16.17431640625
3.7099999,-10.766724586486816,-0.15083470940589905,0.6272808313369751,1.0528564453125,-15.5487060546875,22.674560546875
3.7299999,-10.527304649353027,-0.14844051003456116,0.6631938815116882,-2.4566650390625,-8.544921875,24.2919921875
3.7499999,-10.433931350708008,-0.1412578970193863,0.6847416758537292,-4.7454833984375,3.2806396484375,17.425537109375
3.7699999,-10.47702693939209,-0.12928688526153564,0.6847416758537292,-5.2490234375,0.396728515625,11.41357421875
3.7899999,-10.548852920532227,-0.1388636976480484,0.6512228846549988,-5.645751953125,-13.2598876953125,9.3841552734375
3.8099999,-10.524910926818848,-0.20350714027881622,0.5793967843055725,-6.7596435546875,-13.7939453125,6.4697265625
3.8299999000000002,-10.350133895874023,-0.2992752194404602,0.5051765441894531,-5.9051513671875,-3.72314453125,5.218505859375
3.8499999,-10.086771965026855,-0.40701428055763245,0.4357447028160095,-4.1961669921875,-0.54931640625,8.1329345703125
3.8699999,-9.818621635437012,-0.49799394607543945,0.3711012601852417,-4.5318603515625,-3.4332275390625,9.8876953125
3.8899999,-9.646238327026367,-0.5602431893348694,0.31842881441116333,-5.3863525390625,-1.708984375,9.1552734375
3.9099999,-9.643844604492188,-0.5985504388809204,0.27054479718208313,-4.0740966796875,3.0670166015625,10.162353515625
3.9299999,-9.792284965515137,-0.6272808313369751,0.2322375625371933,-1.800537109375,1.46484375,11.9781494140625
3.9499999,-10.08437728881836,-0.6368576288223267,0.20111294090747833,1.2664794921875,-2.01416015625,9.3841552734375
3.9699999,-10.426748275756836,-0.6248866319656372,0.181959331035614,4.4097900390625,-2.8533935546875,2.3651123046875
3.9899999,-10.69489860534668,-0.5913678407669067,0.17717093229293823,7.5836181640625,-3.72314453125,-3.0364990234375
4.0099999,-10.821791648864746,-0.5386953949928284,0.2059013396501541,9.185791015625,-3.631591796875,-5.1116943359375
4.029999900000001,-10.795455932617188,-0.4644751250743866,0.26096799969673157,7.5836181640625,-0.091552734375,-6.256103515625
4.0499999,-10.680533409118652,-0.3758896589279175,0.33758243918418884,4.5166015625,3.9520263671875,-7.32421875
4.069999900000001,-10.508151054382324,-0.272938996553421,0.40462008118629456,1.03759765625,3.509521484375,-7.843017578125
4.0899999000000005,-10.307038307189941,-0.18914192914962769,0.45010992884635925,-2.50244140625,2.3040771484375,-7.6751708984375
4.1099999,-10.113107681274414,-0.13168109953403473,0.45010992884635925,-4.3792724609375,5.9051513671875,-5.950927734375
4.1299999000000005,-9.931148529052734,-0.11252748221158981,0.42377370595932007,-4.1961669921875,8.1024169921875,-3.3111572265625
4.1499999,-9.801861763000488,-0.1149216815829277,0.38067805767059326,-4.1046142578125,6.5155029296875,-0.4119873046875
4.1699999000000005,-9.758766174316406,-0.11971008777618408,0.33997663855552673,-3.936767578125,3.997802734375,2.86865234375
4.1899999,-9.787496566772461,-0.10773907601833344,0.31842881441116333,-3.570556640625,2.0599365234375,3.0975341796875
4.209999900000001,-9.861717224121094,-0.09576806426048279,0.304063618183136,-2.471923828125,4.425048828125,-1.6937255859375
4.2299999,-9.955090522766113,-0.0933738648891449,0.2968810200691223,-1.8310546875,5.035400390625,-5.37109375
4.249999900000001,-10.014945983886719,-0.11252748221158981,0.2944868206977844,0.213623046875,0.0152587890625,-3.4942626953125
4.2699999,-10.029311180114746,-0.15801730751991272,0.2992752194404602,1.2359619140625,-2.6092529296875,-0.823974609375
4.289999900000001,-9.995792388916016,-0.20350714027881622,0.3232172429561615,1.2359619140625,0,-0.5035400390625
4.3099999,-9.950302124023438,-0.23702596127986908,0.35913026332855225,0.9002685546875,3.5552978515625,-1.15966796875
4.329999900000001,-9.93354320526123,-0.24181437492370605,0.3998316824436188,0.1678466796875,3.5400390625,-1.2359619140625
4.3499999,-9.93593692779541,-0.24660277366638184,0.42377370595932007,-1.15966796875,1.9989013671875,-2.6702880859375
4.369999900000001,-9.955090522766113,-0.26096799969673157,0.42856210470199585,-2.197265625,2.7313232421875,-4.180908203125
4.3899999,-9.96945571899414,-0.2849099934101105,0.40222588181495667,-2.166748046875,3.509521484375,-2.685546875
4.409999900000001,-9.981427192687988,-0.31124621629714966,0.3519476354122162,-1.4190673828125,3.173828125,-0.5645751953125
4.4299999,-10.002974510192871,-0.33518823981285095,0.28969839215278625,-0.8697509765625,2.1209716796875,-0.579833984375
4.449999900000001,-10.022128105163574,-0.3495534360408783,0.22266076505184174,-0.6256103515625,2.0904541015625,-1.678466796875
4.4699999,-10.038887977600098,-0.3687070608139038,0.16519992053508759,-0.5035400390625,4.0283203125,-2.50244140625
4.489999900000001,-10.053253173828125,-0.37828385829925537,0.12449848651885986,-0.3662109375,6.0882568359375,-3.2196044921875
4.5099999,-10.062829971313477,-0.40222588181495667,0.10295066982507706,0.946044921875,6.0577392578125,-5.4931640625
4.529999900000001,-10.070012092590332,-0.42616790533065796,0.09816227108240128,2.1514892578125,3.3111572265625,-6.2255859375
4.5499999,-10.062829971313477,-0.4572925269603729,0.11013327538967133,0.9002685546875,0.091552734375,-4.2266845703125
4.569999900000001,-10.034099578857422,-0.4812345504760742,0.12928688526153564,-0.7476806640625,0.30517578125,-2.9296875
4.5899999000000005,-10.012551307678223,-0.49320554733276367,0.15322890877723694,-1.15966796875,3.936767578125,-4.913330078125
4.609999900000001,-10.031704902648926,-0.47405192255973816,0.17238251864910126,-0.457763671875,7.0648193359375,-7.8125
4.6299999000000005,-10.098742485046387,-0.45489832758903503,0.16759411990642548,-0.244140625,5.8135986328125,-8.8653564453125
4.6499999,-10.259154319763184,-0.4429273009300232,0.14844051003456116,-0.67138671875,0.6103515625,-7.6751708984375
4.6699999000000005,-10.512939453125,-0.42616790533065796,0.10295066982507706,-0.8087158203125,-2.227783203125,-10.80322265625
4.6899999,-10.807426452636719,-0.4381389021873474,0.040701430290937424,-0.0152587890625,0.0457763671875,-20.9503173828125
4.709999900000001,-11.142614364624023,-0.45489832758903503,-0.040701430290937424,1.251220703125,4.4708251953125,-28.99169921875
4.7299999,-11.461043357849121,-0.5051765441894531,-0.15801730751991272,2.3040771484375,7.38525390625,-33.355712890625
4.749999900000001,-11.745953559875488,-0.5985504388809204,-0.31842881441116333,3.326416015625,8.0718994140625,-38.360595703125
4.7699999,-11.987768173217773,-0.7326257228851318,-0.5003881454467773,3.936767578125,9.1552734375,-44.43359375
4.789999900000001,-12.200851440429688,-0.8906430602073669,-0.6943184733390808,2.8839111328125,16.693115234375,-53.0548095703125
4.8099999,-12.306197166442871,-1.0821791887283325,-0.8882488012313843,2.6092529296875,29.4036865234375,-66.7266845703125
4.829999900000001,-12.27267837524414,-1.3263877630233765,-1.0582371950149536,6.500244140625,45.0439453125,-81.0546875
4.8499999,-12.198457717895508,-1.5945383310317993,-1.2306196689605713,14.0380859375,60.5621337890625,-88.531494140625
4.869999900000001,-12.078747749328613,-1.8818424940109253,-1.3958195447921753,23.5748291015625,63.2171630859375,-92.681884765625
4.8899999,-11.915942192077637,-2.166752576828003,-1.5179238319396973,30.181884765625,55.206298828125,-99.8992919921875
4.909999900000001,-11.702857971191406,-2.449268341064453,-1.6041151285171509,33.935546875,58.2427978515625,-105.7891845703125
4.9299999,-11.410765647888184,-2.7222073078155518,-1.6184803247451782,38.5894775390625,71.5484619140625,-105.1788330078125
4.949999900000001,-11.113883972167969,-2.985569477081299,-1.580173134803772,44.158935546875,81.5277099609375,-103.5308837890625
4.9699999,-10.919954299926758,-3.2154128551483154,-1.5394717454910278,49.5758056640625,84.7930908203125,-108.9935302734375
4.989999900000001,-10.709263801574707,-3.423708438873291,-1.4724340438842773,53.1158447265625,80.1239013671875,-118.22509765625
5.0099999,-10.472238540649414,-3.646369218826294,-1.4173674583435059,52.5665283203125,84.320068359375,-118.927001953125
5.029999900000001,-10.158597946166992,-3.88818359375,-1.3742717504501343,54.443359375,99.7161865234375,-110.9619140625
5.0499999,-9.84495735168457,-4.141968727111816,-1.3527239561080933,57.861328125,106.719970703125,-108.154296875
5.069999900000001,-9.603142738342285,-4.364629745483398,-1.3886369466781616,59.906005859375,98.876953125,-113.58642578125
5.0899999000000005,-9.373299598693848,-4.551377296447754,-1.4173674583435059,57.6019287109375,87.554931640625,-120.269775390625
5.109999900000001,-9.069235801696777,-4.728548526763916,-1.4484920501708984,53.89404296875,94.8944091796875,-126.3427734375
5.1299999000000005,-8.604761123657227,-4.944026470184326,-1.4532804489135742,53.6956787109375,111.175537109375,-132.476806640625
5.1499999,-8.085219383239746,-5.193023681640625,-1.455674648284912,53.192138671875,112.36572265625,-134.6282958984375
5.1699999000000005,-7.5848307609558105,-5.456385612487793,-1.4628572463989258,49.041748046875,99.1363525390625,-135.498046875
5.1899999,-7.117961883544922,-5.748478412628174,-1.4652514457702637,41.7327880859375,91.7816162109375,-140.6707763671875
5.209999900000001,-6.641515731811523,-6.069301128387451,-1.4676456451416016,34.7900390625,93.536376953125,-145.8282470703125
5.2299999,-6.102819919586182,-6.440402507781982,-1.4508862495422363,27.984619140625,92.3309326171875,-143.5699462890625
5.249999900000001,-5.506663799285889,-6.8593878746032715,-1.4748282432556152,19.805908203125,88.9434814453125,-135.5133056640625
5.2699999,-4.855441093444824,-7.328651428222656,-1.5490485429763794,10.55908203125,86.3494873046875,-126.40380859375
5.289999900000001,-4.244919776916504,-7.814674377441406,-1.699883222579956,1.6326904296875,87.1734619140625,-114.8681640625
5.3099999,-3.7445313930511475,-8.269572257995605,-1.920149803161621,-5.645751953125,89.935302734375,-103.69873046875
5.329999900000001,-3.3710360527038574,-8.686163902282715,-2.2002713680267334,-10.2081298828125,94.2535400390625,-100.2197265625
5.3499999,-3.1531636714935303,-9.002198219299316,-2.5306711196899414,-11.2762451171875,98.236083984375,-101.318359375
5.369999900000001,-3.0190882682800293,-9.210494041442871,-2.8658595085144043,-9.613037109375,95.5810546875,-101.837158203125
5.3899999,-2.896984100341797,-9.282320022583008,-3.1747114658355713,-7.843017578125,86.456298828125,-102.508544921875
5.409999900000001,-2.6623523235321045,-9.227252960205078,-3.380612850189209,-7.4920654296875,78.2928466796875,-105.682373046875
5.4299999,-2.298433542251587,-9.083600997924805,-3.469198226928711,-7.9345703125,79.9407958984375,-110.107421875
5.449999900000001,-1.7764976024627686,-8.863334655761719,-3.4165258407592773,-8.697509765625,86.7156982421875,-110.443115234375
5.4699999,-1.1300631761550903,-8.597578048706055,-3.265691041946411,-11.1846923828125,93.68896484375,-110.5804443359375
5.489999900000001,-0.4405331015586853,-8.310274124145508,-3.07415509223938,-13.0615234375,99.8992919921875,-111.6790771484375
5.5099999,0.22026655077934265,-8.015787124633789,-2.87064790725708,-14.2669677734375,103.118896484375,-109.344482421875
5.529999900000001,0.8236053586006165,-7.733271598815918,-2.691082715988159,-16.5252685546875,106.0333251953125,-104.0496826171875
5.5499999,1.3455413579940796,-7.484274387359619,-2.535459518432617,-19.5465087890625,109.375,-101.2420654296875
5.569999900000001,1.8076223134994507,-7.259219646453857,-2.3942017555236816,-22.5677490234375,110.2447509765625,-100.2349853515625
5.5899999000000005,2.2242133617401123,-7.058106422424316,-2.2697031497955322,-26.2603759765625,108.428955078125,-97.1527099609375
5.609999900000001,2.580949544906616,-6.885724067687988,-2.164358377456665,-30.7464599609375,105.682373046875,-92.1630859375
5.6299999000000005,2.896984100341797,-6.739677906036377,-2.075772762298584,-34.1644287109375,101.4404296875,-88.68408203125
5.6499999,3.2178070545196533,-6.610390663146973,-1.9919757843017578,-35.5224609375,98.480224609375,-89.41650390625
5.6699999000000005,3.5482068061828613,-6.521805286407471,-1.922544002532959,-34.1949462890625,101.409912109375,-93.505859375
5.6899999,3.957615375518799,-6.476315498352051,-1.8507179021835327,-32.2265625,109.3292236328125,-96.8170166015625
5.709999900000001,4.462791919708252,-6.497863292694092,-1.778891921043396,-34.48486328125,121.2005615234375,-100.3875732421875
5.7299999,5.003881454467773,-6.550535678863525,-1.7477672100067139,-35.919189453125,131.0272216796875,-104.3853759765625
5.749999900000001,5.5760955810546875,-6.66785192489624,-1.7621324062347412,-32.928466796875,131.591796875,-104.522705078125
5.7699999,6.1315507888793945,-6.761225700378418,-1.824381709098816,-27.4658203125,124.81689453125,-98.5260009765625
5.789999900000001,6.687005519866943,-6.8043212890625,-1.8722656965255737,-20.4925537109375,114.044189453125,-90.728759765625
5.8099999,7.201758861541748,-6.756437301635742,-1.8698714971542358,-13.946533203125,105.255126953125,-84.53369140625
5.829999900000001,7.692570209503174,-6.584054470062256,-1.802833914756775,-8.087158203125,96.6033935546875,-77.5604248046875
5.8499999,8.109161376953125,-6.327875137329102,-1.680729627609253,-2.0904541015625,81.298828125,-67.230224609375
5.869999900000001,8.398859977722168,-6.033388137817383,-1.5514427423477173,2.532958984375,61.676025390625,-54.6875
5.8899999,8.604761123657227,-5.702988624572754,-1.403002142906189,5.0506591796875,44.6014404296875,-42.144775390625
5.909999900000001,8.722076416015625,-5.310339450836182,-1.1994950771331787,4.9896240234375,35.7666015625,-31.7840576171875
5.9299999,8.769960403442383,-4.944026470184326,-1.015141487121582,2.6702880859375,34.210205078125,-24.4293212890625
5.949999900000001,8.746018409729004,-4.592078685760498,-0.8307880163192749,-0.3204345703125,32.0587158203125,-16.0980224609375
5.9699999,8.652645111083984,-4.357447147369385,-0.7493851184844971,-3.2196044921875,31.1737060546875,-12.0391845703125
5.989999900000001,8.537723541259766,-4.244919776916504,-0.7757213711738586,-4.4097900390625,35.0494384765625,-14.9383544921875
6.0099999,8.453926086425781,-4.247313976287842,-0.8858546018600464,-3.7384033203125,35.6903076171875,-18.829345703125
6.029999900000001,8.44434928894043,-4.355052947998047,-1.0247182846069336,-2.838134765625,31.2652587890625,-17.7154541015625
6.0499999,8.501810073852539,-4.553771495819092,-1.1492167711257935,-4.150390625,29.35791015625,-13.3056640625
6.069999900000001,8.635885238647461,-4.7836151123046875,-1.213860273361206,-8.4686279296875,34.24072265625,-9.6435546875
6.0899999000000005,8.80587387084961,-4.999093055725098,-1.2114660739898682,-13.6871337890625,43.2586669921875,-7.8277587890625
6.109999900000001,8.927978515625,-5.16429328918457,-1.1851298809051514,-18.6309814453125,49.6978759765625,-5.1727294921875
6.1299999000000005,8.980650901794434,-5.240907669067383,-1.1540051698684692,-23.5595703125,49.7283935546875,-1.861572265625
6.149999900000001,8.908824920654297,-5.274426460266113,-1.1348515748977661,-28.62548828125,50.201416015625,-2.716064453125
6.1699999000000005,8.767566680908203,-5.252878665924072,-1.1061211824417114,-33.843994140625,54.595947265625,-7.87353515625
6.1899999,8.609549522399902,-5.195417881011963,-1.0414776802062988,-39.3524169921875,60.8673095703125,-13.336181640625
6.209999900000001,8.468291282653809,-5.130774021148682,-0.9193734526634216,-46.08154296875,66.2994384765625,-17.5628662109375
6.2299999,8.377311706542969,-5.039794445037842,-0.727837324142456,-54.7332763671875,70.49560546875,-20.1873779296875
6.249999900000001,8.315062522888184,-4.941632270812988,-0.48602294921875,-63.8580322265625,74.9969482421875,-22.3236083984375
6.2699999,8.274360656738281,-4.853046894073486,-0.20111294090747833,-72.052001953125,76.4312744140625,-22.552490234375
6.289999900000001,8.26239013671875,-4.771644115447998,0.1364694982767105,-81.451416015625,75.7904052734375,-19.7906494140625
6.3099999,8.276755332946777,-4.711789131164551,0.524330198764801,-92.071533203125,81.4056396484375,-17.364501953125
6.329999900000001,8.288725852966309,-4.67827033996582,0.9911994934082031,-101.806640625,92.2393798828125,-16.510009765625
6.3499999,8.288725852966309,-4.704606533050537,1.4508862495422363,-110.53466796875,100.4180908203125,-15.13671875
6.369999900000001,8.2312650680542,-4.752490520477295,1.9129672050476074,-120.66650390625,106.26220703125,-14.9078369140625
6.3899999,8.14028549194336,-4.8482584953308105,2.2912509441375732,-128.997802734375,106.8115234375,-18.6309814453125
6.409999900000001,8.022970199584961,-4.982333660125732,2.58813214302063,-132.354736328125,105.743408203125,-24.4293212890625
6.4299999,7.888894557952881,-5.149928092956543,2.7724854946136475,-131.3934326171875,103.4088134765625,-27.618408203125
6.449999900000001,7.757213592529297,-5.367800235748291,2.8586769104003906,-128.082275390625,95.947265625,-27.64892578125
6.4699999,7.60637903213501,-5.623979568481445,2.8610711097717285,-122.406005859375,82.2296142578125,-26.4434814453125
6.489999900000001,7.462726593017578,-5.834669589996338,2.829946517944336,-115.6463623046875,65.9027099609375,-25.6805419921875
6.5099999,7.33583402633667,-5.961562156677246,2.7892448902130127,-107.9864501953125,51.3763427734375,-26.641845703125
6.529999900000001,7.254431247711182,-5.985504150390625,2.75812029838562,-99.8687744140625,39.61181640625,-28.106689453125
6.5499999,7.249642848968506,-5.904101371765137,2.760514497756958,-93.1854248046875,28.13720703125,-27.64892578125
6.569999900000001,7.338228225708008,-5.774814605712891,2.7748796939849854,-88.3636474609375,22.7203369140625,-25.7415771484375
6.5899999000000005,7.4986395835876465,-5.635950565338135,2.784456491470337,-83.67919921875,24.2462158203125,-23.101806640625
6.609999900000001,7.706935405731201,-5.509057998657227,2.7724854946136475,-78.155517578125,25.390625,-18.5699462890625
6.6299999000000005,7.891288757324219,-5.418078422546387,2.698265314102173,-73.3642578125,24.566650390625,-13.0157470703125
6.649999900000001,8.01339340209961,-5.351040840148926,2.557007312774658,-70.9991455078125,25.81787109375,-8.1329345703125
6.6699999000000005,8.066065788269043,-5.25527286529541,2.3942017555236816,-70.159912109375,29.96826171875,-4.8980712890625
6.6899999,8.056488990783691,-5.12119722366333,2.212242364883423,-69.5037841796875,35.247802734375,-3.4637451171875
6.709999900000001,8.034940719604492,-4.95120906829834,2.0470423698425293,-67.9779052734375,40.618896484375,-2.105712890625
6.7299999,8.056488990783691,-4.7405195236206055,1.9488801956176758,-67.7337646484375,45.4254150390625,0.2899169921875
6.749999900000001,8.159439086914062,-4.520252704620361,1.9105730056762695,-70.3582763671875,50.84228515625,2.38037109375
6.7699999,8.315062522888184,-4.311957359313965,1.9081788063049316,-73.883056640625,50.29296875,5.67626953125
6.789999900000001,8.47547435760498,-4.1156325340271,1.889025092124939,-76.2481689453125,40.618896484375,12.75634765625
6.8099999,8.597578048706055,-3.952826976776123,1.8100165128707886,-76.11083984375,30.8837890625,20.7672119140625
6.829999900000001,8.638279914855957,-3.7852327823638916,1.659181833267212,-73.2879638671875,27.0233154296875,25.970458984375
6.8499999,8.607154846191406,-3.5745432376861572,1.4748282432556152,-67.657470703125,24.8870849609375,26.3671875
6.869999900000001,8.362946510314941,-3.1220390796661377,0.9696516990661621,-50.3387451171875,7.598876953125,21.3470458984375
6.8899999,8.176198959350586,-2.9735984802246094,0.6919242739677429,-42.633056640625,-9.8419189453125,24.688720703125
6.909999900000001,8.018181800842285,-2.894589900970459,0.47644615173339844,-38.818359375,-20.4315185546875,29.1900634765625
6.9299999,7.948749542236328,-2.8371291160583496,0.36152446269989014,-38.3148193359375,-17.1661376953125,31.4178466796875
6.949999900000001,8.020575523376465,-2.894589900970459,0.3423708379268646,-38.3453369140625,-10.9710693359375,35.09521484375
6.9699999,8.17141056060791,-3.0358476638793945,0.3902548849582672,-40.2069091796875,-13.0615234375,45.4559326171875
6.989999900000001,8.346187591552734,-3.318363666534424,0.42856210470199585,-44.5556640625,-14.5263671875,59.0362548828125
7.0099999,8.40843677520752,-3.6080620288848877,0.43095630407333374,-47.943115234375,-8.4381103515625,69.061279296875
7.029999900000001,8.317456245422363,-3.73016619682312,0.3998316824436188,-47.1038818359375,-0.9918212890625,72.0062255859375
7.0499999,8.123526573181152,-3.7493197917938232,0.2777273952960968,-40.557861328125,2.410888671875,69.27490234375
7.069999900000001,7.860164165496826,-3.801992416381836,0.035913024097681046,-31.463623046875,-1.4801025390625,67.047119140625
7.0899999000000005,7.615955829620361,-4.050989151000977,-0.2801215946674347,-21.514892578125,-15.3350830078125,72.998046875
7.109999900000001,7.429207801818848,-4.572925090789795,-0.5961562395095825,-10.1470947265625,-26.1383056640625,84.503173828125
7.1299999000000005,7.283161640167236,-5.286397457122803,-0.8523358106613159,0.6103515625,-26.8096923828125,93.6431884765625
7.149999900000001,7.175422668457031,-6.1052141189575195,-1.0031704902648926,9.429931640625,-24.35302734375,97.991943359375
7.1699999000000005,7.062894821166992,-6.936002254486084,-1.0127472877502441,17.4407958984375,-21.1181640625,101.2115478515625
7.1899999,6.852205276489258,-7.649474620819092,-0.9481038451194763,21.0113525390625,-10.43701171875,103.302001953125
7.209999900000001,6.543353080749512,-8.135497093200684,-0.8212111592292786,18.5394287109375,1.8157958984375,100.3875732421875
7.2299999,6.145915985107422,-8.406042098999023,-0.6871358752250671,17.1356201171875,6.1187744140625,93.017578125
7.249999900000001,5.686229228973389,-8.492233276367188,-0.545877993106842,16.8304443359375,4.913330078125,85.8001708984375
7.2699999,5.240907669067383,-8.47547435760498,-0.42616790533065796,11.4593505859375,6.500244140625,80.7647705078125
7.289999900000001,4.855441093444824,-8.489839553833008,-0.33758243918418884,3.173828125,9.8114013671875,74.5391845703125
7.3099999,4.558559894561768,-8.578424453735352,-0.2753331959247589,-1.7547607421875,8.331298828125,68.05419921875
7.329999900000001,4.3406877517700195,-8.729259490966797,-0.26096799969673157,-4.8065185546875,4.1656494140625,65.887451171875
7.3499999,4.182670593261719,-8.956708908081055,-0.3016694188117981,-10.1776123046875,3.0059814453125,65.7196044921875
7.369999900000001,4.050989151000977,-9.224859237670898,-0.3758896589279175,-14.984130859375,0.9613037109375,62.530517578125
7.3899999,3.8953661918640137,-9.493009567260742,-0.45010992884635925,-15.4571533203125,-1.251220703125,57.098388671875
7.409999900000001,3.6727054119110107,-9.742006301879883,-0.5339069962501526,-14.6026611328125,-0.5340576171875,52.6885986328125
7.4299999,3.426102638244629,-9.895236015319824,-0.5578489899635315,-16.082763671875,-1.129150390625,48.2025146484375
7.449999900000001,3.181894063949585,-9.911994934082031,-0.524330198764801,-19.1497802734375,-6.16455078125,40.2374267578125
7.4699999,2.959233283996582,-9.837775230407715,-0.4908113479614258,-22.52197265625,-11.6729736328125,31.1737060546875
7.489999900000001,2.8371291160583496,-9.75637149810791,-0.45489832758903503,-23.3001708984375,-17.242431640625,26.2908935546875
7.5099999,2.7964274883270264,-9.804255485534668,-0.47644615173339844,-21.9268798828125,-18.49365234375,22.8271484375
7.529999900000001,2.851494312286377,-9.983820915222168,-0.5123591423034668,-19.5465087890625,-13.6871337890625,17.5323486328125
7.5499999,2.9472622871398926,-10.244789123535156,-0.5770025849342346,-16.9677734375,-7.354736328125,13.2598876953125
7.569999900000001,3.090914487838745,-10.47942066192627,-0.6368576288223267,-13.5955810546875,-4.6234130859375,12.3291015625
7.5899999000000005,3.2297780513763428,-10.675745010375977,-0.6943184733390808,-9.21630859375,-4.6234130859375,12.7410888671875
7.609999900000001,3.3207578659057617,-10.805032730102539,-0.7374141216278076,-6.6680908203125,-1.0528564453125,12.115478515625
7.6299999000000005,3.335123062133789,-10.876858711242676,-0.7805097699165344,-5.92041015625,3.8299560546875,10.9405517578125
7.649999900000001,3.287238836288452,-10.881647109985352,-0.8259995579719543,-2.25830078125,5.55419921875,9.246826171875
7.6699999000000005,3.1675288677215576,-10.84094524383545,-0.912190854549408,4.730224609375,5.37109375,6.5155029296875
7.6899999,3.043030261993408,-10.78587818145752,-1.0127472877502441,12.0697021484375,4.1656494140625,4.1046142578125
7.709999900000001,2.96162748336792,-10.718840599060059,-1.094150185585022,16.2811279296875,0.6103515625,3.2501220703125
7.7299999,2.9233202934265137,-10.649409294128418,-1.1324573755264282,16.571044921875,-3.3111572265625,3.4027099609375
7.749999900000001,2.9017724990844727,-10.556035041809082,-1.1300631761550903,15.19775390625,-6.9580078125,3.997802734375
7.7699999,2.87064790725708,-10.429142951965332,-1.113303780555725,12.8631591796875,-11.688232421875,3.5247802734375
7.789999900000001,2.8107926845550537,-10.256759643554688,-1.1228805780410767,8.36181640625,-16.082763671875,0.1678466796875
7.8099999,2.736572504043579,-10.046070098876953,-1.1563993692398071,2.4566650390625,-18.3258056640625,-5.37109375
7.829999900000001,2.669534921646118,-9.864110946655273,-1.2114660739898682,-3.5552978515625,-15.9454345703125,-11.0015869140625
7.8499999,2.612074136734009,-9.727641105651855,-1.2665326595306396,-9.3994140625,-10.009765625,-13.763427734375
7.869999900000001,2.5713725090026855,-9.655815124511719,-1.3287819623947144,-13.916015625,-4.0435791015625,-14.678955078125
7.8899999,2.516305923461914,-9.610325813293457,-1.414973258972168,-16.021728515625,-0.8544921875,-15.228271484375
7.909999900000001,2.4803929328918457,-9.526528358459473,-1.5298948287963867,-15.838623046875,-3.8604736328125,-15.93017578125
7.9299999,2.477998733520508,-9.368511199951172,-1.6519991159439087,-14.09912109375,-8.636474609375,-17.7764892578125
7.949999900000001,2.561795711517334,-9.129091262817383,-1.745373010635376,-11.9781494140625,-10.284423828125,-19.47021484375
7.9699999,2.717418909072876,-8.841787338256836,-1.800439715385437,-11.077880859375,-10.8795166015625,-18.798828125
7.989999900000001,2.9281086921691895,-8.544905662536621,-1.7860745191574097,-11.6424560546875,-14.5263671875,-14.22119140625
8.0099999,3.1699230670928955,-8.267178535461426,-1.699883222579956,-13.1378173828125,-16.0675048828125,-7.99560546875
8.0299999,3.3710360527038574,-8.034940719604492,-1.5753847360610962,-15.3961181640625,-8.575439453125,-3.7384033203125
8.049999900000001,3.49314022064209,-7.843404769897461,-1.4317326545715332,-17.8070068359375,1.190185546875,-0.9002685546875
8.069999900000001,3.5194764137268066,-7.718906402587891,-1.314416766166687,-18.4783935546875,5.035400390625,2.0599365234375
8.0899999,3.423708438873291,-7.6782050132751465,-1.2497732639312744,-17.4102783203125,2.5787353515625,5.1422119140625
8.1099999,3.2585084438323975,-7.714118003845215,-1.2066776752471924,-16.357421875,-0.1068115234375,8.056640625
8.129999900000001,3.0837318897247314,-7.836222171783447,-1.170764684677124,-16.4337158203125,2.716064453125,9.7198486328125
8.149999900000001,2.9065608978271484,-8.075642585754395,-1.137245774269104,-16.5557861328125,7.0648193359375,11.6729736328125
8.1699999,2.7246015071868896,-8.453926086425781,-1.115697979927063,-15.960693359375,6.2103271484375,16.693115234375
8.1899999,2.542642116546631,-8.9064302444458,-1.1180921792984009,-15.594482421875,2.38037109375,23.101806640625
8.2099999,2.3535003662109375,-9.366117477416992,-1.1444283723831177,-15.777587890625,1.678466796875,25.57373046875
8.229999900000001,2.2026655673980713,-9.703699111938477,-1.1755530834197998,-15.56396484375,5.0201416015625,23.1475830078125
8.2499999,2.0877439975738525,-9.876082420349121,-1.2186486721038818,-13.7939453125,9.185791015625,18.7530517578125
8.2699999,2.011129379272461,-9.9000244140625,-1.278503656387329,-11.2152099609375,11.322021484375,15.13671875
8.2899999,1.98958158493042,-9.854534149169922,-1.357512354850769,-8.8653564453125,12.8021240234375,12.298583984375
8.309999900000001,2.0254945755004883,-9.801861763000488,-1.436521053314209,-6.195068359375,15.2587890625,10.1318359375
8.3299999,2.1284453868865967,-9.792284965515137,-1.50355863571167,-3.6773681640625,19.1192626953125,10.55908203125
8.3499999,2.2816741466522217,-9.832986831665039,-1.5514427423477173,-1.77001953125,21.6064453125,14.4500732421875
8.3699999,2.432508945465088,-9.938331604003906,-1.601720929145813,-0.0152587890625,25.87890625,18.9208984375
8.389999900000001,2.5258827209472656,-10.086771965026855,-1.656787633895874,2.3956298828125,29.2510986328125,22.3236083984375
8.4099999,2.540247917175293,-10.24239444732666,-1.723825216293335,5.4473876953125,28.74755859375,25.08544921875
8.4299999,2.492363929748535,-10.359710693359375,-1.764526605606079,8.2550048828125,27.801513671875,26.6571044921875
8.4499999,2.425326347351074,-10.381258964538574,-1.7573440074920654,9.3994140625,29.5867919921875,24.6124267578125
8.469999900000001,2.3558945655822754,-10.304644584655762,-1.7094600200653076,9.1552734375,31.2957763671875,20.050048828125
8.4899999,2.298433542251587,-10.141838073730469,-1.6400281190872192,7.9498291015625,28.167724609375,16.204833984375
8.5099999,2.252943754196167,-9.931148529052734,-1.5729905366897583,6.1492919921875,21.0723876953125,12.939453125
8.5299999,2.2170307636260986,-9.696516990661621,-1.5131354331970215,3.5552978515625,15.228271484375,8.514404296875
8.549999900000001,2.205059766769409,-9.497797966003418,-1.4652514457702637,0.396728515625,14.34326171875,3.997802734375
8.569999900000001,2.2194249629974365,-9.35893440246582,-1.4317326545715332,-2.5634765625,16.143798828125,2.5482177734375
8.5899999,2.2601263523101807,-9.282320022583008,-1.4221558570861816,-4.8980712890625,16.4794921875,4.5318603515625
8.6099999,2.2912509441375732,-9.246406555175781,-1.4437036514282227,-6.8206787109375,14.312744140625,7.568359375
8.629999900000001,2.3104045391082764,-9.17697525024414,-1.479616641998291,-7.568359375,12.908935546875,10.162353515625
8.649999900000001,2.2577321529388428,-9.071630477905273,-1.5418659448623657,-6.1798095703125,13.5955810546875,12.451171875
8.6699999,2.1332337856292725,-8.923190116882324,-1.6160861253738403,-3.021240234375,11.7645263671875,15.5792236328125
8.6899999,1.9704279899597168,-8.762778282165527,-1.6903064250946045,-0.3814697265625,5.6304931640625,17.2119140625
8.709999900000001,1.8124107122421265,-8.609549522399902,-1.7286136150360107,-0.0762939453125,1.1749267578125,15.777587890625
8.729999900000001,1.7477672100067139,-8.47547435760498,-1.6950948238372803,-1.8157958984375,2.5634765625,14.068603515625
8.7499999,1.742978811264038,-8.403648376464844,-1.6184803247451782,-4.9285888671875,8.48388671875,14.7857666015625
8.7699999,1.7908629179000854,-8.425195693969727,-1.5298948287963867,-7.843017578125,12.0086669921875,18.12744140625
8.7899999,1.8387469053268433,-8.554482460021973,-1.4844050407409668,-10.2386474609375,10.2081298828125,22.4456787109375
8.809999900000001,1.845929503440857,-8.789113998413086,-1.4915876388549805,-12.115478515625,5.5694580078125,27.2674560546875
8.8299999,1.7932571172714233,-9.093177795410156,-1.5418659448623657,-13.6871337890625,3.8604736328125,32.7606201171875
8.8499999,1.6711528301239014,-9.425971984863281,-1.6328455209732056,-14.4195556640625,5.31005859375,36.80419921875
8.8699999,1.4628572463989258,-9.758766174316406,-1.7764976024627686,-13.0615234375,5.8441162109375,37.90283203125
8.889999900000001,1.2234370708465576,-10.02691650390625,-1.946485996246338,-8.819580078125,1.495361328125,36.80419921875
8.9099999,0.9959878921508789,-10.225635528564453,-2.118868589401245,-3.2501220703125,-1.922607421875,34.088134765625
8.9299999,0.8164227604866028,-10.340557098388672,-2.2457611560821533,0.152587890625,-1.8768310546875,31.7840576171875
8.9499999,0.706289529800415,-10.359710693359375,-2.293645143508911,0.5645751953125,0.213623046875,30.70068359375
8.969999900000001,0.6440402865409851,-10.290278434753418,-2.27209734916687,0.91552734375,3.23486328125,29.2816162109375
8.9899999,0.608127236366272,-10.139444351196289,-2.209848165512085,2.3956298828125,6.2713623046875,28.167724609375
9.0099999,0.5626373887062073,-9.93354320526123,-2.1547815799713135,4.1351318359375,7.1258544921875,28.80859375
9.0299999,0.507570743560791,-9.710882186889648,-2.097320795059204,4.6844482421875,3.7689208984375,30.7769775390625
9.049999900000001,0.4572925269603729,-9.495404243469238,-2.0446481704711914,5.18798828125,1.1138916015625,31.9976806640625
9.069999900000001,0.40701428055763245,-9.294290542602539,-1.987187385559082,6.5765380859375,5.92041015625,32.3944091796875
9.0899999,0.36152446269989014,-9.119514465332031,-1.8986018896102905,6.89697265625,10.8795166015625,34.5306396484375
9.1099999,0.31842881441116333,-8.983044624328613,-1.7860745191574097,5.401611328125,11.1541748046875,39.8406982421875
9.129999900000001,0.23702596127986908,-8.916007041931152,-1.6903064250946045,4.4708251953125,13.00048828125,45.5474853515625
9.149999900000001,0.10773907601833344,-8.939949035644531,-1.6519991159439087,4.8828125,11.566162109375,51.1932373046875
9.1699999,-0.043095629662275314,-9.026140213012695,-1.6543933153152466,6.1492919921875,-0.67138671875,56.7626953125
9.1899999,-0.20350714027881622,-9.131484985351562,-1.6711528301239014,7.3089599609375,-8.48388671875,58.3953857421875
9.209999900000001,-0.3495534360408783,-9.17936897277832,-1.6496049165725708,5.55419921875,2.1514892578125,54.7332763671875
9.229999900000001,-0.49559974670410156,-9.23443603515625,-1.6089035272598267,4.0130615234375,7.3089599609375,49.591064453125
9.2499999,-0.6488286852836609,-9.306262016296387,-1.5418659448623657,6.04248046875,2.74658203125,50.5523681640625
9.2699999,-0.8188169598579407,-9.421183586120605,-1.482010841369629,7.6446533203125,-4.8065185546875,55.694580078125
9.2899999,-1.0319008827209473,-9.603142738342285,-1.4245500564575195,6.378173828125,-4.4708251953125,57.12890625
9.309999900000001,-1.2330138683319092,-9.77791976928711,-1.359906554222107,4.69970703125,0.274658203125,54.412841796875
9.3299999,-1.4628572463989258,-9.943120002746582,-1.338358759880066,5.31005859375,0.3662109375,51.4984130859375
9.3499999,-1.7621324062347412,-10.127472877502441,-1.381454348564148,7.0648193359375,-9.27734375,50.8270263671875
9.3699999,-2.032677173614502,-10.283096313476562,-1.400607943534851,8.2855224609375,-19.1802978515625,49.49951171875
9.389999900000001,-2.2816741466522217,-10.41956615447998,-1.3838485479354858,8.544921875,-16.845703125,42.5567626953125
9.4099999,-2.4851813316345215,-10.529699325561523,-1.2976573705673218,7.537841796875,-6.6680908203125,33.843994140625
9.4299999,-2.5977089405059814,-10.591948509216309,-1.161187767982483,6.89697265625,-2.01416015625,28.6865234375
9.4499999,-2.7030537128448486,-10.66137981414795,-1.0630255937576294,6.53076171875,-5.859375,23.6663818359375
9.469999900000001,-2.806004285812378,-10.742782592773438,-1.0055646896362305,6.6986083984375,-10.3912353515625,17.6544189453125
9.4899999,-2.8826189041137695,-10.821791648864746,-0.9648633003234863,6.2103271484375,-11.6729736328125,13.9923095703125
9.5099999,-2.9233202934265137,-10.869675636291504,-0.9289502501487732,3.4332275390625,-14.3890380859375,10.3759765625
9.5299999,-2.9305028915405273,-10.881647109985352,-0.8906430602073669,1.373291015625,-20.5535888671875,4.9285888671875
9.549999900000001,-2.9257144927978516,-10.869675636291504,-0.8595184087753296,-0.1983642578125,-30.94482421875,1.0223388671875
9.569999900000001,-2.894589900970459,-10.8505220413208,-0.828393816947937,-2.777099609375,-39.5355224609375,0.30517578125
9.5899999,-2.8826189041137695,-10.896012306213379,-0.8212111592292786,-4.45556640625,-41.8853759765625,-1.6632080078125
9.6099999,-2.8993782997131348,-11.018115997314453,-0.849941611289978,-4.3182373046875,-39.85595703125,-8.331298828125
9.629999900000001,-2.96162748336792,-11.195286750793457,-0.9361328482627869,-3.9520263671875,-38.9556884765625,-19.3634033203125
9.649999900000001,-3.0526070594787598,-11.374852180480957,-1.0797849893569946,2.0751953125,-41.32080078125,-30.9295654296875
9.6699999,-3.114856481552124,-11.54244613647461,-1.2306196689605713,13.1988525390625,-42.999267578125,-44.4488525390625
9.6899999,-3.112462282180786,-11.702857971191406,-1.3407529592514038,23.6663818359375,-38.8641357421875,-57.5408935546875
9.709999900000001,-2.9927520751953125,-11.820174217224121,-1.3742717504501343,31.158447265625,-35.58349609375,-64.3310546875
9.729999900000001,-2.7509377002716064,-11.870451927185059,-1.316810965538025,38.63525390625,-38.3453369140625,-66.5130615234375
9.7499999,-2.43011474609375,-11.865663528442383,-1.1755530834197998,43.0908203125,-44.097900390625,-68.3746337890625
9.7699999,-2.070984363555908,-11.803414344787598,-0.9816226959228516,43.9300537109375,-49.98779296875,-68.1304931640625
9.7899999,-1.7190368175506592,-11.674127578735352,-0.7565677165985107,43.975830078125,-54.5806884765625,-67.2760009765625
9.809999900000001,-1.4532804489135742,-11.528080940246582,-0.5434837937355042,45.074462890625,-55.511474609375,-71.014404296875
9.8299999,-1.2713210582733154,-11.32457447052002,-0.35673606395721436,45.2117919921875,-59.539794921875,-77.972412109375
9.8499999,-1.170764684677124,-11.077971458435059,-0.20111294090747833,42.572021484375,-65.7958984375,-84.381103515625
9.8699999,-1.0630255937576294,-10.812214851379395,-0.05027823522686958,38.055419921875,-70.61767578125,-91.1712646484375
9.889999900000001,-0.950498104095459,-10.577583312988281,0.08858546614646912,33.782958984375,-69.6868896484375,-98.2208251953125
9.9099999,-0.8164227604866028,-10.359710693359375,0.17717093229293823,30.6549072265625,-70.831298828125,-102.874755859375
9.9299999,-0.6200982332229614,-10.156203269958496,0.2298433631658554,29.6478271484375,-77.606201171875,-106.7352294921875
9.9499999,-0.40701428055763245,-9.995792388916016,0.22744916379451752,29.96826171875,-85.2813720703125,-111.4501953125
9.969999900000001,-0.06703764945268631,-9.86889934539795,0.2513911724090576,30.8990478515625,-86.517333984375,-113.8153076171875
9.9899999,0.35913026332855225,-9.828198432922363,0.31124621629714966,30.9906005859375,-79.9102783203125,-113.189697265625
10.0099999,0.8523358106613159,-9.821015357971191,0.4141969084739685,29.8004150390625,-72.7081298828125,-107.6812744140625
10.0299999,1.3886369466781616,-9.828198432922363,0.5650315880775452,29.72412109375,-70.98388671875,-100.2655029296875
10.049999900000001,1.9033904075622559,-9.821015357971191,0.7158663272857666,30.609130859375,-67.535400390625,-94.17724609375
10.069999900000001,2.315192937850952,-9.81143856048584,0.8523358106613159,30.9600830078125,-62.92724609375,-84.8846435546875
10.0899999,2.6599581241607666,-9.730035781860352,0.9983820915222168,32.3486328125,-60.3485107421875,-73.272705078125
10.1099999,2.8610711097717285,-9.586383819580078,1.1228805780410767,35.491943359375,-54.1839599609375,-68.0389404296875
10.129999900000001,2.9520506858825684,-9.318233489990234,1.2330138683319092,39.48974609375,-46.0052490234375,-67.535400390625
10.149999900000001,3.0382418632507324,-8.980650901794434,1.3551181554794312,43.5333251953125,-41.4276123046875,-66.5283203125
10.1699999,3.1076738834381104,-8.681375503540039,1.4508862495422363,45.4559326171875,-39.0167236328125,-61.1572265625
10.1899999,3.2106244564056396,-8.415618896484375,1.556231141090393,45.71533203125,-39.825439453125,-50.628662109375
10.209999900000001,3.3734302520751953,-8.188169479370117,1.680729627609253,45.7763671875,-39.6881103515625,-44.1436767578125
10.229999900000001,3.5434184074401855,-7.94635534286499,1.8052281141281128,45.928955078125,-32.073974609375,-45.41015625
10.2499999,3.73016619682312,-7.668628215789795,1.9345149993896484,43.8232421875,-22.613525390625,-49.3011474609375
10.2699999,3.936067581176758,-7.402871608734131,2.0398597717285156,42.1295166015625,-19.622802734375,-51.0711669921875
10.2899999,4.125209331512451,-7.189787864685059,2.1092917919158936,41.80908203125,-20.7672119140625,-50.811767578125
10.309999900000001,4.3191399574279785,-7.005434036254883,2.1811177730560303,41.19873046875,-19.4244384765625,-51.0711669921875
10.3299999,4.54419469833374,-6.833051681518555,2.279279947280884,38.9862060546875,-15.56396484375,-53.0242919921875
10.3499999,4.76924991607666,-6.720524311065674,2.4013843536376953,33.3099365234375,-11.90185546875,-55.0384521484375
10.3699999,5.013458251953125,-6.586448669433594,2.557007312774658,25.970458984375,-8.636474609375,-54.3975830078125
10.389999900000001,5.279214859008789,-6.449979305267334,2.7126305103302,19.4244384765625,-5.18798828125,-53.6041259765625
10.4099999,5.540182590484619,-6.2847795486450195,2.8586769104003906,13.4735107421875,-0.4730224609375,-55.572509765625
10.4299999,5.78678560256958,-6.095637321472168,2.96162748336792,7.110595703125,2.8076171875,-55.5419921875
10.4499999,6.00226354598999,-5.947196960449219,3.026270866394043,1.4801025390625,-1.1138916015625,-50.9185791015625
10.469999900000001,6.2416839599609375,-5.722142219543457,3.0573954582214355,-6.6986083984375,-0.030517578125,-49.560546875
10.4899999,6.323086738586426,-5.5545477867126465,3.07415509223938,-11.16943359375,2.3956298828125,-55.35888671875
10.5099999,6.402095317840576,-5.339069843292236,3.0837318897247314,-15.9912109375,1.3580322265625,-58.4716796875
10.5299999,6.512228488922119,-5.106832027435303,3.093308687210083,-20.4010009765625,-2.2125244140625,-56.4117431640625
10.549999900000001,6.63433313369751,-4.910507678985596,3.0813376903533936,-24.7650146484375,-7.1258544921875,-52.9022216796875
10.569999900000001,6.787561893463135,-4.764461517333984,3.0526070594787598,-28.50341796875,-13.1072998046875,-49.7589111328125
10.5899999,6.976703643798828,-4.668693542480469,3.0190882682800293,-30.914306640625,-17.578125,-47.0733642578125
10.6099999,7.19936466217041,-4.608838081359863,2.980781078338623,-32.745361328125,-18.8751220703125,-45.0439453125
10.629999900000001,7.4555439949035645,-4.575319290161133,2.9257144927978516,-33.6456298828125,-18.3258056640625,-44.2047119140625
10.649999900000001,7.706935405731201,-4.570530891418457,2.849100112915039,-32.28759765625,-19.073486328125,-43.487548828125
10.6699999,7.95832633972168,-4.55616569519043,2.7509377002716064,-29.2510986328125,-21.3775634765625,-40.6494140625
10.6899999,8.159439086914062,-4.563348293304443,2.6144683361053467,-25.299072265625,-22.308349609375,-37.078857421875
10.709999900000001,8.293514251708984,-4.584896087646484,2.4444799423217773,-20.904541015625,-24.0478515625,-33.5540771484375
10.729999900000001,8.374917984008789,-4.60165548324585,2.229001760482788,-15.167236328125,-30.853271484375,-29.571533203125
10.7499999,8.437167167663574,-4.608838081359863,1.9967641830444336,-7.7056884765625,-39.2608642578125,-26.1993408203125
10.7699999,8.492233276367188,-4.606443881988525,1.764526605606079,-0.396728515625,-42.17529296875,-22.705078125
10.7899999,8.552088737487793,-4.572925090789795,1.5490485429763794,6.8206787109375,-39.61181640625,-17.1966552734375
10.809999900000001,8.616731643676758,-4.522646903991699,1.3862427473068237,15.594482421875,-35.8428955078125,-12.1002197265625
10.8299999,8.645462036132812,-4.426878929138184,1.2761094570159912,24.1241455078125,-30.2276611328125,-9.3994140625
10.8499999,8.640673637390137,-4.2951979637146,1.2114660739898682,30.0750732421875,-22.9949951171875,-8.056640625
10.8699999,8.619126319885254,-4.158728122711182,1.1875240802764893,33.9813232421875,-19.3634033203125,-5.5694580078125
10.889999900000001,8.5903959274292,-4.098873138427734,1.1994950771331787,37.59765625,-20.8740234375,0.244140625
10.9099999,8.540117263793945,-4.132391929626465,1.2401964664459229,39.215087890625,-25.9246826171875,10.1165771484375
10.9299999,8.47786808013916,-4.220977783203125,1.3287819623947144,35.919189453125,-31.55517578125,18.98193359375
10.9499999,8.38449478149414,-4.311957359313965,1.455674648284912,29.6630859375,-31.79931640625,21.209716796875
10.969999900000001,8.259995460510254,-4.357447147369385,1.5682021379470825,23.6358642578125,-25.7415771484375,18.798828125
10.9899999,8.142680168151855,-4.371812343597412,1.6208745241165161,20.4010009765625,-19.8211669921875,16.4947509765625
11.0099999,8.068459510803223,-4.3861775398254395,1.577778935432434,20.3704833984375,-18.0816650390625,16.4642333984375
11.0299999,8.04691219329834,-4.4532151222229,1.4413094520568848,22.6593017578125,-19.775390625,19.1192626953125
11.049999900000001,8.092401504516602,-4.551377296447754,1.2665326595306396,26.885986328125,-25.1007080078125,25.1007080078125
11.069999900000001,8.20732307434082,-4.651933670043945,1.1324573755264282,31.25,-31.0211181640625,32.8826904296875
11.0899999,8.355764389038086,-4.73573112487793,1.0678139925003052,33.2794189453125,-31.3262939453125,38.8336181640625
11.1099999,8.47786808013916,-4.793191909790039,1.0797849893569946,33.905029296875,-28.7017822265625,43.9910888671875
11.129999900000001,8.53293514251709,-4.879383087158203,1.113303780555725,34.3017578125,-29.9835205078125,52.7496337890625
11.149999900000001,8.415618896484375,-5.018246650695801,1.1013327836990356,34.5458984375,-39.5965576171875,66.2841796875
11.1699999,8.128314971923828,-5.173870086669922,1.0199298858642578,34.8052978515625,-54.2755126953125,78.4912109375
11.1899999,7.7213006019592285,-5.305551052093506,0.8762778043746948,35.552978515625,-64.0869140625,81.268310546875
11.209999900000001,7.261613845825195,-5.4228668212890625,0.6991068720817566,37.139892578125,-65.4296875,76.5533447265625
11.229999900000001,6.868964672088623,-5.564124584197998,0.5267243981361389,39.5355224609375,-61.3555908203125,73.8983154296875
11.2499999,6.557718276977539,-5.813121795654297,0.37828385829925537,41.0003662109375,-55.2825927734375,75.164794921875
11.2699999,6.325480937957764,-6.14831018447876,0.24660277366638184,40.618896484375,-50.7659912109375,78.18603515625
11.2899999,6.117185115814209,-6.5265936851501465,0.1364694982767105,40.3900146484375,-49.0264892578125,80.1239013671875
11.309999900000001,5.8873419761657715,-6.904877662658691,0.028730420395731926,40.8782958984375,-47.3785400390625,80.902099609375
11.3299999,5.616796970367432,-7.218518257141113,-0.07422025501728058,41.015625,-44.98291015625,82.5653076171875
11.3499999,5.365406036376953,-7.5201873779296875,-0.1364694982767105,41.1224365234375,-40.2679443359375,82.0770263671875
11.3699999,5.1331682205200195,-7.795520782470703,-0.1412578970193863,41.93115234375,-29.47998046875,79.1168212890625
11.389999900000001,4.929661273956299,-8.032546997070312,-0.08858546614646912,42.48046875,-13.48876953125,77.8656005859375
11.4099999,4.747702121734619,-8.259995460510254,-0.014365210197865963,41.7327880859375,-1.4495849609375,76.141357421875
11.4299999,4.55616569519043,-8.501810073852539,0.08379705995321274,40.435791015625,0.7171630859375,72.723388671875
11.4499999,4.347870349884033,-8.738836288452148,0.17238251864910126,38.909912109375,-0.2899169921875,71.6400146484375
11.469999900000001,4.144362926483154,-8.959102630615234,0.29209262132644653,36.407470703125,0.4425048828125,71.5484619140625
11.4899999,3.9384617805480957,-9.162610054016113,0.45489832758903503,31.7840576171875,4.4708251953125,68.42041015625
11.5099999,3.7158010005950928,-9.313444137573242,0.629675030708313,24.7802734375,10.711669921875,64.117431640625
11.5299999,3.471592426300049,-9.41639518737793,0.7948749661445618,17.120361328125,13.8702392578125,60.577392578125
11.549999900000001,3.1890766620635986,-9.478644371032715,0.8882488012313843,10.7574462890625,14.4500732421875,56.9000244140625
11.569999900000001,2.8802247047424316,-9.50498104095459,0.8978256583213806,5.889892578125,12.0849609375,52.5054931640625
11.5899999,2.5689783096313477,-9.533711433410645,0.8355764150619507,2.1209716796875,6.34765625,47.5006103515625
11.6099999,2.296039342880249,-9.555258750915527,0.7350199222564697,-0.946044921875,0.91552734375,43.88427734375
11.629999900000001,2.1140801906585693,-9.569623947143555,0.6512228846549988,-4.2724609375,-1.1138916015625,41.6259765625
11.649999900000001,2.0446481704711914,-9.591172218322754,0.6153098344802856,-9.5672607421875,1.15966796875,39.2303466796875
11.6699999,2.078166961669922,-9.593565940856934,0.6153098344802856,-16.7694091796875,6.0577392578125,38.6505126953125
11.6899999,2.1930887699127197,-9.610325813293457,0.6392518281936646,-22.6593017578125,10.772705078125,40.22216796875
11.709999900000001,2.3319525718688965,-9.703699111938477,0.6536170840263367,-24.84130859375,13.7481689453125,43.3502197265625
11.729999900000001,2.3918075561523438,-9.8784761428833,0.6416460275650024,-25.8331298828125,12.14599609375,51.2847900390625
11.7499999,2.3487119674682617,-10.098742485046387,0.5889736413955688,-27.008056640625,5.18798828125,61.7523193359375
11.7699999,2.1571757793426514,-10.307038307189941,0.5171475410461426,-25.08544921875,-3.8909912109375,65.00244140625
11.7899999,1.8602946996688843,-10.433931350708008,0.4165911078453064,-20.294189453125,-9.6435546875,59.3719482421875
11.809999900000001,1.534683346748352,-10.462661743164062,0.31842881441116333,-16.082763671875,-12.8936767578125,51.1474609375
11.8299999,1.2617442607879639,-10.438719749450684,0.2346317619085312,-14.7705078125,-17.3797607421875,44.281005859375
11.8499999,1.0965443849563599,-10.42195987701416,0.19393034279346466,-15.68603515625,-20.721435546875,38.787841796875
11.8699999,1.0462661981582642,-10.433931350708008,0.17238251864910126,-17.059326171875,-18.3258056640625,35.6292724609375
11.889999900000001,1.0606313943862915,-10.460267066955566,0.15083470940589905,-17.791748046875,-13.5650634765625,33.843994140625
11.9099999,1.091755986213684,-10.465055465698242,0.08858546614646912,-17.822265625,-11.627197265625,30.853271484375
11.9299999,1.1061211824417114,-10.45547866821289,-0.026336219161748886,-15.838623046875,-11.566162109375,25.4974365234375
11.9499999,1.094150185585022,-10.441113471984863,-0.19632454216480255,-10.6201171875,-10.101318359375,20.3704833984375
11.969999900000001,1.0462661981582642,-10.44350814819336,-0.3758896589279175,-3.90625,-7.32421875,18.707275390625
11.9899999,0.9792284965515137,-10.457873344421387,-0.5410895943641663,1.1138916015625,-7.8277587890625,19.317626953125
12.0099999,0.8858546018600464,-10.460267066955566,-0.6631938815116882,4.9896240234375,-15.4876708984375,20.99609375
12.0299999,0.7996633648872375,-10.441113471984863,-0.6991068720817566,8.0108642578125,-17.8070068359375,22.5982666015625
12.049999900000001,0.7422025203704834,-10.469843864440918,-0.6775590777397156,8.23974609375,-8.6212158203125,23.9715576171875
12.069999900000001,0.6823474764823914,-10.302249908447266,-0.5195417404174805,2.044677734375,9.429931640625,18.3258056640625
12.0899999,0.6200982332229614,-10.213664054870605,-0.3423708379268646,4.94384765625,10.528564453125,17.974853515625
12.1099999,0.5339069962501526,-9.96945571899414,-0.10773907601833344,1.312255859375,14.95361328125,14.0838623046875
12.129999900000001,0.4644751250743866,-9.787496566772461,0.07900865375995636,-4.57763671875,17.6239013671875,12.4969482421875
12.149999900000001,0.42377370595932007,-9.706093788146973,0.21787235140800476,-8.331298828125,17.578125,13.7786865234375
12.1699999,0.40701428055763245,-9.713275909423828,0.3064578175544739,-10.1165771484375,17.4560546875,14.9993896484375
12.1899999,0.395043283700943,-9.780313491821289,0.35434186458587646,-10.009765625,18.49365234375,15.1519775390625
12.209999900000001,0.3663128614425659,-9.864110946655273,0.38546648621559143,-8.9569091796875,17.51708984375,14.8773193359375
12.229999900000001,0.2968810200691223,-9.921571731567383,0.40940847992897034,-8.1329345703125,14.7705078125,14.9688720703125
12.2499999,0.1843535304069519,-9.950302124023438,0.4405331015586853,-7.0343017578125,13.397216796875,14.22119140625
12.2699999,0.021547814831137657,-9.962273597717285,0.47884035110473633,-5.218505859375,15.0604248046875,10.8489990234375
12.289999900000002,-0.16759411990642548,-9.95748519897461,0.5195417404174805,-2.716064453125,18.5089111328125,5.7220458984375
12.309999900000001,-0.35673606395721436,-9.955090522766113,0.5434837937355042,0.3204345703125,20.5535888671875,1.007080078125
12.3299999,-0.5099649429321289,-9.967061996459961,0.5578489899635315,4.1656494140625,19.04296875,-1.953125
12.3499999,-0.5985504388809204,-9.979032516479492,0.5578489899635315,8.4228515625,18.035888671875,-3.7689208984375
12.3699999,-0.6033388376235962,-9.979032516479492,0.5530605912208557,12.75634765625,19.04296875,-4.9896240234375
12.389999900000001,-0.5506663918495178,-9.95748519897461,0.5506663918495178,17.059326171875,18.951416015625,-5.6304931640625
12.4099999,-0.4357447028160095,-9.914389610290527,0.5482721924781799,21.4080810546875,17.425537109375,-5.4168701171875
12.4299999,-0.28969839215278625,-9.84495735168457,0.5530605912208557,26.275634765625,15.7470703125,-4.6844482421875
12.4499999,-0.12449848651885986,-9.775525093078613,0.5770025849342346,31.0516357421875,15.167236328125,-3.814697265625
12.469999900000001,0.021547814831137657,-9.703699111938477,0.6200982332229614,33.2794189453125,15.0909423828125,-2.0904541015625
12.4899999,0.12449848651885986,-9.63187313079834,0.689530074596405,32.1197509765625,13.7939453125,-0.6103515625
12.5099999,0.1867477297782898,-9.557653427124023,0.7709329724311829,29.7698974609375,13.427734375,-0.8392333984375
12.5299999,0.21787235140800476,-9.493009567260742,0.8667010068893433,27.496337890625,15.9149169921875,-1.678466796875
12.549999900000001,0.24420857429504395,-9.44752025604248,0.9624691009521484,24.169921875,19.6533203125,-0.8087158203125
12.569999900000001,0.2753331959247589,-9.425971984863281,1.0414776802062988,19.1802978515625,21.3165283203125,2.0294189453125
12.5899999,0.3232172429561615,-9.440337181091309,1.1013327836990356,14.068603515625,17.15087890625,5.767822265625
12.6099999,0.3711012601852417,-9.495404243469238,1.1348515748977661,9.3231201171875,12.0086669921875,10.009765625
12.629999900000001,0.4165911078453064,-9.586383819580078,1.1540051698684692,4.638671875,11.627197265625,14.5721435546875
12.649999900000001,0.4165911078453064,-9.706093788146973,1.1540051698684692,0.5950927734375,13.824462890625,17.5933837890625
12.6699999,0.33758243918418884,-9.864110946655273,1.1348515748977661,-1.52587890625,14.4500732421875,18.402099609375
12.6899999,0.15801730751991272,-10.04846477508545,1.0821791887283325,-1.3427734375,13.7176513671875,18.6920166015625
12.709999900000001,-0.10534487664699554,-10.251971244812012,1.0055646896362305,0.1983642578125,13.641357421875,18.6767578125
12.729999900000001,-0.4189853072166443,-10.44350814819336,0.9265560507774353,2.0599365234375,14.1754150390625,16.6168212890625
12.7499999,-0.7254431247711182,-10.579977035522461,0.8619126081466675,3.96728515625,16.0675048828125,10.8642578125
12.7699999,-0.9696516990661621,-10.627861022949219,0.8212111592292786,6.0577392578125,19.2718505859375,2.2735595703125
12.789999900000002,-1.0893617868423462,-10.579977035522461,0.8092401623725891,7.7667236328125,22.125244140625,-5.0048828125
12.809999900000001,-1.039083480834961,-10.472238540649414,0.8307880163192749,8.209228515625,23.1475830078125,-8.270263671875
12.8299999,-0.8451532125473022,-10.3549222946167,0.8906430602073669,7.171630859375,23.98681640625,-7.87353515625
12.8499999,-0.5482721924781799,-10.24239444732666,0.9720458984375,6.0577392578125,26.3519287109375,-5.67626953125
12.8699999,-0.2298433631658554,-10.165780067443848,1.0797849893569946,5.4931640625,28.3050537109375,-2.62451171875
12.889999900000001,0.019153613597154617,-10.125079154968262,1.1875240802764893,3.5400390625,27.313232421875,1.007080078125
12.9099999,0.14604631066322327,-10.11789608001709,1.2713210582733154,0.1678466796875,25.0396728515625,4.7607421875
12.9299999,0.13407529890537262,-10.139444351196289,1.3287819623947144,-2.655029296875,21.8353271484375,5.523681640625
12.9499999,0.004788403399288654,-10.170568466186523,1.3407529592514038,-4.364013671875,20.3399658203125,1.3885498046875
12.969999900000001,-0.1843535304069519,-10.204087257385254,1.3192051649093628,-5.8135986328125,19.8822021484375,-4.119873046875
12.9899999,-0.3758896589279175,-10.216058731079102,1.2880805730819702,-7.720947265625,18.5089111328125,-9.09423828125
13.0099999,-0.5386953949928284,-10.20887565612793,1.2521674633026123,-8.4228515625,18.280029296875,-15.6402587890625
13.0299999,-0.6392518281936646,-10.187328338623047,1.2258312702178955,-7.3699951171875,17.8070068359375,-23.6663818359375
13.049999900000001,-0.6607996821403503,-10.132261276245117,1.2186486721038818,-7.110595703125,16.5863037109375,-29.0679931640625
13.069999900000001,-0.5530605912208557,-10.070012092590332,1.2330138683319092,-5.67626953125,14.6484375,-29.8614501953125
13.0899999,-0.3495534360408783,-10.014945983886719,1.2832920551300049,-3.5247802734375,11.1541748046875,-27.0843505859375
13.1099999,-0.08858546614646912,-9.96945571899414,1.3623007535934448,-1.6632080078125,10.223388671875,-20.1873779296875
13.129999900000001,0.17717093229293823,-9.928754806518555,1.455674648284912,0.4425048828125,10.3759765625,-14.22119140625
13.149999900000001,0.363918662071228,-9.895236015319824,1.5418659448623657,3.1280517578125,11.2762451171875,-12.5579833984375
13.1699999,0.4620809257030487,-9.84495735168457,1.6065093278884888,6.8511962890625,12.359619140625,-12.054443359375
13.1899999,0.4596867263317108,-9.78989028930664,1.6280571222305298,10.68115234375,9.7503662109375,-11.29150390625
13.209999900000001,0.40940847992897034,-9.713275909423828,1.6352397203445435,14.0838623046875,4.4708251953125,-11.4593505859375
13.229999900000001,0.33039984107017517,-9.636661529541016,1.6400281190872192,16.357421875,2.685546875,-13.153076171875
13.2499999,0.2849099934101105,-9.545681953430176,1.6543933153152466,16.6778564453125,0.3662109375,-13.9923095703125
13.2699999,0.30885201692581177,-9.44752025604248,1.6879122257232666,16.2200927734375,-6.3934326171875,-12.8936767578125
13.289999900000002,0.40940847992897034,-9.339780807495117,1.7405846118927002,15.380859375,-12.115478515625,-10.3607177734375
13.309999900000001,0.5937620401382446,-9.232041358947754,1.821987509727478,11.5814208984375,-13.5345458984375,-7.568359375
13.3299999,0.8236053586006165,-9.129091262817383,1.9081788063049316,4.69970703125,-14.2059326171875,-4.3182373046875
13.3499999,1.0654197931289673,-9.050082206726074,1.9919757843017578,-2.01416015625,-14.556884765625,0.18310546875
13.3699999,1.2545616626739502,-9.002198219299316,2.0470423698425293,-7.87353515625,-14.34326171875,5.67626953125
13.389999900000001,1.3263877630233765,-8.990227699279785,2.054224967956543,-14.2822265625,-16.7694091796875,9.3841552734375
13.4099999,1.292868971824646,-8.992621421813965,2.0207061767578125,-21.8963623046875,-23.01025390625,9.1094970703125
13.4299999,1.1994950771331787,-8.999804496765137,1.968033790588379,-27.4200439453125,-24.261474609375,4.9285888671875
13.4499999,1.0989385843276978,-9.01895809173584,1.8962076902389526,-30.6396484375,-20.111083984375,-0.9002685546875
13.469999900000001,1.0414776802062988,-9.062053680419922,1.8100165128707886,-33.355712890625,-14.83154296875,-5.645751953125
13.4899999,1.039083480834961,-9.14345645904541,1.6903064250946045,-34.66796875,-13.4429931640625,-7.781982421875
13.5099999,1.0534487962722778,-9.246406555175781,1.5275006294250488,-33.0352783203125,-15.289306640625,-7.8582763671875
13.5299999,1.1061211824417114,-9.334992408752441,1.3263877630233765,-28.4881591796875,-20.08056640625,-6.4849853515625
13.549999900000001,1.1827356815338135,-9.375694274902344,1.1061211824417114,-22.918701171875,-26.0467529296875,-4.0435791015625
13.569999900000001,1.278503656387329,-9.339780807495117,0.9169792532920837,-16.90673828125,-33.447265625,-1.1444091796875
13.5899999,1.381454348564148,-9.251194953918457,0.7852981686592102,-9.82666015625,-38.8336181640625,2.13623046875
13.6099999,1.4652514457702637,-9.126696586608887,0.7110779285430908,-2.3651123046875,-41.1376953125,6.1187744140625
13.629999900000001,1.5155296325683594,-9.002198219299316,0.6871358752250671,4.9896240234375,-45.34912109375,10.5438232421875
13.649999900000001,1.50355863571167,-8.884882926940918,0.7038952708244324,12.02392578125,-52.9937744140625,14.7247314453125
13.6699999,1.4389152526855469,-8.779537200927734,0.7493851184844971,17.5628662109375,-54.718017578125,18.4478759765625
13.6899999,1.338358759880066,-8.688557624816895,0.8092401623725891,21.6217041015625,-49.560546875,20.99609375
13.709999900000001,1.2066776752471924,-8.631096839904785,0.871489405632019,24.8260498046875,-47.66845703125,23.0560302734375
13.729999900000001,1.0534487962722778,-8.607154846191406,0.9145850539207458,27.557373046875,-50.933837890625,25.146484375
13.7499999,0.9050082564353943,-8.580819129943848,0.9433154463768005,29.1748046875,-51.1016845703125,25.81787109375
13.7699999,0.7565677165985107,-8.559270858764648,0.9385270476341248,29.1748046875,-47.4395751953125,23.834228515625
13.789999900000002,0.6368576288223267,-8.520963668823242,0.933738648891449,28.8543701171875,-45.7611083984375,20.538330078125
13.809999900000001,0.5554547905921936,-8.47547435760498,0.9289502501487732,29.449462890625,-44.37255859375,18.3563232421875
13.8299999,0.47165772318840027,-8.465897560119629,0.9409212470054626,30.029296875,-38.7420654296875,18.6004638671875
13.8499999,0.37828385829925537,-8.49941635131836,0.9648633003234863,29.6173095703125,-32.5469970703125,21.1334228515625
13.8699999,0.29209262132644653,-8.561665534973145,1.0031704902648926,29.4647216796875,-30.4412841796875,24.47509765625
13.889999900000001,0.15801730751991272,-8.647856712341309,1.0319008827209473,30.487060546875,-31.0821533203125,27.496337890625
13.9099999,-0.021547814831137657,-8.722076416015625,1.0749965906143188,31.2652587890625,-31.3873291015625,29.876708984375
13.9299999,-0.272938996553421,-8.80587387084961,1.137245774269104,29.541015625,-29.754638671875,29.754638671875
13.9499999,-0.5674257874488831,-8.858546257019043,1.2425906658172607,26.9775390625,-25.482177734375,26.153564453125
13.969999900000001,-0.9145850539207458,-8.937555313110352,1.357512354850769,26.0772705078125,-21.5301513671875,19.927978515625
13.9899999,-1.256955862045288,-9.004592895507812,1.4676456451416016,25.909423828125,-25.8331298828125,13.61083984375
14.0099999,-1.5682021379470825,-9.059659004211426,1.764526605606079,17.364501953125,-36.6668701171875,-0.4119873046875
14.0299999,-1.4987702369689941,-9.181763648986816,1.9632453918457031,10.345458984375,-27.740478515625,-3.5247802734375
14.049999900000001,-1.259350061416626,-9.394847869873047,2.209848165512085,0.640869140625,-24.749755859375,-0.42724609375
14.069999900000001,-1.0342950820922852,-9.75637149810791,2.4013843536376953,-10.223388671875,-27.374267578125,5.2947998046875
14.0899999,-0.9481038451194763,-10.230423927307129,2.5091233253479004,-20.172119140625,-27.008056640625,10.4522705078125
14.1099999,-0.9552865028381348,-10.69489860534668,2.5019407272338867,-28.1219482421875,-25.8941650390625,14.404296875
14.129999900000001,-1.1037269830703735,-11.118672370910645,2.3750481605529785,-31.4788818359375,-22.308349609375,15.594482421875
14.149999900000001,-1.3479355573654175,-11.487380027770996,2.121262788772583,-30.3955078125,-19.012451171875,14.4195556640625
14.1699999,-1.625662922859192,-11.798625946044922,1.8148049116134644,-27.496337890625,-23.13232421875,13.671875
14.1899999,-1.886630892753601,-12.030863761901855,1.501164436340332,-23.3001708984375,-29.2205810546875,13.8397216796875
14.209999900000001,-2.049436569213867,-12.172121047973633,1.2689268589019775,-17.059326171875,-29.205322265625,12.115478515625
14.229999900000001,-2.10210919380188,-12.193669319152832,1.158793568611145,-10.92529296875,-26.18408203125,8.60595703125
14.2499999,-2.0183119773864746,-12.035652160644531,1.194706678390503,-7.568359375,-21.3470458984375,5.7830810546875
14.2699999,-1.886630892753601,-11.784260749816895,1.3024457693099976,-6.103515625,-11.8560791015625,2.9296875
14.289999900000002,-1.8076223134994507,-11.556811332702637,1.41257905960083,-3.265380859375,-2.5482177734375,0.579833984375
14.309999900000001,-1.7717092037200928,-11.372458457946777,1.5155296325683594,1.953125,-1.8310546875,0
14.3299999,-1.922544002532959,-11.638214111328125,1.7621324062347412,5.8746337890625,-3.753662109375,-0.274658203125
14.3499999,-2.2194249629974365,-11.949460983276367,1.9847931861877441,4.638671875,-4.8828125,-11.3983154296875
14.3699999,-2.209848165512085,-11.863269805908203,2.1715409755706787,-1.983642578125,-1.46484375,-49.560546875
14.389999900000001,-2.274491548538208,-11.568782806396484,2.1715409755706787,0.518798828125,-10.2996826171875,-55.450439453125
14.4099999,-1.7693150043487549,-10.515334129333496,1.9536685943603516,6.011962890625,-20.6298828125,-50.5523681640625
14.4299999,-1.2641384601593018,-9.610325813293457,1.845929503440857,7.232666015625,-21.8505859375,-40.771484375
14.4499999,-0.8762778043746948,-8.901641845703125,1.946485996246338,-6.89697265625,-11.4288330078125,-38.4368896484375
14.469999900000001,-0.4692635238170624,-8.798690795898438,2.1763293743133545,-27.374267578125,-4.7607421875,-51.8798828125
14.4899999,-0.2777273952960968,-9.53849983215332,2.1356279850006104,-22.0184326171875,-11.688232421875,-49.9114990234375
14.5099999,0.5027823448181152,-9.90241813659668,2.231395959854126,6.5155029296875,-22.0489501953125,-33.99658203125
14.5299999,1.137245774269104,-10.893617630004883,1.6903064250946045,-1.7852783203125,4.4708251953125,16.357421875
14.549999900000001,1.644816517829895,-10.852916717529297,1.601720929145813,6.9427490234375,25.32958984375,22.003173828125
14.569999900000001,1.6424223184585571,-10.718840599060059,1.4508862495422363,0.0457763671875,18.951416015625,1.3580322265625
14.5899999,1.1348515748977661,-10.304644584655762,1.4652514457702637,-4.9285888671875,10.8184814453125,-12.5885009765625
14.6099999,0.4884171485900879,-9.928754806518555,1.4437036514282227,-3.662109375,10.8184814453125,-10.0860595703125
14.629999900000001,0.13407529890537262,-9.768342971801758,1.338358759880066,-1.3885498046875,4.547119140625,-3.082275390625
14.649999900000001,0.10295066982507706,-9.727641105651855,1.2330138683319092,1.5106201171875,0.48828125,-1.2054443359375
14.6699999,0.2082955539226532,-9.725247383117676,1.1635819673538208,1.617431640625,1.6937255859375,0.396728515625
14.6899999,0.363918662071228,-9.792284965515137,1.1468225717544556,-2.86865234375,-1.007080078125,3.3111572265625
14.709999900000001,0.4692635238170624,-9.782708168029785,1.3120225667953491,0.7781982421875,0.7171630859375,0.8544921875
14.729999900000001,0.47644615173339844,-9.787496566772461,1.4173674583435059,0.9002685546875,0.2899169921875,-0.0457763671875
14.7499999,0.42856210470199585,-9.806650161743164,1.4891934394836426,-2.4261474609375,-1.2664794921875,-1.5411376953125
14.7699999,0.43095630407333374,-9.787496566772461,1.599326729774475,-0.18310546875,0.7171630859375,-4.08935546875
14.789999900000002,0.47165772318840027,-9.794678688049316,1.5490485429763794,-0.823974609375,-0.518798828125,-1.739501953125
14.809999900000001,0.5722141861915588,-9.825803756713867,1.5131354331970215,-0.0762939453125,1.0833740234375,1.2969970703125
14.8299999,0.6512228846549988,-9.816226959228516,1.4963760375976562,1.739501953125,1.861572265625,2.288818359375
14.8499999,0.6488286852836609,-9.821015357971191,1.4413094520568848,-1.0528564453125,0.4425048828125,2.4871826171875
14.8699999,0.5674257874488831,-9.806650161743164,1.501164436340332,0.06103515625,0.732421875,0.0762939453125
14.889999900000001,0.44532153010368347,-9.780313491821289,1.5275006294250488,0.030517578125,0.6561279296875,-2.166748046875
14.9099999,0.3663128614425659,-9.77791976928711,1.4987702369689941,-2.8228759765625,-1.4801025390625,-2.8228759765625
14.9299999,0.3974374830722809,-9.782708168029785,1.5203180313110352,-0.640869140625,-0.9002685546875,-2.899169921875
14.9499999,0.5123591423034668,-9.806650161743164,1.4652514457702637,-0.18310546875,-0.18310546875,-0.1068115234375
14.969999900000001,0.629675030708313,-9.823410034179688,1.4413094520568848,-0.7171630859375,0.6256103515625,3.021240234375
14.9899999,0.6799532771110535,-9.840168952941895,1.4676456451416016,-0.946044921875,0.5035400390625,3.0364990234375
15.0099999,0.6057330369949341,-9.835380554199219,1.4508862495422363,-3.72314453125,-0.06103515625,0.0457763671875
15.0299999,0.4644751250743866,-9.80904483795166,1.4772224426269531,-0.9307861328125,1.7242431640625,-4.1656494140625
15.049999900000001,0.3687070608139038,-9.773131370544434,1.50355863571167,0.2288818359375,1.6326904296875,-4.8065185546875
15.069999900000001,0.3687070608139038,-9.775525093078613,1.4772224426269531,-1.2969970703125,-2.25830078125,-0.9307861328125
15.0899999,0.47405192255973816,-9.773131370544434,1.4652514457702637,0.152587890625,-0.30517578125,0.579833984375
15.1099999,0.6057330369949341,-9.797073364257812,1.45806884765625,2.593994140625,3.7994384765625,1.15966796875
15.129999900000001,0.6584054827690125,-9.818621635437012,1.4221558570861816,1.2054443359375,3.3416748046875,3.204345703125
15.149999900000001,0.6105214357376099,-9.816226959228516,1.4293384552001953,0.9765625,0,2.8076171875
15.1699999,0.49799394607543945,-9.797073364257812,1.479616641998291,2.349853515625,-0.152587890625,-0.6103515625
15.1899999,0.40222588181495667,-9.801861763000488,1.4915876388549805,0.1678466796875,1.77001953125,-3.4332275390625
15.209999900000001,0.3926490843296051,-9.792284965515137,1.5107412338256836,-0.6103515625,2.0599365234375,-2.716064453125
15.229999900000001,0.47405192255973816,-9.804255485534668,1.5179238319396973,0.9613037109375,1.434326171875,0.2288818359375
15.2499999,0.5650315880775452,-9.825803756713867,1.4891934394836426,0.8392333984375,0.732421875,1.9683837890625
15.2699999,0.6129156351089478,-9.821015357971191,1.4724340438842773,0.4119873046875,1.5411376953125,0.9613037109375
15.289999900000002,0.5817909836769104,-9.821015357971191,1.4748282432556152,-0.335693359375,-0.3509521484375,-0.0762939453125
15.309999900000001,0.5003881454467773,-9.80904483795166,1.50355863571167,-1.0528564453125,-2.2430419921875,-0.8697509765625
15.3299999,0.44771572947502136,-9.780313491821289,1.5298948287963867,-1.312255859375,-3.96728515625,-0.762939453125
15.3499999,0.45489832758903503,-9.797073364257812,1.5155296325683594,-1.15966796875,-3.4637451171875,1.190185546875
15.3699999,0.5099649429321289,-9.801861763000488,1.4987702369689941,0.640869140625,1.9378662109375,0.4425048828125
15.389999900000001,0.5530605912208557,-9.81143856048584,1.4652514457702637,1.434326171875,5.0201416015625,-0.457763671875
15.4099999,0.5506663918495178,-9.828198432922363,1.4389152526855469,-0.42724609375,1.861572265625,0.48828125
15.4299999,0.5171475410461426,-9.80904483795166,1.479616641998291,-0.1068115234375,-1.129150390625,-0.18310546875
15.4499999,0.48602294921875,-9.804255485534668,1.501164436340332,-0.0762939453125,-1.617431640625,-0.54931640625
15.469999900000001,0.4836287498474121,-9.806650161743164,1.501164436340332,0.0762939453125,3.448486328125,-1.2359619140625
15.4899999,0.5099649429321289,-9.804255485534668,1.5059528350830078,1.0528564453125,4.3182373046875,-1.2969970703125
15.5099999,0.5339069962501526,-9.81143856048584,1.4844050407409668,0.8087158203125,2.899169921875,-0.5645751953125
15.5299999,0.5482721924781799,-9.813833236694336,1.479616641998291,0.3204345703125,1.8463134765625,-0.3509521484375
15.549999900000001,0.5434837937355042,-9.806650161743164,1.5059528350830078,0.6103515625,1.739501953125,-0.4730224609375
15.569999900000001,0.5219359993934631,-9.804255485534668,1.5179238319396973,0.030517578125,2.01416015625,-0.5950927734375
15.5899999,0.49799394607543945,-9.799467086791992,1.5275006294250488,-0.2593994140625,2.13623046875,-1.1138916015625
15.6099999,0.49559974670410156,-9.801861763000488,1.5275006294250488,0.335693359375,1.77001953125,-1.373291015625
15.629999900000001,0.5171475410461426,-9.806650161743164,1.50355863571167,0.030517578125,1.312255859375,-0.732421875
15.649999900000001,0.5530605912208557,-9.81143856048584,1.4939818382263184,0.3814697265625,1.6632080078125,0.335693359375
15.6699999,0.5674257874488831,-9.81143856048584,1.5059528350830078,0.91552734375,1.8463134765625,0.8087158203125
15.6899999,0.5410895943641663,-9.806650161743164,1.5107412338256836,-0.1373291015625,0.67138671875,0.335693359375
15.709999900000001,0.4884171485900879,-9.794678688049316,1.5322890281677246,-0.5340576171875,0.42724609375,-1.068115234375
15.729999900000001,0.4644751250743866,-9.78989028930664,1.5394717454910278,-0.4425048828125,-0.1983642578125,-1.6632080078125
15.7499999,0.4812345504760742,-9.794678688049316,1.5179238319396973,-0.7476806640625,-0.6256103515625,-0.42724609375
15.7699999,0.5339069962501526,-9.799467086791992,1.5107412338256836,-0.152587890625,-0.6103515625,0.9765625
15.789999900000002,0.569819986820221,-9.806650161743164,1.5059528350830078,0.1068115234375,-0.885009765625,1.9378662109375
15.809999900000001,0.5578489899635315,-9.806650161743164,1.5107412338256836,-0.4730224609375,-1.2969970703125,1.373291015625
15.8299999,0.49559974670410156,-9.794678688049316,1.5298948287963867,-0.42724609375,-1.0223388671875,-0.42724609375
15.8499999,0.44771572947502136,-9.792284965515137,1.525106430053711,-0.640869140625,-0.7781982421875,-1.373291015625
15.869999900000002,0.45250412821769714,-9.792284965515137,1.5155296325683594,-0.1373291015625,-0.518798828125,-0.7171630859375
15.889999900000001,0.5051765441894531,-9.801861763000488,1.5107412338256836,0.6866455078125,0.67138671875,0.7476806640625
15.9099999,0.5578489899635315,-9.81143856048584,1.4987702369689941,0.6561279296875,1.9378662109375,1.5869140625
15.9299999,0.5650315880775452,-9.816226959228516,1.501164436340332,0.4425048828125,2.74658203125,0.7781982421875
15.9499999,0.5099649429321289,-9.80904483795166,1.5179238319396973,0.3204345703125,2.471923828125,-0.7781982421875
15.969999900000001,0.45010992884635925,-9.804255485534668,1.5275006294250488,-0.213623046875,0.8087158203125,-2.3193359375
15.9899999,0.4429273009300232,-9.799467086791992,1.5298948287963867,-0.7476806640625,0.0457763671875,-2.3193359375
16.0099999,0.4908113479614258,-9.806650161743164,1.525106430053711,-0.213623046875,0.9765625,-0.335693359375
16.0299999,0.5530605912208557,-9.80904483795166,1.522712230682373,0.5645751953125,1.46484375,1.6632080078125
16.0499999,0.5770025849342346,-9.813833236694336,1.5131354331970215,-0.0762939453125,0.4730224609375,1.6937255859375
16.0699999,0.5363011956214905,-9.81143856048584,1.5155296325683594,-0.5340576171875,0.6103515625,-0.091552734375
16.089999900000002,0.4692635238170624,-9.804255485534668,1.5298948287963867,-0.1983642578125,0.3509521484375,-2.044677734375
16.109999900000002,0.4357447028160095,-9.799467086791992,1.534683346748352,-0.5035400390625,1.220703125,-2.7618408203125
16.1299999,0.45489832758903503,-9.801861763000488,1.5298948287963867,-0.7781982421875,1.5411376953125,-1.6326904296875
16.1499999,0.5147533416748047,-9.806650161743164,1.5275006294250488,0.1983642578125,1.3275146484375,0.4119873046875
16.1699999,0.5578489899635315,-9.80904483795166,1.5155296325683594,0.2288818359375,0.2899169921875,1.007080078125
16.1899999,0.5530605912208557,-9.804255485534668,1.5107412338256836,-0.396728515625,-0.518798828125,0.06103515625
16.2099999,0.5123591423034668,-9.797073364257812,1.5203180313110352,-0.6561279296875,-0.946044921875,-0.9918212890625
16.2299999,0.48602294921875,-9.792284965515137,1.525106430053711,-0.5645751953125,-1.007080078125,-0.7476806640625
16.249999900000002,0.4908113479614258,-9.792284965515137,1.5298948287963867,-0.3204345703125,-1.5106201171875,0.3509521484375
16.269999900000002,0.5219359993934631,-9.78989028930664,1.5322890281677246,0.4119873046875,-0.701904296875,1.52587890625
16.2899999,0.545877993106842,-9.799467086791992,1.5155296325683594,0.8544921875,-0.457763671875,2.5482177734375
16.3099999,0.5410895943641663,-9.801861763000488,1.5107412338256836,1.3885498046875,1.4801025390625,0.9307861328125
16.3299999,0.5027823448181152,-9.804255485534668,1.5203180313110352,0.9002685546875,3.8604736328125,-2.166748046875
16.3499999,0.47165772318840027,-9.81143856048584,1.525106430053711,-0.4119873046875,1.2054443359375,-2.6397705078125
16.3699999,0.47405192255973816,-9.806650161743164,1.5466543436050415,-0.54931640625,-0.8544921875,-1.739501953125
16.3899999,0.507570743560791,-9.806650161743164,1.5490485429763794,-0.1983642578125,-1.7852783203125,0.6256103515625
16.4099999,0.5410895943641663,-9.80904483795166,1.5418659448623657,0.0457763671875,0.3204345703125,1.7242431640625
16.429999900000002,0.5530605912208557,-9.804255485534668,1.534683346748352,0.0762939453125,0.335693359375,0.3204345703125
16.4499999,0.524330198764801,-9.799467086791992,1.534683346748352,-0.3814697265625,-1.1444091796875,-0.7476806640625
16.4699999,0.49320554733276367,-9.787496566772461,1.5466543436050415,-0.396728515625,-1.7242431640625,-0.335693359375
16.4899999,0.4836287498474121,-9.780313491821289,1.5538369417190552,0.213623046875,-2.1514892578125,1.03759765625
16.5099999,0.5003881454467773,-9.785101890563965,1.5466543436050415,1.15966796875,-1.5106201171875,2.5787353515625
16.5299999,0.524330198764801,-9.78989028930664,1.534683346748352,1.5716552734375,0.4425048828125,2.01416015625
16.5499999,0.5339069962501526,-9.804255485534668,1.5203180313110352,1.52587890625,1.28173828125,1.0223388671875
16.5699999,0.5147533416748047,-9.81143856048584,1.522712230682373,1.5106201171875,2.197265625,-0.06103515625
16.589999900000002,0.4836287498474121,-9.81143856048584,1.5418659448623657,1.0223388671875,3.2958984375,-1.251220703125
16.609999900000002,0.4620809257030487,-9.806650161743164,1.558625340461731,0.2899169921875,2.1514892578125,-1.2054443359375
16.6299999,0.4620809257030487,-9.804255485534668,1.5682021379470825,0.0457763671875,0.6866455078125,-0.7171630859375
16.6499999,0.4812345504760742,-9.804255485534668,1.5658079385757446,-0.2899169921875,0.0152587890625,0.06103515625
16.6699999,0.5099649429321289,-9.801861763000488,1.556231141090393,-0.4425048828125,-0.7476806640625,0.946044921875
16.6899999,0.5291185975074768,-9.801861763000488,1.5538369417190552,-0.1068115234375,-1.983642578125,1.739501953125
16.7099999,0.5219359993934631,-9.799467086791992,1.558625340461731,-0.4119873046875,-1.556396484375,1.190185546875
16.7299999,0.49320554733276367,-9.799467086791992,1.5658079385757446,-0.4730224609375,0.7171630859375,-0.42724609375
16.749999900000002,0.4596867263317108,-9.797073364257812,1.5729905366897583,0.3814697265625,2.6702880859375,-1.77001953125
16.769999900000002,0.4429273009300232,-9.799467086791992,1.5658079385757446,0.244140625,2.99072265625,-2.4871826171875
16.7899999,0.4596867263317108,-9.801861763000488,1.5514427423477173,-0.1220703125,2.471923828125,-1.9378662109375
16.8099999,0.49559974670410156,-9.804255485534668,1.5514427423477173,0.3509521484375,2.716064453125,-0.8087158203125
16.8299999,0.5219359993934631,-9.806650161743164,1.5514427423477173,0.701904296875,3.875732421875,0
16.8499999,0.5171475410461426,-9.804255485534668,1.558625340461731,0.4730224609375,4.2572021484375,-0.030517578125
16.8699999,0.4836287498474121,-9.799467086791992,1.5705963373184204,0.30517578125,2.5482177734375,-0.8544921875
16.8899999,0.4596867263317108,-9.794678688049316,1.580173134803772,0.1220703125,1.3427734375,-1.556396484375
16.9099999,0.47165772318840027,-9.797073364257812,1.5753847360610962,-0.18310546875,0.7171630859375,-1.068115234375
16.929999900000002,0.507570743560791,-9.799467086791992,1.580173134803772,0.1678466796875,0.54931640625,0.213623046875
16.9499999,0.5386953949928284,-9.801861763000488,1.5825673341751099,0.4425048828125,0.2899169921875,1.1138916015625
16.9699999,0.5386953949928284,-9.801861763000488,1.5825673341751099,0.0762939453125,0.335693359375,0.946044921875
16.9899999,0.49799394607543945,-9.797073364257812,1.5873557329177856,0.335693359375,1.2054443359375,0.030517578125
17.0099999,0.45250412821769714,-9.792284965515137,1.5897499322891235,0.5035400390625,1.4495849609375,-0.79345703125
17.0299999,0.4381389021873474,-9.78989028930664,1.5873557329177856,0.213623046875,1.495361328125,-1.0986328125
17.0499999,0.4596867263317108,-9.794678688049316,1.5873557329177856,0.274658203125,1.46484375,-0.396728515625
17.0699999,0.5003881454467773,-9.799467086791992,1.5873557329177856,0.5340576171875,1.40380859375,0.732421875
17.089999900000002,0.5267243981361389,-9.804255485534668,1.5873557329177856,0.4730224609375,0.54931640625,1.1749267578125
17.109999900000002,0.5219359993934631,-9.804255485534668,1.5849615335464478,-0.274658203125,-1.2664794921875,0.48828125
17.1299999,0.507570743560791,-9.794678688049316,1.5873557329177856,-0.4730224609375,-2.3345947265625,-0.4730224609375
17.1499999,0.5027823448181152,-9.792284965515137,1.5873557329177856,-0.54931640625,-1.6326904296875,-0.18310546875
17.1699999,0.5099649429321289,-9.787496566772461,1.5849615335464478,-0.4425048828125,-0.518798828125,1.251220703125
17.1899999,0.5123591423034668,-9.78989028930664,1.5945383310317993,-0.0152587890625,-0.335693359375,1.8463134765625
17.2099999,0.4668693244457245,-9.787496566772461,1.5945383310317993,-0.1983642578125,-0.152587890625,0.8392333984375
17.2299999,0.395043283700943,-9.787496566772461,1.5945383310317993,-0.335693359375,0.4119873046875,-1.15966796875
17.249999900000002,0.3663128614425659,-9.785101890563965,1.6065093278884888,0.030517578125,1.495361328125,-2.8533935546875
17.269999900000002,1.0654197931289673,-9.804255485534668,1.8555063009262085,-1.3580322265625,7.5531005859375,7.049560546875
17.2899999,1.4484920501708984,-9.730035781860352,2.049436569213867,-0.3509521484375,32.6385498046875,9.368896484375
17.3099999,1.53707754611969,-9.62947940826416,2.1978771686553955,-1.953125,51.1627197265625,-4.08935546875
17.3299999,1.3239935636520386,-9.627084732055664,2.207453966140747,-2.471923828125,41.5802001953125,-18.2647705078125
17.3499999,0.7086837291717529,-9.658209800720215,1.9847931861877441,-1.7852783203125,38.02490234375,-9.5367431640625
17.3699999,0.13168109953403473,-9.828198432922363,1.5849615335464478,-1.4801025390625,35.7208251953125,5.67626953125
17.3899999,-0.181959331035614,-10.034099578857422,1.2401964664459229,-0.5645751953125,21.3470458984375,2.7313232421875
17.409999900000003,-0.3734954595565796,-10.129867553710938,0.912190854549408,1.190185546875,3.936767578125,8.3160400390625
17.429999900000002,-0.3758896589279175,-10.125079154968262,0.7565677165985107,2.5787353515625,-7.0953369140625,14.46533203125
17.4499999,-0.35434186458587646,-10.101137161254883,0.7661445140838623,1.28173828125,-9.8114013671875,10.0250244140625
17.4699999,-0.3423708379268646,-10.038887977600098,0.950498104095459,3.0670166015625,-10.986328125,7.7362060546875
17.4899999,-0.47884035110473633,-10.134655952453613,1.1659762859344482,7.14111328125,-0.4119873046875,8.575439453125
17.5099999,-0.7158663272857666,-10.32858657836914,1.3694833517074585,13.458251953125,16.9830322265625,5.615234375
17.5299999,-0.9481038451194763,-10.639832496643066,1.5275006294250488,21.91162109375,28.3660888671875,-5.4779052734375
17.5499999,-1.1899182796478271,-11.125855445861816,1.6711528301239014,25.6805419921875,45.440673828125,-19.53125
17.5699999,-1.3000515699386597,-11.69806957244873,1.8315643072128296,22.735595703125,75.8056640625,-32.0587158203125
17.589999900000002,-1.3287819623947144,-12.361263275146484,1.9153614044189453,20.2484130859375,104.8736572265625,-42.3736572265625
17.609999900000002,-1.316810965538025,-12.983756065368652,1.944091796875,21.8505859375,102.5390625,-47.9888916015625
17.6299999,-1.2425906658172607,-13.421895027160645,1.8938134908676147,20.111083984375,83.5723876953125,-48.431396484375
17.6499999,-1.094150185585022,-13.601459503173828,1.8555063009262085,10.3607177734375,80.87158203125,-47.9736328125
17.6699999,-0.9002198576927185,-13.651738166809082,1.867477297782898,-3.8909912109375,93.2159423828125,-48.1109619140625
17.6899999,-0.7182605266571045,-13.637372970581055,1.9033904075622559,-17.1661376953125,98.114013671875,-46.539306640625
17.7099999,-0.6200982332229614,-13.57751750946045,1.8579005002975464,-26.06201171875,91.7816162109375,-45.5780029296875
17.7299999,-0.6440402865409851,-13.498509407043457,1.7190368175506592,-29.510498046875,85.0982666015625,-49.01123046875
17.749999900000002,-0.751779317855835,-13.328520774841309,1.5418659448623657,-29.2510986328125,80.3985595703125,-54.8248291015625
17.769999900000002,-0.8307880163192749,-13.069947242736816,1.4077905416488647,-29.1595458984375,79.2694091796875,-62.3321533203125
17.7899999,-0.8188169598579407,-12.737153053283691,1.357512354850769,-31.2957763671875,82.9010009765625,-70.9686279296875
17.8099999,-0.6967126727104187,-12.361263275146484,1.4101848602294922,-35.9344482421875,92.8802490234375,-77.8045654296875
17.8299999,-0.4644751250743866,-11.97100830078125,1.53707754611969,-43.64013671875,105.255126953125,-80.0018310546875
17.8499999,-0.19393034279346466,-11.544840812683105,1.656787633895874,-55.0384521484375,111.846923828125,-77.178955078125
17.8699999,0.0694318488240242,-11.12346076965332,1.7142484188079834,-67.474365234375,111.26708984375,-74.310302734375
17.8899999,0.2801215946674347,-10.704475402832031,1.6519991159439087,-77.880859375,105.3009033203125,-72.2808837890625
17.909999900000003,0.395043283700943,-10.290278434753418,1.4484920501708984,-85.723876953125,96.405029296875,-69.4427490234375
17.929999900000002,0.3974374830722809,-9.940725326538086,1.173158884048462,-91.064453125,84.8388671875,-66.741943359375
17.9499999,0.31842881441116333,-9.62947940826416,0.8978256583213806,-96.099853515625,73.05908203125,-65.12451171875
17.9699999,0.2801215946674347,-9.32302188873291,0.6751648783683777,-102.752685546875,66.0247802734375,-64.849853515625
17.9899999,0.3447650372982025,-8.992621421813965,0.5363011956214905,-109.19189453125,65.521240234375,-64.75830078125
18.0099999,0.5626373887062073,-8.638279914855957,0.4596867263317108,-114.5782470703125,67.9168701171875,-64.0716552734375
18.0299999,0.9026140570640564,-8.276755332946777,0.4118026793003082,-118.133544921875,70.068359375,-63.751220703125
18.0499999,1.3120225667953491,-7.948749542236328,0.3687070608139038,-118.9727783203125,72.1435546875,-64.7430419921875
18.0699999,1.7621324062347412,-7.6351094245910645,0.3280056416988373,-117.3248291015625,76.141357421875,-67.1844482421875
18.089999900000002,2.2194249629974365,-7.371747016906738,0.27054479718208313,-114.07470703125,82.7178955078125,-69.793701171875
18.109999900000002,2.604891538619995,-7.194576263427734,0.18914192914962769,-110.5194091796875,86.3494873046875,-68.5577392578125
18.1299999,2.920926094055176,-7.108384609222412,0.090979665517807,-107.48291015625,86.6241455078125,-61.767578125
18.1499999,3.1914708614349365,-7.048529624938965,-0.002394201699644327,-105.5450439453125,87.09716796875,-51.239013671875
18.1699999,3.466804027557373,-6.926425457000732,-0.07900865375995636,-104.18701171875,92.254638671875,-40.5120849609375
18.1899999,3.801992416381836,-6.66785192489624,-0.11252748221158981,-102.4169921875,98.1903076171875,-30.914306640625
18.2099999,4.173093795776367,-6.311115741729736,-0.12689268589019775,-100.7080078125,102.783203125,-21.484375
18.2299999,4.527435302734375,-5.918466567993164,-0.13407529890537262,-99.1668701171875,108.2611083984375,-10.3607177734375
18.249999900000002,4.850652694702148,-5.564124584197998,-0.15801730751991272,-96.8475341796875,116.180419921875,1.03759765625
18.269999900000002,5.0900726318359375,-5.2672438621521,-0.21787235140800476,-92.8497314453125,122.6654052734375,10.101318359375
18.2899999,5.260061264038086,-5.032611846923828,-0.31603461503982544,-87.3565673828125,123.4588623046875,16.510009765625
18.3099999,5.3342814445495605,-4.865017890930176,-0.4644751250743866,-80.8258056640625,120.05615234375,21.5301513671875
18.3299999,5.307945251464844,-4.771644115447998,-0.6416460275650024,-72.7996826171875,112.9913330078125,26.031494140625
18.3499999,5.20978307723999,-4.697423934936523,-0.8212111592292786,-64.0869140625,104.766845703125,27.83203125
18.3699999,5.0876784324646,-4.592078685760498,-0.9648633003234863,-55.0994873046875,100.5859375,23.529052734375
18.3899999,5.0014872550964355,-4.395754337310791,-1.072602391242981,-45.3033447265625,101.3031005859375,13.1988525390625
18.409999900000003,5.03021764755249,-4.1874589920043945,-1.158793568611145,-34.4390869140625,101.104736328125,1.64794921875
18.429999900000002,5.20978307723999,-4.132391929626465,-1.2473790645599365,-22.5067138671875,93.26171875,-3.7384033203125
18.4499999,5.506663799285889,-4.393360137939453,-1.3527239561080933,-12.26806640625,80.0933837890625,1.1749267578125
18.4699999,5.8873419761657715,-5.054159641265869,-1.4652514457702637,-4.3792724609375,64.63623046875,17.242431640625
18.4899999,6.289567947387695,-6.011840343475342,-1.525106430053711,1.5411376953125,53.28369140625,40.4052734375
18.5099999,6.6127848625183105,-7.113173484802246,-1.525106430053711,5.035400390625,50.3387451171875,65.1397705078125
18.5299999,6.777985095977783,-8.176198959350586,-1.4891934394836426,6.317138671875,50.6744384765625,88.592529296875
18.5499999,6.742072105407715,-9.071630477905273,-1.4652514457702637,5.6610107421875,45.318603515625,107.2235107421875
18.5699999,6.466738700866699,-9.732429504394531,-1.4532804489135742,5.1116943359375,35.21728515625,118.377685546875
18.589999900000002,5.999869346618652,-10.08437728881836,-1.4245500564575195,5.7373046875,33.233642578125,118.408203125
18.609999900000002,5.430049419403076,-10.153809547424316,-1.338358759880066,6.591796875,41.07666015625,104.0496826171875
18.6299999,4.874594688415527,-10.007762908935547,-1.170764684677124,7.3394775390625,47.515869140625,79.2388916015625
18.6499999,4.424484729766846,-9.852140426635742,-0.912190854549408,9.063720703125,48.7060546875,54.62646484375
18.6699999,4.125209331512451,-9.799467086791992,-0.586579442024231,10.2386474609375,51.0711669921875,39.093017578125
18.6899999,4.0078935623168945,-9.947908401489258,-0.1867477297782898,8.880615234375,56.9305419921875,30.5023193359375
18.7099999,3.995922565460205,-10.271124839782715,0.24181437492370605,5.615234375,61.1419677734375,25.787353515625
18.7299999,4.067748546600342,-10.630255699157715,0.6823474764823914,2.166748046875,57.4951171875,26.85546875
18.749999900000002,4.173093795776367,-10.939107894897461,1.1204863786697388,-1.251220703125,52.398681640625,32.28759765625
18.769999900000002,4.173093795776367,-11.130643844604492,1.479616641998291,-5.5999755859375,56.793212890625,39.794921875
18.7899999,4.089296340942383,-11.159374237060547,1.7501614093780518,-10.1165771484375,59.8907470703125,48.7823486328125
18.8099999,3.8594532012939453,-11.058817863464355,1.8794482946395874,-13.763427734375,55.48095703125,59.600830078125
18.8299999,3.4811692237854004,-10.778696060180664,1.8363527059555054,-14.5111083984375,52.67333984375,71.502685546875
18.8499999,3.1100680828094482,-10.309432983398438,1.678335428237915,-12.8021240234375,52.093505859375,77.2705078125
18.8699999,2.7748796939849854,-9.691728591918945,1.4844050407409668,-9.6893310546875,51.6815185546875,77.1331787109375
18.8899999,2.4013843536376953,-9.050082206726074,1.2401964664459229,-7.7667236328125,52.1392822265625,80.4595947265625
18.909999900000003,2.006340980529785,-8.487444877624512,0.9792284965515137,-7.0953369140625,44.6319580078125,85.8917236328125
18.929999900000002,1.45806884765625,-8.106766700744629,0.7254431247711182,-5.096435546875,31.494140625,82.2906494140625
18.9499999,0.8427590131759644,-7.955932140350342,0.5099649429321289,3.5400390625,21.5301513671875,75.74462890625
18.9699999,0.24899697303771973,-8.02536392211914,0.395043283700943,5.6915283203125,27.5726318359375,68.2830810546875
18.9899999,-0.2561795711517334,-8.248024940490723,0.3447650372982025,3.7841796875,38.6962890625,62.2711181640625
19.0099999,-0.6536170840263367,-8.588001251220703,0.35673606395721436,3.387451171875,43.76220703125,51.33056640625
19.0299999,-0.9481038451194763,-8.947132110595703,0.3423708379268646,6.805419921875,45.9442138671875,38.848876953125
19.0499999,-1.161187767982483,-9.299078941345215,0.31364041566848755,11.1083984375,43.6553955078125,33.02001953125
19.0699999,-1.2641384601593018,-9.576807022094727,0.2968810200691223,11.810302734375,39.24560546875,28.3355712890625
19.089999900000002,-1.2018892765045166,-9.835380554199219,0.3232172429561615,15.1214599609375,34.8358154296875,19.989013671875
19.109999900000002,-0.9864110946655273,-9.998186111450195,0.43335050344467163,18.3258056640625,36.31591796875,9.735107421875
19.1299999,-0.6320692300796509,-10.108319282531738,0.6105214357376099,17.0135498046875,41.68701171875,2.3651123046875
19.1499999,-0.22026655077934265,-10.144232749938965,0.8403648138046265,13.458251953125,42.5567626953125,-0.9002685546875
19.1699999,0.1867477297782898,-10.156203269958496,1.0678139925003052,8.8958740234375,37.53662109375,-1.373291015625
19.1899999,0.5291185975074768,-10.137049674987793,1.2497732639312744,3.4332275390625,33.2183837890625,0.1983642578125
19.2099999,0.790086567401886,-10.122684478759766,1.3718775510787964,-2.8228759765625,33.9202880859375,3.814697265625
19.2299999,0.9481038451194763,-10.137049674987793,1.4269442558288574,-8.6822509765625,32.745361328125,9.307861328125
19.249999900000002,1.0031704902648926,-10.158597946166992,1.436521053314209,-13.9923095703125,27.2674560546875,14.0533447265625
19.269999900000002,0.9576807022094727,-10.20887565612793,1.4101848602294922,-18.5699462890625,28.4576416015625,13.5498046875
19.2899999,0.8164227604866028,-10.251971244812012,1.338358759880066,-22.5982666015625,38.6962890625,9.0789794921875
19.3099999,0.6368576288223267,-10.299856185913086,1.2330138683319092,-24.7650146484375,43.853759765625,3.7841796875
19.3299999,0.42856210470199585,-10.342951774597168,1.072602391242981,-23.2391357421875,43.3197021484375,-2.7313232421875
19.3499999,0.2346317619085312,-10.381258964538574,0.8786720037460327,-18.4783935546875,42.8009033203125,-10.650634765625
19.3699999,0.090979665517807,-10.398017883300781,0.6919242739677429,-13.458251953125,43.548583984375,-16.1895751953125
19.3899999,0.023942016065120697,-10.400412559509277,0.5626373887062073,-9.4146728515625,45.59326171875,-16.7236328125
19.409999900000003,-0.004788403399288654,-10.376470565795898,0.48602294921875,-6.134033203125,55.11474609375,-11.8865966796875
19.429999900000002,-0.07900865375995636,-10.350133895874023,0.4189853072166443,-3.5552978515625,66.1163330078125,-1.0986328125
19.4499999,-0.3016694188117981,-10.29746150970459,0.272938996553421,-1.8463134765625,60.028076171875,13.2904052734375
19.4699999,-0.6967126727104187,-10.180145263671875,0.0454898327589035,-0.457763671875,31.158447265625,25.6500244140625
19.4899999,-1.194706678390503,-9.995792388916016,-0.22505496442317963,1.1138916015625,0.6103515625,30.33447265625
19.5099999,-1.6879122257232666,-9.75397777557373,-0.4668693244457245,2.9449462890625,-16.78466796875,26.763916015625
19.5299999,-2.094926595687866,-9.481039047241211,-0.6177040338516235,3.3416748046875,-18.890380859375,16.998291015625
19.5499999,-2.3367409706115723,-9.23682975769043,-0.6153098344802856,4.8370361328125,-16.326904296875,3.2196044921875
19.5699999,-2.363077163696289,-9.090784072875977,-0.5147533416748047,14.7705078125,-22.2015380859375,-8.72802734375
19.589999900000002,-2.1715409755706787,-9.064447402954102,-0.3208230137825012,20.56884765625,-19.5465087890625,-13.8702392578125
19.609999900000002,-1.7812861204147339,-9.17697525024414,-0.07900865375995636,15.716552734375,-4.9591064453125,-9.9334716796875
19.6299999,-1.235408067703247,-9.459490776062012,0.15801730751991272,11.749267578125,0.1373291015625,2.166748046875
19.6499999,-0.7541735172271729,-9.75637149810791,0.304063618183136,7.62939453125,4.8828125,16.4337158203125
19.6699999,-0.42616790533065796,-10.02452278137207,0.38067805767059326,5.035400390625,7.5836181640625,22.552490234375
19.6899999,-0.31124621629714966,-10.146626472473145,0.3495534360408783,3.9520263671875,2.8533935546875,18.2342529296875
19.7099999,-0.3998316824436188,-10.110713958740234,0.26575639843940735,2.960205078125,-7.080078125,9.552001953125
19.7299999,-0.5267243981361389,-9.983820915222168,0.17956513166427612,1.373291015625,-14.251708984375,1.617431640625
19.749999900000002,-0.5674257874488831,-9.832986831665039,0.15801730751991272,-0.091552734375,-7.965087890625,-4.2572021484375
19.769999900000002,-0.5674257874488831,-9.758766174316406,0.11971008777618408,-0.9613037109375,11.8408203125,-8.148193359375
19.7899999,-0.6392518281936646,-9.773131370544434,0.028730420395731926,1.7852783203125,20.8587646484375,-13.00048828125
19.8099999,-0.8619126081466675,-9.890447616577148,-0.13407529890537262,10.8795166015625,9.0789794921875,-22.9644775390625
19.8299999,-1.139639973640442,-10.074800491333008,-0.3256114423274994,23.5137939453125,-8.11767578125,-34.759521484375
19.8499999,-1.2713210582733154,-10.273519515991211,-0.3998316824436188,33.0047607421875,-13.00048828125,-41.229248046875
19.8699999,-1.1204863786697388,-10.417171478271484,-0.3016694188117981,36.56005859375,-1.6937255859375,-40.71044921875
19.8899999,-0.7110779285430908,-10.486603736877441,-0.07661445438861847,36.31591796875,14.6942138671875,-39.4134521484375
19.909999900000003,-0.15322890877723694,-10.426748275756836,0.22026655077934265,35.308837890625,14.58740234375,-33.3099365234375
19.929999900000002,0.31842881441116333,-10.225635528564453,0.4908113479614258,31.341552734375,9.674072265625,-21.0418701171875
19.9499999,0.6943184733390808,-9.919178009033203,0.7422025203704834,25.1312255859375,14.251708984375,-13.85498046875
19.9699999,0.9193734526634216,-9.59835433959961,0.9576807022094727,19.3328857421875,19.622802734375,-15.2587890625
