# Time (seconds),Accel_X,Accel_Y,Accel_Z,Gyro_X,Gyro_Y,Gyro_Z
0.0099999,-10.347740173339844,-1.5969325304031372,0.40462008118629456,-3.2958984375,-6.16455078125,9.6282958984375
0.029999900000000003,-10.6925048828125,-1.6136919260025024,0.5123591423034668,-0.8087158203125,-16.876220703125,7.476806640625
0.0499999,-10.742782592773438,-1.6089035272598267,0.6703764796257019,1.5869140625,-9.7198486328125,17.669677734375
0.0699999,-10.436325073242188,-1.5705963373184204,0.8690952062606812,2.8533935546875,-5.1422119140625,16.0980224609375
0.08999990000000001,-10.029311180114746,-1.4245500564575195,1.0534487962722778,-1.2664794921875,8.2855224609375,9.1094970703125
0.10999990000000001,-9.794678688049316,-1.2018892765045166,1.1994950771331787,-6.988525390625,13.824462890625,5.5999755859375
0.1299999,-9.610325813293457,-0.9457096457481384,1.3311761617660522,-11.5814208984375,-4.180908203125,9.521484375
0.14999990000000002,-9.703699111938477,-0.7230489253997803,1.414973258972168,-17.3797607421875,0.79345703125,14.2059326171875
0.1699999,-9.751583099365234,-0.5937620401382446,1.45806884765625,-21.9268798828125,6.3018798828125,12.542724609375
0.1899999,-9.794678688049316,-0.4908113479614258,1.4748282432556152,-23.956298828125,8.697509765625,11.505126953125
0.20999990000000002,-9.78989028930664,-0.4596867263317108,1.3838485479354858,-23.3612060546875,11.0626220703125,7.720947265625
0.2299999,-9.782708168029785,-0.4596867263317108,1.161187767982483,-19.4091796875,10.986328125,2.960205078125
0.2499999,-9.828198432922363,-0.5434837937355042,0.8523358106613159,-12.2528076171875,8.2244873046875,1.5869140625
0.2699999,-9.916783332824707,-0.6344634294509888,0.5482721924781799,-6.7901611328125,5.55419921875,1.7242431640625
0.28999990000000003,-10.022128105163574,-0.7422025203704834,0.31124621629714966,-6.1492919921875,5.1422119140625,2.8228759765625
0.3099999,-10.043676376342773,-0.8236053586006165,0.1867477297782898,-6.6680908203125,4.486083984375,1.861572265625
0.3299999,-10.005369186401367,-0.8643068075180054,0.17477671802043915,-6.5155029296875,2.6397705078125,1.15966796875
0.34999990000000003,-9.928754806518555,-0.9193734526634216,0.22266076505184174,-6.2408447265625,1.0223388671875,1.9989013671875
0.3699999,-9.890447616577148,-1.0007762908935547,0.28730419278144836,-6.500244140625,0.8544921875,3.631591796875
0.3899999,-9.907206535339355,-1.072602391242981,0.2777273952960968,-5.06591796875,0.396728515625,4.791259765625
0.40999990000000003,-9.952696800231934,-1.072602391242981,0.26096799969673157,0.79345703125,-3.2958984375,4.7760009765625
0.4299999,-9.99339771270752,-1.0271124839782715,0.21547815203666687,6.2713623046875,-6.89697265625,3.9825439453125
0.4499999,-10.014945983886719,-0.9050082564353943,0.15801730751991272,7.1563720703125,-7.01904296875,2.8076171875
0.4699999,-10.08437728881836,-0.7876923680305481,0.1149216815829277,9.6282958984375,-8.85009765625,0.67138671875
0.4899999,-10.192116737365723,-0.6584054827690125,0.13407529890537262,13.7939453125,-13.5955810546875,-1.03759765625
0.5099999,-10.26394271850586,-0.507570743560791,0.16759411990642548,13.275146484375,-16.021728515625,-1.068115234375
0.5299999,-10.24000072479248,-0.3734954595565796,0.29209262132644653,11.3372802734375,-15.9149169921875,-3.35693359375
0.5499999,-10.108319282531738,-0.26815059781074524,0.45489832758903503,10.5438232421875,-15.7470703125,-7.8887939453125
0.5699999,-9.923966407775879,-0.20350714027881622,0.6440402865409851,10.1165771484375,-16.4794921875,-10.8642578125
0.5899998999999999,-9.799467086791992,-0.2537853717803955,0.811634361743927,7.2021484375,-16.78466796875,-12.1002197265625
0.6099998999999999,-9.782708168029785,-0.4189853072166443,0.9241618514060974,3.1585693359375,-16.2353515625,-12.14599609375
0.6299999,-9.84495735168457,-0.6703764796257019,0.993593692779541,0.5340576171875,-16.7236328125,-9.8114013671875
0.6499999,-9.911994934082031,-0.9433154463768005,1.0247182846069336,0,-18.5394287109375,-6.6986083984375
0.6699999,-9.938331604003906,-1.2018892765045166,0.9911994934082031,1.190185546875,-19.7296142578125,-4.852294921875
0.6899999,-9.919178009033203,-1.3766659498214722,0.9241618514060974,7.38525390625,-20.904541015625,-4.8370361328125
0.7099999,-9.897629737854004,-1.455674648284912,0.9888052940368652,18.8446044921875,-23.3001708984375,-5.096435546875
0.7299998999999999,-9.859322547912598,-1.3646949529647827,1.2042834758758545,21.759033203125,-22.03369140625,-3.814697265625
0.7499998999999999,-9.821015357971191,-1.158793568611145,1.5610195398330688,12.7105712890625,-16.0369873046875,-3.5858154296875
0.7699999,-9.758766174316406,-0.8882488012313843,1.9752163887023926,3.7841796875,-10.1165771484375,-6.65283203125
0.7899999,-9.68694019317627,-0.5937620401382446,2.3965959548950195,-2.227783203125,-6.3934326171875,-8.8958740234375
0.8099999,-9.583989143371582,-0.3878606855869293,2.6384103298187256,-16.0675048828125,0.5035400390625,-8.8348388671875
0.8299999,-9.552865028381348,-0.29209262132644653,2.734178304672241,-27.2979736328125,6.4544677734375,-13.12255859375
0.8499998999999999,-9.550470352172852,-0.43095630407333374,2.5785553455352783,-28.2440185546875,8.7890625,-14.2974853515625
0.8699998999999999,-9.68694019317627,-0.7086837291717529,2.1715409755706787,-23.5443115234375,8.270263671875,-12.1307373046875
0.8899999,-9.78989028930664,-1.237802267074585,1.4939818382263184,-9.09423828125,-1.861572265625,-10.8184814453125
0.9099999,-9.950302124023438,-1.7764976024627686,0.7326257228851318,12.6953125,-4.82177734375,-10.5743408203125
0.9299999,-10.108319282531738,-2.229001760482788,0.1388636976480484,33.660888671875,-13.4124755859375,-0.823974609375
0.9499999,-10.086771965026855,-2.3080103397369385,-0.1388636976480484,42.7398681640625,-29.72412109375,-0.274658203125
0.9699998999999999,-10.1753568649292,-2.0614075660705566,0.038307227194309235,38.63525390625,-27.40478515625,-0.5035400390625
0.9899998999999999,-9.919178009033203,-1.6089035272598267,0.6847416758537292,30.6243896484375,-35.0494384765625,-8.2550048828125
1.0099999,-9.720458984375,-1.0749965906143188,1.5969325304031372,16.7236328125,-19.1650390625,-12.420654296875
1.0299999,-9.552865028381348,-0.6751648783683777,2.564189910888672,-2.593994140625,-5.8441162109375,-5.9661865234375
1.0499999,-9.2033109664917,-0.5722141861915588,3.2824504375457764,-20.1263427734375,-5.43212890625,-12.75634765625
1.0699999,-9.476250648498535,-0.7924807667732239,3.514688014984131,-26.1688232421875,9.3841552734375,-1.40380859375
1.0899999,-9.294290542602539,-1.1468225717544556,3.359065055847168,-18.463134765625,-1.1444091796875,2.8228759765625
1.1099999,-9.634267807006836,-1.6304513216018677,2.8634653091430664,-11.199951171875,1.5106201171875,6.6375732421875
1.1299999,-9.481039047241211,-1.8698714971542358,2.387019157409668,-4.4708251953125,-6.011962890625,0.3814697265625
1.1499999,-9.651026725769043,-1.9560627937316895,1.9081788063049316,2.38037109375,4.547119140625,-0.9613037109375
1.1699998999999999,-9.586383819580078,-1.7525556087493896,1.7357962131500244,6.6070556640625,-0.1678466796875,1.007080078125
1.1899998999999999,-9.615114212036133,-1.4628572463989258,1.644816517829895,0.42724609375,-0.762939453125,-8.819580078125
1.2099999,-9.792284965515137,-1.2641384601593018,1.7501614093780518,-6.4544677734375,6.40869140625,3.631591796875
1.2299999,-9.821015357971191,-1.1180921792984009,1.8291701078414917,-4.9896240234375,-3.9520263671875,-3.3111572265625
1.2499999,-9.919178009033203,-1.2497732639312744,1.9752163887023926,-0.9307861328125,-3.5400390625,1.0833740234375
1.2699999,-9.825803756713867,-1.3694833517074585,1.8986018896102905,-0.2593994140625,-6.1187744140625,-6.3018798828125
1.2899999,-9.8784761428833,-1.580173134803772,1.802833914756775,3.143310546875,3.72314453125,3.4027099609375
1.3099999,-9.612719535827637,-1.580173134803772,1.7166426181793213,10.0555419921875,-10.4522705078125,-3.5552978515625
1.3299999,-9.830592155456543,-1.5083470344543457,1.647210717201233,8.48388671875,-0.5035400390625,1.03759765625
1.3499999,-9.68933391571045,-1.3766659498214722,1.7525556087493896,2.349853515625,-8.6517333984375,4.5928955078125
1.3699999,-9.856928825378418,-1.2449848651885986,1.9823989868164062,-1.312255859375,-7.781982421875,-1.28173828125
1.3899999,-9.646238327026367,-1.2665326595306396,2.319981336593628,1.007080078125,-8.8958740234375,-3.47900390625
1.4099999,-9.564835548400879,-1.3000515699386597,2.559401512145996,0.54931640625,3.997802734375,-6.0577392578125
1.4299998999999999,-9.452308654785156,-1.4963760375976562,2.779668092727661,0.6256103515625,9.8876953125,3.387451171875
1.4499999,-9.315838813781738,-1.5634137392044067,2.6815059185028076,-0.48828125,4.5318603515625,-6.2713623046875
1.4699999,-9.603142738342285,-1.6496049165725708,2.494758129119873,0.06103515625,12.0697021484375,12.51220703125
1.4899999,-9.59596061706543,-1.4987702369689941,2.1475989818573,6.103515625,-5.523681640625,3.0975341796875
1.5099999,-9.84495735168457,-1.2641384601593018,2.0661959648132324,5.218505859375,-2.38037109375,1.9073486328125
1.5299999,-9.68933391571045,-0.9816226959228516,1.9273324012756348,-4.82177734375,-3.9825439453125,-13.4735107421875
1.5499999,-9.75637149810791,-0.8212111592292786,1.9991583824157715,-9.796142578125,10.955810546875,-5.6304931640625
1.5699999,-9.533711433410645,-0.9050082564353943,2.0853497982025146,-6.89697265625,0.8392333984375,-8.941650390625
1.5899999,-9.674968719482422,-1.192312479019165,2.094926595687866,-9.0789794921875,10.19287109375,-4.852294921875
1.6099999,-9.59596061706543,-1.5682021379470825,2.0853497982025146,-8.7890625,5.2337646484375,6.8359375
1.6299999,-9.830592155456543,-1.8602946996688843,1.944091796875,-1.64794921875,-0.6103515625,2.50244140625
1.6499999,-9.648633003234863,-2.078166961669922,1.7693150043487549,9.1705322265625,-7.659912109375,1.220703125
1.6699999,-9.730035781860352,-2.0590133666992188,1.4748282432556152,14.4805908203125,-2.8228759765625,-2.8076171875
1.6899998999999999,-9.715670585632324,-2.0039467811584473,1.4532804489135742,20.782470703125,-3.2806396484375,7.659912109375
1.7099999,-9.519346237182617,-1.6543933153152466,1.6376339197158813,17.3187255859375,-12.3748779296875,-3.692626953125
1.7299999,-9.837775230407715,-1.316810965538025,2.123656988143921,-3.0059814453125,4.3792724609375,11.8865966796875
1.7499999,-9.543288230895996,-0.8786720037460327,2.628833532333374,-27.862548828125,-0.4425048828125,3.23486328125
1.7699999,-9.765948295593262,-0.7374141216278076,2.964021682739258,-37.6739501953125,8.7432861328125,2.1820068359375
1.7899999,-9.433155059814453,-0.7182605266571045,2.9951462745666504,-31.219482421875,2.3956298828125,-9.5062255859375
1.8099999,-9.583989143371582,-1.0534487962722778,2.564189910888672,-16.3726806640625,13.9007568359375,-1.5411376953125
1.8299999,-9.519346237182617,-1.482010841369629,1.9967641830444336,2.0751953125,1.64794921875,0.701904296875
1.8499999,-9.775525093078613,-1.843535304069519,1.3503297567367554,14.251708984375,-0.4119873046875,-1.617431640625
1.8699999,-9.828198432922363,-2.0638017654418945,1.0127472877502441,23.4375,-6.8359375,11.2457275390625
1.8899999,-10.005369186401367,-1.987187385559082,0.9888052940368652,23.1170654296875,-14.6331787109375,4.39453125
1.9099999,-9.859322547912598,-1.7860745191574097,1.5203180313110352,14.2974853515625,-11.23046875,4.8065185546875
1.9299998999999999,-9.66299819946289,-1.3910311460494995,2.0470423698425293,-0.7171630859375,-6.2255859375,-6.317138671875
1.9499999,-9.739612579345703,-1.1085153818130493,2.719813108444214,-9.2010498046875,11.0321044921875,5.2337646484375
1.9699999,-9.315838813781738,-0.811634361743927,3.1459810733795166,-20.1263427734375,5.43212890625,-3.9215087890625
1.9899999,-9.643844604492188,-0.730231523513794,3.227383852005005,-33.6151123046875,22.7508544921875,2.62451171875
2.0099999,-9.435548782348633,-0.7924807667732239,3.00711727142334,-32.4859619140625,12.8173828125,2.62451171875
2.0299999,-9.710882186889648,-1.0127472877502441,2.564189910888672,-17.88330078125,11.505126953125,0.9307861328125
2.0499999,-9.617507934570312,-1.357512354850769,1.9608511924743652,-0.8544921875,1.3275146484375,-5.0201416015625
2.0699999,-9.749189376831055,-1.647210717201233,1.3192051649093628,13.5498046875,4.2724609375,-10.2386474609375
2.0899999,-9.782708168029785,-1.9033904075622559,1.0534487962722778,30.09033203125,0.6256103515625,-0.0762939453125
2.1099999,-9.658209800720215,-1.8411411046981812,0.8595184087753296,29.0985107421875,-9.7503662109375,-8.1787109375
2.1299999,-9.923966407775879,-1.699883222579956,1.0438719987869263,15.167236328125,2.7313232421875,5.157470703125
2.1499999,-9.682151794433594,-1.400607943534851,1.3934253454208374,3.326416015625,-10.5438232421875,-1.0528564453125
2.1699999,-9.890447616577148,-1.2186486721038818,1.802833914756775,-1.9073486328125,-3.2958984375,1.7242431640625
2.1899999,-9.643844604492188,-1.1755530834197998,2.212242364883423,-6.988525390625,-8.544921875,-4.302978515625
2.2099999,-9.655815124511719,-1.335964560508728,2.4157495498657227,-11.383056640625,5.7373046875,-2.471923828125
2.2299999,-9.514557838439941,-1.5275006294250488,2.537853717803955,-8.4381103515625,3.936767578125,4.5166015625
2.2499999,-9.445125579833984,-1.5705963373184204,2.454056739807129,-13.6260986328125,-0.0457763671875,-1.8310546875
2.2699999,-9.674968719482422,-1.5610195398330688,2.2697031497955322,-22.0489501953125,9.5062255859375,11.0931396484375
2.2899999,-9.627084732055664,-1.45806884765625,1.9943699836730957,-22.3388671875,-6.195068359375,5.4168701171875
2.3099999,-9.943120002746582,-1.4389152526855469,1.6615760326385498,-10.6658935546875,-4.2572021484375,6.6070556640625
2.3299999,-9.81143856048584,-1.5466543436050415,1.3982137441635132,5.5694580078125,-16.4947509765625,0.579833984375
2.3499999,-9.806650161743164,-1.5873557329177856,1.3048399686813354,16.632080078125,-9.4757080078125,-3.23486328125
2.3699999,-9.861717224121094,-1.5131354331970215,1.599326729774475,20.3857421875,-3.8909912109375,2.5177001953125
2.3899999,-9.543288230895996,-1.290474772453308,2.075772762298584,8.209228515625,-7.2479248046875,-7.5225830078125
2.4099999,-9.773131370544434,-1.0271124839782715,2.6862943172454834,-11.016845703125,13.580322265625,3.448486328125
2.4299999,-9.469067573547363,-0.8307880163192749,3.157952070236206,-22.3541259765625,8.1024169921875,1.3427734375
2.4499999,-9.488221168518066,-0.849941611289978,3.2345664501190186,-26.1993408203125,14.7705078125,-0.579833984375
2.4699999,-9.485827445983887,-1.0247182846069336,3.050212860107422,-18.73779296875,12.786865234375,-3.0670166015625
2.4899999,-9.423578262329102,-1.3311761617660522,2.425326347351074,-6.2713623046875,9.9334716796875,-12.6190185546875
2.5099999,-9.799467086791992,-1.5969325304031372,1.7956513166427612,10.7421875,14.190673828125,-0.2899169921875
2.5299999,-9.701305389404297,-1.824381709098816,1.278503656387329,16.4031982421875,-2.777099609375,-4.791259765625
2.5499999,-9.821015357971191,-1.802833914756775,0.8451532125473022,7.080078125,-4.241943359375,5.8746337890625
2.5699999,-9.885659217834473,-1.6304513216018677,0.9911994934082031,8.2855224609375,-8.1939697265625,2.7923583984375
2.5899999,-9.785101890563965,-1.501164436340332,1.3431471586227417,4.6539306640625,-10.9710693359375,-0.8544921875
2.6099999,-9.667786598205566,-1.2856862545013428,1.7142484188079834,-5.0506591796875,-6.2408447265625,-10.467529296875
2.6299999,-9.751583099365234,-1.2186486721038818,2.1116859912872314,-6.0577392578125,6.1492919921875,0.0762939453125
2.6499999,-9.44752025604248,-1.2114660739898682,2.477998733520508,-8.6212158203125,-4.5318603515625,-4.486083984375
2.6699999,-9.586383819580078,-1.2258312702178955,2.6001031398773193,-23.590087890625,12.5885009765625,-0.0762939453125
2.6899999,-9.41400146484375,-1.3766659498214722,2.628833532333374,-31.6925048828125,10.5743408203125,6.103515625
2.7099999,-9.636661529541016,-1.5394717454910278,2.4013843536376953,-22.9339599609375,6.500244140625,4.3487548828125
2.7299999,-9.651026725769043,-1.7980455160140991,1.9153614044189453,-2.62451171875,-2.86865234375,3.8299560546875
2.7499999,-9.770736694335938,-1.9584569931030273,1.237802267074585,15.2130126953125,-9.368896484375,-4.4708251953125
2.7699999,-9.986215591430664,-1.9991583824157715,0.7805097699165344,32.2723388671875,-7.01904296875,4.150390625
2.7899999,-9.856928825378418,-1.8962076902389526,0.6488286852836609,34.6221923828125,-22.88818359375,-1.28173828125
2.8099999,-10.000580787658691,-1.5658079385757446,0.9576807022094727,17.5628662109375,-8.6212158203125,1.9989013671875
2.8299999,-9.718064308166504,-1.2761094570159912,1.6424223184585571,-0.3814697265625,-8.880615234375,6.6680908203125
2.8499999,-9.639056205749512,-0.9457096457481384,2.365471363067627,-12.2222900390625,-7.7056884765625,1.2969970703125
2.8699999,-9.533711433410645,-0.8858546018600464,3.0166940689086914,-16.204833984375,-0.823974609375,0.9002685546875
2.8899999,-9.378087997436523,-0.8331822156906128,3.1890766620635986,-17.547607421875,-0.946044921875,-8.7738037109375
2.9099999,-9.57201862335205,-1.0223240852355957,3.098097085952759,-11.3067626953125,12.481689453125,-0.5950927734375
2.9299999,-9.457097053527832,-1.2449848651885986,2.7509377002716064,-5.0811767578125,0.5645751953125,-3.4027099609375
2.9499999,-9.627084732055664,-1.400607943534851,2.2864625453948975,-8.23974609375,7.8277587890625,-4.5623779296875
2.9699999,-9.610325813293457,-1.6280571222305298,1.9033904075622559,-6.4849853515625,6.744384765625,4.6844482421875
2.9899999,-9.751583099365234,-1.742978811264038,1.6974890232086182,1.678466796875,-4.974365234375,0.3204345703125
3.0099999,-9.86889934539795,-1.8076223134994507,1.6208745241165161,8.7738037109375,-3.2501220703125,2.349853515625
3.0299999,-9.710882186889648,-1.8387469053268433,1.5897499322891235,9.2620849609375,-9.3994140625,-5.6610107421875
3.0499999,-9.81143856048584,-1.7070658206939697,1.7573440074920654,11.260986328125,4.8065185546875,1.8463134765625
3.0699999,-9.533711433410645,-1.5275006294250488,2.0877439975738525,4.5928955078125,-0.91552734375,0.91552734375
3.0899999,-9.497797966003418,-1.1803414821624756,2.4396915435791016,-20.660400390625,8.7432861328125,-4.669189453125
3.1099999,-9.47146224975586,-0.9433154463768005,2.7748796939849854,-39.398193359375,21.2554931640625,4.9285888671875
3.1299999,-9.581595420837402,-0.871489405632019,2.736572504043579,-36.0107421875,8.2244873046875,-0.152587890625
3.1499999,-9.823410034179688,-1.0558429956436157,2.346317768096924,-16.1590576171875,7.4615478515625,0.274658203125
3.1699999,-9.75397777557373,-1.5682021379470825,1.5969325304031372,6.988525390625,-7.6904296875,-7.2174072265625
3.1899999,-10.000580787658691,-1.9728221893310547,0.9265560507774353,29.6478271484375,-1.8768310546875,-1.5716552734375
3.2099999,-9.871294021606445,-2.274491548538208,0.6440402865409851,39.947509765625,-13.5955810546875,1.9683837890625
3.2299999,-9.677363395690918,-2.121262788772583,0.7948749661445618,24.5361328125,-15.045166015625,-3.7841796875
3.2499999,-9.782708168029785,-1.7262194156646729,1.3886369466781616,-0.457763671875,0.5645751953125,6.103515625
3.2699999,-9.586383819580078,-1.335964560508728,2.0877439975738525,-16.1895751953125,-8.8958740234375,1.861572265625
3.2899999,-9.713275909423828,-1.0462661981582642,2.564189910888672,-18.8140869140625,-0.0152587890625,4.21142578125
3.3099999,-9.5624418258667,-1.1444283723831177,2.695871114730835,-11.8865966796875,-8.7127685546875,-1.1444091796875
3.3299999000000002,-9.607931137084961,-1.3215993642807007,2.5474305152893066,-1.3427734375,1.28173828125,-2.9144287109375
3.3499999,-9.667786598205566,-1.5969325304031372,2.2577321529388428,8.2550048828125,1.03759765625,4.730224609375
3.3699999,-9.497797966003418,-1.623268723487854,2.1045033931732178,5.157470703125,-9.7808837890625,-2.105712890625
3.3899999,-9.847352027893066,-1.5969325304031372,1.987187385559082,-6.3934326171875,6.1187744140625,7.0648193359375
3.4099999,-9.62947940826416,-1.4293384552001953,2.075772762298584,-10.528564453125,-6.2255859375,4.1961669921875
3.4299999,-9.751583099365234,-1.3455413579940796,2.0925323963165283,-8.270263671875,-3.1280517578125,4.180908203125
3.4499999,-9.634267807006836,-1.359906554222107,2.1595699787139893,-3.35693359375,-7.5836181640625,0.3204345703125
3.4699999,-9.550470352172852,-1.3838485479354858,2.140416383743286,2.7923583984375,-4.0130615234375,-8.453369140625
3.4899999,-9.624691009521484,-1.436521053314209,2.2457611560821533,9.8419189453125,5.7830810546875,0.8392333984375
3.5099999,-9.469067573547363,-1.3670891523361206,2.3989901542663574,4.150390625,-2.8076171875,-2.99072265625
3.5299999,-9.708487510681152,-1.3503297567367554,2.5474305152893066,-11.688232421875,13.9617919921875,1.3275146484375
3.5499999,-9.476250648498535,-1.292868971824646,2.691082715988159,-16.815185546875,9.82666015625,5.0201416015625
3.5699999,-9.627084732055664,-1.359906554222107,2.674323320388794,-15.8233642578125,6.7138671875,3.0975341796875
3.5899999,-9.615114212036133,-1.3670891523361206,2.5330653190612793,-13.5650634765625,7.7667236328125,2.8533935546875
3.6099999,-9.581595420837402,-1.4748282432556152,2.140416383743286,-6.8511962890625,1.312255859375,-7.5836181640625
3.6299999,-9.787496566772461,-1.5298948287963867,1.6927006244659424,9.3231201171875,8.8958740234375,-0.7781982421875
3.6499999,-9.696516990661621,-1.599326729774475,1.3623007535934448,16.326904296875,-6.591796875,-2.3956298828125
3.6699999,-9.77791976928711,-1.5897499322891235,1.0893617868423462,7.4310302734375,-2.2735595703125,-5.06591796875
3.6899999,-9.75397777557373,-1.5969325304031372,1.1851298809051514,4.2877197265625,-1.2054443359375,4.364013671875
3.7099999,-9.761159896850586,-1.5538369417190552,1.4389152526855469,8.8653564453125,-14.495849609375,0.8392333984375
3.7299999,-9.86650562286377,-1.5155296325683594,1.7717092037200928,7.8277587890625,-7.1868896484375,4.0740966796875
3.7499999,-9.641449928283691,-1.4963760375976562,2.1787235736846924,-0.3509521484375,-13.3819580078125,-2.8228759765625
3.7699999,-9.706093788146973,-1.4939818382263184,2.4372973442077637,-3.021240234375,3.11279296875,-1.953125
3.7899999,-9.627084732055664,-1.4077905416488647,2.762908697128296,-1.739501953125,4.5166015625,4.1046142578125
3.8099999,-9.38048267364502,-1.237802267074585,2.892195701599121,-12.786865234375,0.1678466796875,-4.2877197265625
3.8299999000000002,-9.651026725769043,-1.161187767982483,2.8874073028564453,-24.444580078125,18.402099609375,3.47900390625
3.8499999,-9.48343276977539,-1.1037269830703735,2.6862943172454834,-19.1497802734375,4.4097900390625,-1.434326171875
3.8699999,-9.653421401977539,-1.2521674633026123,2.183511972427368,-1.9989013671875,3.0975341796875,-0.9613037109375
3.8899999,-9.727641105651855,-1.5729905366897583,1.6831238269805908,18.6004638671875,-9.82666015625,-3.0670166015625
3.9099999,-9.746794700622559,-1.7741034030914307,1.2665326595306396,31.982421875,-11.71875,-9.1094970703125
3.9299999,-9.823410034179688,-1.8555063009262085,1.2330138683319092,36.2396240234375,-2.593994140625,0.091552734375
3.9499999,-9.646238327026367,-1.721431016921997,1.6328455209732056,22.8271484375,-9.27734375,-2.50244140625
3.9699999,-9.648633003234863,-1.3958195447921753,2.255337953567505,-4.0740966796875,7.476806640625,-2.777099609375
3.9899999,-9.394847869873047,-1.1085153818130493,2.940079689025879,-24.8565673828125,12.3748779296875,2.50244140625
4.0099999,-9.397241592407227,-0.912190854549408,3.2968156337738037,-33.416748046875,10.3607177734375,-1.5411376953125
4.029999900000001,-9.583989143371582,-0.9792284965515137,3.222595453262329,-26.3214111328125,13.763427734375,-0.030517578125
4.0499999,-9.495404243469238,-1.2234370708465576,2.7102363109588623,-11.16943359375,1.7852783203125,-8.392333984375
4.069999900000001,-9.81143856048584,-1.5705963373184204,2.0159177780151367,5.5694580078125,11.71875,-1.5716552734375
4.0899999000000005,-9.787496566772461,-1.8746598958969116,1.556231141090393,13.763427734375,2.1820068359375,0.1220703125
4.1099999,-9.653421401977539,-2.0183119773864746,1.1827356815338135,8.0718994140625,-2.777099609375,-4.2877197265625
4.1299999000000005,-9.876082420349121,-2.0183119773864746,1.0989385843276978,1.861572265625,5.5999755859375,7.9345703125
4.1499999,-9.684545516967773,-1.8555063009262085,1.237802267074585,4.9285888671875,-11.566162109375,3.2958984375
4.1699999000000005,-9.828198432922363,-1.678335428237915,1.4053963422775269,7.720947265625,-6.927490234375,3.0975341796875
4.1899999,-9.713275909423828,-1.5083470344543457,1.6974890232086182,6.9427490234375,-13.0767822265625,-0.0762939453125
4.209999900000001,-9.648633003234863,-1.37906014919281,1.987187385559082,6.805419921875,-4.4097900390625,-7.9803466796875
4.2299999,-9.636661529541016,-1.3072341680526733,2.343923568725586,8.209228515625,5.1422119140625,-0.030517578125
4.249999900000001,-9.41639518737793,-1.2330138683319092,2.6815059185028076,-6.53076171875,-0.732421875,-3.1890869140625
4.2699999,-9.552865028381348,-1.1851298809051514,2.959233283996582,-29.5867919921875,18.12744140625,0.6561279296875
4.289999900000001,-9.399636268615723,-1.2282254695892334,2.983175277709961,-33.660888671875,15.4876708984375,6.0882568359375
4.3099999,-9.5408935546875,-1.460463047027588,2.6623523235321045,-20.7366943359375,4.94384765625,1.9073486328125
4.329999900000001,-9.794678688049316,-1.7573440074920654,2.054224967956543,1.5106201171875,2.777099609375,5.5389404296875
4.3499999,-9.694122314453125,-1.9704279899597168,1.3503297567367554,23.3917236328125,-12.237548828125,-4.1351318359375
4.369999900000001,-9.979032516479492,-2.0470423698425293,0.8690952062606812,41.900634765625,-3.0670166015625,-0.1983642578125
4.3899999,-9.876082420349121,-1.7836803197860718,0.9481038451194763,40.0390625,-10.4217529296875,-1.0833740234375
4.409999900000001,-9.66539192199707,-1.314416766166687,1.381454348564148,12.1917724609375,-9.1400146484375,-6.988525390625
4.4299999,-9.775525093078613,-1.0055646896362305,2.1332337856292725,-18.3563232421875,10.7269287109375,1.983642578125
4.449999900000001,-9.481039047241211,-0.7182605266571045,2.8634653091430664,-32.2418212890625,2.471923828125,-2.74658203125
4.4699999,-9.497797966003418,-0.9600749015808105,3.1292216777801514,-33.2489013671875,12.0697021484375,-0.48828125
4.489999900000001,-9.452308654785156,-1.3455413579940796,3.0597896575927734,-22.1710205078125,5.889892578125,-0.152587890625
4.5099999,-9.536105155944824,-1.7932571172714233,2.535459518432617,-5.9661865234375,8.3465576171875,-3.936767578125
4.529999900000001,-9.706093788146973,-2.121262788772583,1.8914192914962769,11.04736328125,9.9945068359375,5.0048828125
4.5499999,-9.734824180603027,-2.145204782485962,1.2976573705673218,16.8914794921875,-7.2784423828125,2.0751953125
4.569999900000001,-9.892841339111328,-1.8986018896102905,0.9983820915222168,9.1705322265625,-1.007080078125,2.7313232421875
4.5899999000000005,-9.81143856048584,-1.6974890232086182,1.015141487121582,5.340576171875,-5.2337646484375,5.3253173828125
4.609999900000001,-9.785101890563965,-1.3479355573654175,1.3287819623947144,5.7525634765625,-11.77978515625,0.2288818359375
4.6299999000000005,-9.897629737854004,-1.2330138683319092,1.7525556087493896,4.1046142578125,-6.0577392578125,2.166748046875
4.6499999,-9.63187313079834,-1.1659762859344482,2.2146365642547607,0.518798828125,-12.0391845703125,-7.293701171875
4.6699999000000005,-9.63187313079834,-1.235408067703247,2.5953147411346436,-1.3885498046875,8.087158203125,-3.997802734375
4.6899999,-9.509769439697266,-1.2952631711959839,2.956839084625244,-6.4697265625,11.3067626953125,3.326416015625
4.709999900000001,-9.284713745117188,-1.436521053314209,2.985569477081299,-19.439697265625,8.0413818359375,-3.1280517578125
4.7299999,-9.603142738342285,-1.4652514457702637,2.8203697204589844,-24.3682861328125,20.6451416015625,6.3018798828125
4.749999900000001,-9.514557838439941,-1.5682021379470825,2.3487119674682617,-14.7247314453125,2.6092529296875,3.3416748046875
4.7699999,-9.797073364257812,-1.6352397203445435,1.7334020137786865,-0.48828125,1.28173828125,3.3111572265625
4.789999900000001,-9.825803756713867,-1.7980455160140991,1.194706678390503,18.0511474609375,-10.4217529296875,0.9002685546875
4.8099999,-9.828198432922363,-1.843535304069519,0.8212111592292786,32.135009765625,-14.1448974609375,-8.1787109375
4.829999900000001,-9.871294021606445,-1.7741034030914307,0.8738836050033569,36.7584228515625,-4.547119140625,-0.18310546875
4.8499999,-9.627084732055664,-1.5705963373184204,1.3479355573654175,23.712158203125,-12.1917724609375,-0.4425048828125
4.869999900000001,-9.624691009521484,-1.2521674633026123,2.0422539710998535,-4.7607421875,0.274658203125,-2.716064453125
4.8899999,-9.461885452270508,-1.0271124839782715,2.8347349166870117,-27.7252197265625,12.4359130859375,4.5318603515625
4.909999900000001,-9.457097053527832,-0.9552865028381348,3.184288263320923,-34.7900390625,5.5999755859375,1.3427734375
4.9299999,-9.674968719482422,-1.1252747774124146,3.0550012588500977,-26.092529296875,9.9029541015625,4.730224609375
4.949999900000001,-9.643844604492188,-1.534683346748352,2.470816135406494,-4.638671875,-5.5694580078125,-2.532958984375
4.9699999,-9.86889934539795,-1.8363527059555054,1.7741034030914307,16.17431640625,3.1280517578125,-0.5340576171875
4.989999900000001,-9.952696800231934,-2.030282974243164,1.2066776752471924,24.7344970703125,-0.1220703125,4.3182373046875
5.0099999,-9.710882186889648,-1.7956513166427612,1.1659762859344482,18.402099609375,-13.2293701171875,-2.9296875
5.029999900000001,-9.914389610290527,-1.4389152526855469,1.3670891523361206,1.922607421875,2.2735595703125,1.373291015625
5.0499999,-9.576807022094727,-1.091755986213684,1.889025092124939,-7.568359375,-1.89208984375,-0.30517578125
5.069999900000001,-9.646238327026367,-0.9097966551780701,2.31758713722229,-8.758544921875,0.6866455078125,-2.44140625
5.0899999000000005,-9.667786598205566,-1.0773907899856567,2.6216509342193604,-5.06591796875,0.0762939453125,-1.129150390625
5.109999900000001,-9.519346237182617,-1.2832920551300049,2.626439332962036,-0.9918212890625,-1.6937255859375,-8.23974609375
5.1299999000000005,-9.57201862335205,-1.5490485429763794,2.4899697303771973,5.0201416015625,13.7786865234375,-0.1373291015625
5.1499999,-9.461885452270508,-1.659181833267212,2.322375535964966,5.7830810546875,4.2266845703125,0.8087158203125
5.1699999000000005,-9.493009567260742,-1.6687586307525635,2.123656988143921,-5.4779052734375,4.1961669921875,-3.4637451171875
5.1899999,-9.727641105651855,-1.556231141090393,1.9991583824157715,-12.1002197265625,11.810302734375,5.9814453125
5.209999900000001,-9.703699111938477,-1.534683346748352,1.8339585065841675,-5.4931640625,-3.3416748046875,0.244140625
5.2299999,-9.986215591430664,-1.5538369417190552,1.5921441316604614,5.9967041015625,-0.9765625,2.6702880859375
5.249999900000001,-9.86889934539795,-1.6663644313812256,1.4389152526855469,15.3045654296875,-14.6636962890625,-0.946044921875
5.2699999,-9.849745750427246,-1.7860745191574097,1.2856862545013428,19.1802978515625,-6.0882568359375,-2.7313232421875
5.289999900000001,-9.837775230407715,-1.7334020137786865,1.45806884765625,16.754150390625,-0.9765625,4.852294921875
5.3099999,-9.545681953430176,-1.5729905366897583,1.821987509727478,1.434326171875,-9.521484375,1.7852783203125
5.329999900000001,-9.607931137084961,-1.3455413579940796,2.212242364883423,-20.416259765625,6.9580078125,5.0811767578125
5.3499999,-9.442731857299805,-1.1252747774124146,2.585737943649292,-25.9552001953125,4.57763671875,6.3934326171875
5.369999900000001,-9.53849983215332,-1.0749965906143188,2.652775526046753,-20.538330078125,0.42724609375,1.953125
5.3899999,-9.710882186889648,-1.237802267074585,2.4660277366638184,-9.246826171875,0.4119873046875,5.43212890625
5.409999900000001,-9.619902610778809,-1.4389152526855469,2.1308395862579346,6.40869140625,-11.5203857421875,-4.1046142578125
5.4299999,-9.782708168029785,-1.644816517829895,1.7764976024627686,21.6522216796875,2.4261474609375,0.1068115234375
5.449999900000001,-9.746794700622559,-1.6974890232086182,1.7166426181793213,25.0701904296875,-2.7008056640625,2.5787353515625
5.4699999,-9.593565940856934,-1.4221558570861816,1.8195933103561401,11.688232421875,-6.1187744140625,-3.2196044921875
5.489999900000001,-9.830592155456543,-1.194706678390503,2.1356279850006104,-5.7220458984375,8.8348388671875,3.0975341796875
5.5099999,-9.555258750915527,-0.9792284965515137,2.4612393379211426,-13.18359375,0.6103515625,-2.044677734375
5.529999900000001,-9.727641105651855,-0.950498104095459,2.585737943649292,-13.5650634765625,7.99560546875,-0.2899169921875
5.5499999,-9.579200744628906,-1.1971008777618408,2.513911724090576,-5.828857421875,-0.9613037109375,-1.312255859375
5.569999900000001,-9.5408935546875,-1.4628572463989258,2.276885747909546,2.8839111328125,1.4495849609375,-6.9580078125
5.5899999000000005,-9.655815124511719,-1.6639702320098877,1.9823989868164062,9.0179443359375,10.498046875,2.105712890625
5.609999900000001,-9.476250648498535,-1.745373010635376,1.8602946996688843,6.4849853515625,-1.7242431640625,0.9613037109375
5.6299999000000005,-9.646238327026367,-1.5969325304031372,1.9105730056762695,-8.148193359375,5.3863525390625,-0.335693359375
5.6499999,-9.627084732055664,-1.4389152526855469,2.030282974243164,-18.463134765625,11.810302734375,5.401611328125
5.6699999000000005,-9.641449928283691,-1.2425906658172607,2.118868589401245,-13.9007568359375,0.885009765625,-0.6561279296875
5.6899999,-9.859322547912598,-1.2282254695892334,1.987187385559082,-2.655029296875,2.8533935546875,1.5411376953125
5.709999900000001,-9.77791976928711,-1.3718775510787964,1.745373010635376,8.3160400390625,-11.322021484375,-3.4332275390625
5.7299999,-9.84495735168457,-1.522712230682373,1.4867992401123047,16.9525146484375,-2.3040771484375,-5.859375
5.749999900000001,-9.825803756713867,-1.6663644313812256,1.482010841369629,18.2952880859375,1.556396484375,0.823974609375
5.7699999,-9.617507934570312,-1.6112977266311646,1.7717092037200928,5.645751953125,-8.3770751953125,0.244140625
5.789999900000001,-9.622296333312988,-1.3551181554794312,2.1523873805999756,-16.387939453125,6.7901611328125,2.0599365234375
5.8099999,-9.550470352172852,-1.1971008777618408,2.5929205417633057,-24.4140625,10.894775390625,5.2947998046875
5.829999900000001,-9.516951560974121,-1.0414776802062988,2.719813108444214,-21.484375,1.8310546875,-2.0294189453125
5.8499999,-9.775525093078613,-1.194706678390503,2.540247917175293,-12.75634765625,6.1798095703125,3.0670166015625
5.869999900000001,-9.706093788146973,-1.479616641998291,2.1595699787139893,3.0517578125,-7.4462890625,-1.129150390625
5.8899999,-9.794678688049316,-1.7549498081207275,1.6735470294952393,18.7225341796875,0.7171630859375,-2.3956298828125
5.909999900000001,-9.837775230407715,-1.8602946996688843,1.3766659498214722,24.1241455078125,2.0751953125,3.662109375
5.9299999,-9.646238327026367,-1.7166426181793213,1.3838485479354858,16.4642333984375,-10.4217529296875,1.2054443359375
5.949999900000001,-9.734824180603027,-1.3886369466781616,1.6280571222305298,-1.983642578125,2.62451171875,1.03759765625
5.9699999,-9.651026725769043,-1.094150185585022,2.099714994430542,-13.1378173828125,6.378173828125,3.8299560546875
5.989999900000001,-9.545681953430176,-0.9002198576927185,2.425326347351074,-11.1846923828125,1.89208984375,-2.99072265625
6.0099999,-9.68933391571045,-0.9792284965515137,2.5115175247192383,-7.537841796875,8.1939697265625,1.4495849609375
6.029999900000001,-9.59835433959961,-1.278503656387329,2.403778553009033,-1.2664794921875,-5.8746337890625,-2.5482177734375
6.0499999,-9.655815124511719,-1.534683346748352,2.123656988143921,8.6212158203125,4.1046142578125,-3.5247802734375
6.069999900000001,-9.737217903137207,-1.7693150043487549,1.9057846069335938,9.124755859375,8.9874267578125,3.7384033203125
6.0899999000000005,-9.567230224609375,-1.723825216293335,1.7956513166427612,5.9051513671875,-3.4942626953125,1.3580322265625
6.109999900000001,-9.701305389404297,-1.4987702369689941,1.7741034030914307,-2.7923583984375,5.218505859375,0.06103515625
6.1299999000000005,-9.691728591918945,-1.2473790645599365,1.9153614044189453,-7.2174072265625,5.8135986328125,3.5247802734375
6.149999900000001,-9.658209800720215,-1.0031704902648926,1.9967641830444336,-9.70458984375,-2.8533935546875,-3.082275390625
6.1699999000000005,-9.854534149169922,-1.0127472877502441,2.0183119773864746,-5.7830810546875,3.1585693359375,-0.79345703125
6.1899999,-9.725247383117676,-1.158793568611145,2.0398597717285156,4.7607421875,-8.1024169921875,-5.4168701171875
6.209999900000001,-9.725247383117676,-1.41257905960083,1.9105730056762695,9.918212890625,1.6632080078125,-6.6070556640625
6.2299999,-9.682151794433594,-1.5059528350830078,1.9297266006469727,6.4544677734375,9.429931640625,0.8544921875
6.249999900000001,-9.526528358459473,-1.50355863571167,2.0661959648132324,-4.2572021484375,1.007080078125,-1.15966796875
6.2699999,-9.569623947143555,-1.3096283674240112,2.2625205516815186,-24.749755859375,12.451171875,-1.190185546875
6.289999900000001,-9.694122314453125,-1.213860273361206,2.343923568725586,-35.1715087890625,18.73779296875,5.615234375
6.3099999,-9.612719535827637,-1.237802267074585,2.2361843585968018,-25.8636474609375,4.058837890625,0.4730224609375
6.329999900000001,-9.93354320526123,-1.5179238319396973,1.7932571172714233,-4.2877197265625,4.08935546875,1.312255859375
6.3499999,-9.909601211547852,-1.8938134908676147,1.235408067703247,22.1099853515625,-10.5438232421875,1.5411376953125
6.369999900000001,-9.940725326538086,-2.051830768585205,0.7661445140838623,40.5426025390625,-15.4876708984375,-1.28173828125
6.3899999,-9.895236015319824,-2.0805611610412598,0.6512228846549988,41.7633056640625,-8.30078125,1.739501953125
6.409999900000001,-9.742006301879883,-1.745373010635376,1.1109095811843872,27.40478515625,-11.993408203125,1.708984375
6.4299999,-9.531316757202148,-1.2330138683319092,1.8770540952682495,-5.6610107421875,-4.57763671875,-1.5869140625
6.449999900000001,-9.50498104095459,-0.7733271718025208,2.698265314102173,-37.261962890625,15.7012939453125,5.889892578125
6.4699999,-9.557653427124023,-0.6560112833976746,3.157952070236206,-34.11865234375,13.4429931640625,-1.3885498046875
6.489999900000001,-9.77791976928711,-1.113303780555725,2.513911724090576,-12.1917724609375,6.6070556640625,1.3580322265625
6.5099999,-9.84256362915039,-1.599326729774475,1.625662922859192,19.8822021484375,-9.3994140625,-2.8228759765625
6.529999900000001,-10.02452278137207,-1.9369091987609863,0.8690952062606812,42.022705078125,-5.4931640625,-0.701904296875
6.5499999,-10.036493301391602,-2.008735179901123,0.6129156351089478,37.4298095703125,-9.21630859375,-0.30517578125
6.569999900000001,-9.727641105651855,-1.6136919260025024,1.0749965906143188,11.3677978515625,-11.7645263671875,-2.01416015625
6.5899999000000005,-9.713275909423828,-1.1540051698684692,1.9345149993896484,-24.932861328125,8.819580078125,2.899169921875
6.609999900000001,-9.533711433410645,-0.6847416758537292,2.9065608978271484,-49.7283935546875,17.4407958984375,3.7078857421875
6.6299999000000005,-9.409213066101074,-0.5482721924781799,3.3470940589904785,-60.699462890625,15.8538818359375,-2.0599365234375
6.649999900000001,-9.543288230895996,-0.7709329724311829,3.1292216777801514,-51.6204833984375,20.294189453125,3.3721923828125
6.6699999000000005,-9.555258750915527,-1.3239935636520386,2.3511061668395996,-23.406982421875,3.9825439453125,1.8157958984375
6.6899999,-9.718064308166504,-1.7932571172714233,1.3192051649093628,5.6915283203125,-1.0986328125,-0.7476806640625
6.709999900000001,-9.90241813659668,-2.1045033931732178,0.6272808313369751,17.242431640625,-2.5634765625,5.1422119140625
6.7299999,-9.9000244140625,-1.9943699836730957,0.5147533416748047,6.2408447265625,-14.129638671875,1.5869140625
6.749999900000001,-9.90241813659668,-1.5131354331970215,1.0319008827209473,-20.5230712890625,0.3662109375,-1.0528564453125
6.7699999,-9.694122314453125,-1.039083480834961,1.7860745191574097,-52.4139404296875,14.7247314453125,0.1678466796875
6.789999900000001,-9.708487510681152,-0.7182605266571045,2.2912509441375732,-58.4869384765625,15.899658203125,-2.50244140625
6.8099999,-9.435548782348633,-0.6177040338516235,2.7246015071868896,-39.9322509765625,2.838134765625,-6.28662109375
6.829999900000001,-9.765948295593262,-0.9911994934082031,2.5689783096313477,-51.5899658203125,18.4173583984375,4.852294921875
6.8499999,-9.6989107131958,-1.400607943534851,2.276885747909546,-64.51416015625,18.5089111328125,5.9967041015625
6.869999900000001,-9.794678688049316,-2.011129379272461,1.7094600200653076,-46.8292236328125,13.336181640625,4.4708251953125
6.8899999,-9.967061996459961,-2.434903144836426,0.8188169598579407,-12.176513671875,7.0648193359375,7.0953369140625
6.909999900000001,-10.065223693847656,-2.715024709701538,0.002394201699644327,25.390625,-11.04736328125,9.368896484375
6.9299999,-10.08198356628418,-2.5761611461639404,-0.4141969084739685,44.0216064453125,-21.209716796875,3.7994384765625
6.949999900000001,-10.070012092590332,-2.0829553604125977,-0.12928688526153564,28.80859375,-14.0380859375,4.7760009765625
6.9699999,-9.950302124023438,-1.5442601442337036,0.524330198764801,3.72314453125,-8.880615234375,4.69970703125
6.989999900000001,-9.583989143371582,-0.5961562395095825,1.8195933103561401,-12.725830078125,-5.6304931640625,-0.8392333984375
7.0099999,-9.44991397857666,-0.10534487664699554,2.9017724990844727,-61.95068359375,16.1285400390625,0.0152587890625
7.029999900000001,-9.35654067993164,-0.028730420395731926,3.2369606494903564,-103.02734375,32.5775146484375,-3.631591796875
7.0499999,-9.35654067993164,-0.790086567401886,2.7485435009002686,-63.2781982421875,17.2882080078125,-1.52587890625
7.069999900000001,-9.607931137084961,-1.9033904075622559,1.2761094570159912,22.3541259765625,-5.584716796875,3.3416748046875
7.0899999000000005,-9.864110946655273,-2.9233202934265137,-0.31364041566848755,84.3658447265625,-23.651123046875,8.8653564453125
7.109999900000001,-9.952696800231934,-3.0334534645080566,-0.9217676520347595,100.9979248046875,-37.933349609375,5.8746337890625
7.1299999000000005,-9.888052940368652,-2.1978771686553955,-0.2561795711517334,57.12890625,-19.775390625,-1.1138916015625
7.149999900000001,-9.600749015808105,-1.0271124839782715,1.213860273361206,-15.4266357421875,7.0953369140625,-7.598876953125
7.1699999000000005,-9.579200744628906,-0.17956513166427612,2.762908697128296,-54.5806884765625,17.4560546875,-7.3089599609375
7.1899999,-9.313444137573242,0.2346317619085312,3.8067808151245117,-60.7147216796875,15.56396484375,-5.157470703125
7.209999900000001,-9.430760383605957,0.0071826050989329815,3.9863457679748535,-78.8726806640625,31.4788818359375,2.7923583984375
7.2299999,-9.526528358459473,-0.8140285611152649,3.2992098331451416,-90.8050537109375,35.7513427734375,3.265380859375
7.249999900000001,-9.567230224609375,-1.6376339197158813,2.1045033931732178,-64.422607421875,22.0794677734375,7.0953369140625
7.2699999,-10.007762908935547,-2.4875755310058594,0.5674257874488831,-18.1427001953125,6.0272216796875,13.3209228515625
7.289999900000001,-10.20648193359375,-2.9089550971984863,-0.9959878921508789,13.5345458984375,-7.5531005859375,14.556884765625
7.3099999,-10.278307914733887,-2.5091233253479004,-1.4532804489135742,37.322998046875,-26.458740234375,5.8135986328125
7.329999900000001,-10.137049674987793,-1.6615760326385498,-0.8930372595787048,19.989013671875,-20.7366943359375,-6.9122314453125
7.3499999,-9.84256362915039,-0.9217676520347595,0.13168109953403473,-43.121337890625,9.2620849609375,-8.7738037109375
7.369999900000001,-9.768342971801758,-0.5817909836769104,1.2042834758758545,-54.26025390625,9.979248046875,-6.7291259765625
7.3899999,-9.47146224975586,-0.7422025203704834,1.9728221893310547,-12.176513671875,-9.6435546875,-3.7078857421875
7.409999900000001,-9.641449928283691,-1.0869675874710083,2.2218191623687744,-10.7269287109375,-0.5340576171875,2.25830078125
7.4299999,-9.617507934570312,-1.1085153818130493,2.3918075561523438,-65.5059814453125,16.11328125,2.4871826171875
7.449999900000001,-9.66299819946289,-1.259350061416626,2.408566951751709,-100.8148193359375,21.05712890625,-0.5950927734375
7.4699999,-9.622296333312988,-1.170764684677124,2.322375535964966,-82.8399658203125,14.434814453125,-2.838134765625
7.489999900000001,-9.732429504394531,-1.6424223184585571,1.5849615335464478,-67.474365234375,21.728515625,6.4544677734375
7.5099999,-10.041281700134277,-2.4444799423217773,0.21787235140800476,-42.938232421875,11.016845703125,9.552001953125
7.529999900000001,-10.156203269958496,-2.7509377002716064,-1.0438719987869263,34.5458984375,-22.4609375,7.0037841796875
7.5499999,-10.400412559509277,-2.8131868839263916,-1.98958158493042,78.7811279296875,-35.2935791015625,5.767822265625
7.569999900000001,-10.333374977111816,-2.5091233253479004,-2.205059766769409,65.032958984375,-32.958984375,-2.44140625
7.5899999000000005,-10.034099578857422,-1.802833914756775,-1.1683704853057861,55.1300048828125,-37.139892578125,-4.150390625
7.609999900000001,-9.758766174316406,-0.8571242094039917,0.9744400978088379,24.2919921875,-25.909423828125,-0.732421875
7.6299999000000005,-9.263166427612305,0.06464344263076782,3.2800562381744385,-69.1375732421875,15.716552734375,-0.67138671875
7.649999900000001,-9.02135181427002,0.5434837937355042,4.788403511047363,-149.1241455078125,52.734375,-5.401611328125
7.6699999000000005,-8.80587387084961,0.5051765441894531,4.910507678985596,-141.0369873046875,41.9464111328125,-5.9967041015625
7.6899999,-9.351752281188965,-0.7565677165985107,2.875436305999756,-80.230712890625,23.62060546875,0.7171630859375
7.709999900000001,-9.919178009033203,-2.365471363067627,-0.15083470940589905,14.2974853515625,-8.453369140625,7.4462890625
7.7299999,-10.445901870727539,-3.6583402156829834,-2.7485435009002686,107.0709228515625,-50.079345703125,10.1318359375
7.749999900000001,-10.63743782043457,-3.6583402156829834,-3.4955344200134277,131.0577392578125,-60.0738525390625,3.2806396484375
7.7699999,-10.137049674987793,-2.5737667083740234,-2.0015525817871094,60.089111328125,-32.3486328125,-0.06103515625
7.789999900000001,-9.75397777557373,-1.1683704853057861,0.7589619159698486,-42.816162109375,4.8828125,-6.744384765625
7.8099999,-9.057265281677246,0.1149216815829277,3.5386300086975098,-89.84375,26.1688232421875,-8.6822509765625
7.829999900000001,-8.954314231872559,0.49799394607543945,4.994304656982422,-92.498779296875,40.9393310546875,0.885009765625
7.8499999,-9.033323287963867,-0.17956513166427612,4.608838081359863,-94.78759765625,36.529541015625,3.8604736328125
7.869999900000001,-9.445125579833984,-1.403002142906189,2.7293899059295654,-66.9097900390625,20.6146240234375,6.3323974609375
7.8899999,-9.955090522766113,-2.3535003662109375,0.4692635238170624,10.498046875,-2.777099609375,10.07080078125
7.909999900000001,-10.273519515991211,-3.0406360626220703,-1.5107412338256836,58.53271484375,-18.1884765625,12.3748779296875
7.9299999,-10.484209060668945,-2.7940332889556885,-2.3271639347076416,49.86572265625,-30.57861328125,1.556396484375
7.949999900000001,-10.201693534851074,-1.968033790588379,-1.6831238269805908,21.91162109375,-29.5257568359375,-8.72802734375
7.9699999,-9.859322547912598,-1.0295066833496094,0.10055647045373917,-20.477294921875,-3.3721923828125,-3.509521484375
7.989999900000001,-9.72285270690918,-0.6943184733390808,1.625662922859192,-78.460693359375,20.172119140625,-1.861572265625
8.0099999,-9.48343276977539,-0.8547300100326538,2.760514497756958,-71.868896484375,12.8936767578125,2.960205078125
8.0299999,-9.765948295593262,-1.2521674633026123,2.851494312286377,-40.374755859375,6.622314453125,7.5531005859375
8.049999900000001,-9.945513725280762,-1.6927006244659424,2.030282974243164,-34.8052978515625,16.2200927734375,9.2926025390625
8.069999900000001,-10.261548042297363,-2.008735179901123,0.7541735172271729,-12.542724609375,9.613037109375,1.7852783203125
8.0899999,-10.536881446838379,-2.2218191623687744,-0.646434485912323,56.2744140625,-22.52197265625,-4.5318603515625
8.1099999,-10.551246643066406,-2.3271639347076416,-1.721431016921997,123.016357421875,-50.0030517578125,-9.94873046875
8.129999900000001,-10.457873344421387,-2.322375535964966,-1.9033904075622559,140.8233642578125,-47.4700927734375,-5.5999755859375
8.149999900000001,-10.002974510192871,-1.968033790588379,-0.8355764150619507,106.1248779296875,-33.3404541015625,-6.103515625
8.1699999,-9.44991397857666,-1.3958195447921753,1.115697979927063,44.6014404296875,-15.625,-2.655029296875
8.1899999,-9.0859956741333,-0.9265560507774353,3.1723172664642334,-18.310546875,6.28662109375,3.692626953125
8.2099999,-8.93037223815918,-0.7110779285430908,4.398148536682129,-45.83740234375,25.9857177734375,7.1563720703125
8.229999900000001,-9.17936897277832,-0.8259995579719543,4.350264549255371,-26.763916015625,27.618408203125,6.9732666015625
8.2499999,-9.823410034179688,-1.1899182796478271,3.181894063949585,7.2021484375,10.040283203125,1.9683837890625
8.2699999,-10.702081680297852,-1.647210717201233,1.6639702320098877,32.9132080078125,-7.598876953125,1.15966796875
8.2899999,-11.331756591796875,-2.008735179901123,0.5291185975074768,36.2548828125,-10.1776123046875,4.1656494140625
8.309999900000001,-11.425130844116211,-2.027888774871826,0.304063618183136,28.0914306640625,-2.86865234375,7.1868896484375
8.3299999,-10.922348022460938,-1.766920804977417,0.8259995579719543,15.44189453125,4.150390625,5.889892578125
8.3499999,-10.144232749938965,-1.3192051649093628,1.5873557329177856,3.5247802734375,13.214111328125,2.6092529296875
8.3699999,-9.334992408752441,-1.0582371950149536,2.1954829692840576,-0.030517578125,18.4173583984375,-3.936767578125
8.389999900000001,-8.729259490966797,-1.0462661981582642,2.434903144836426,3.6163330078125,19.195556640625,-0.0152587890625
8.4099999,-8.355764389038086,-1.2282254695892334,2.209848165512085,9.185791015625,20.3399658203125,4.5166015625
8.4299999,-8.17380428314209,-1.403002142906189,1.6711528301239014,17.8070068359375,20.3399658203125,6.439208984375
8.4499999,-8.161833763122559,-1.436521053314209,0.9624691009521484,26.9927978515625,14.6484375,3.90625
8.469999900000001,-8.305485725402832,-1.3527239561080933,0.24420857429504395,33.7066650390625,6.072998046875,0.8392333984375
8.4899999,-8.65982723236084,-1.1971008777618408,-0.15562310814857483,36.9873046875,-0.79345703125,0.54931640625
8.5099999,-9.057265281677246,-1.161187767982483,-0.05027823522686958,35.858154296875,-1.2664794921875,-0.091552734375
8.5299999,-9.514557838439941,-1.137245774269104,0.5219359993934631,29.0069580078125,5.035400390625,0.1220703125
8.549999900000001,-9.923966407775879,-1.1468225717544556,1.3479355573654175,13.824462890625,13.4429931640625,1.4190673828125
8.569999900000001,-10.285490036010742,-1.0773907899856567,1.941697597503662,-2.2430419921875,21.148681640625,2.86865234375
8.5899999,-10.536881446838379,-1.0079588890075684,2.0853497982025146,-11.71875,22.5067138671875,0.9765625
8.6099999,-10.627861022949219,-1.0414776802062988,1.7860745191574097,-11.962890625,17.88330078125,-1.678466796875
8.629999900000001,-10.582371711730957,-1.1803414821624756,1.2521674633026123,1.4495849609375,14.2974853515625,1.495361328125
8.649999900000001,-10.381258964538574,-1.3479355573654175,0.7254431247711182,9.7198486328125,14.3585205078125,5.0811767578125
8.6699999,-10.132261276245117,-1.3910311460494995,0.3016694188117981,-14.2822265625,7.75146484375,4.7149658203125
8.6899999,-9.8784761428833,-1.290474772453308,0.1149216815829277,-22.27783203125,-4.94384765625,-1.0833740234375
8.709999900000001,-9.732429504394531,-1.1659762859344482,0.08140286058187485,14.190673828125,2.8533935546875,-3.1890869140625
8.729999900000001,-9.667786598205566,-1.1420341730117798,0.22266076505184174,8.7432861328125,4.33349609375,0.2899169921875
8.7499999,-9.710882186889648,-1.1971008777618408,0.4405331015586853,4.8828125,3.6468505859375,4.425048828125
8.7699999,-9.931148529052734,-1.1851298809051514,0.6105214357376099,-4.2724609375,1.5869140625,4.1961669921875
8.7899999,-10.27591323852539,-0.9672574996948242,0.5363011956214905,-8.1329345703125,-2.4566650390625,-2.9296875
8.809999900000001,-10.6709566116333,-0.7493851184844971,0.3974374830722809,3.7841796875,-7.354736328125,-11.5203857421875
8.8299999,-11.101913452148438,-0.6919242739677429,0.15083470940589905,26.336669921875,-9.735107421875,-13.153076171875
8.8499999,-11.30302619934082,-0.9672574996948242,0.08379705995321274,21.820068359375,-15.07568359375,-11.4593505859375
8.8699999,-11.197681427001953,-1.3862427473068237,0.2753331959247589,16.9525146484375,-18.9971923828125,-7.1868896484375
8.889999900000001,-10.697293281555176,-1.742978811264038,0.7876923680305481,11.7340087890625,-13.48876953125,-2.8839111328125
8.9099999,-9.995792388916016,-1.845929503440857,1.5107412338256836,-0.244140625,-2.5177001953125,-0.30517578125
8.9299999,-9.198522567749023,-1.723825216293335,2.126051187515259,-7.2784423828125,10.9100341796875,0.5035400390625
8.9499999,-8.578424453735352,-1.4173674583435059,2.516305923461914,-8.087158203125,17.7764892578125,1.1749267578125
8.969999900000001,-8.374917984008789,-1.2018892765045166,2.22660756111145,-0.2593994140625,20.1263427734375,1.556396484375
8.9899999,-9.346963882446289,-1.113303780555725,1.4413094520568848,27.3895263671875,13.9617919921875,-2.2125244140625
9.0099999,-10.6925048828125,-1.1228805780410767,0.49320554733276367,52.5665283203125,-16.05224609375,-31.9061279296875
9.0299999,-12.445060729980469,-1.3192051649093628,-0.2346317619085312,58.5174560546875,-28.0914306640625,-50.1556396484375
9.049999900000001,-13.464990615844727,-1.41257905960083,-0.42377370595932007,53.0242919921875,4.6539306640625,-53.16162109375
9.069999900000001,-13.362039566040039,-1.3551181554794312,-0.12928688526153564,36.7279052734375,39.886474609375,-41.32080078125
9.0899999,-12.287043571472168,-1.1971008777618408,0.3016694188117981,17.5933837890625,39.215087890625,-21.7437744140625
9.1099999,-10.757147789001465,-0.9600749015808105,0.6512228846549988,1.922607421875,23.4527587890625,0.5340576171875
9.129999900000001,-9.157821655273438,-0.8379706144332886,0.8475474119186401,-4.730224609375,22.88818359375,14.312744140625
9.149999900000001,-7.807491779327393,-0.8786720037460327,0.8068459630012512,-6.28662109375,37.384033203125,23.651123046875
9.1699999,-6.907271862030029,-1.1851298809051514,0.5650315880775452,-0.8544921875,41.93115234375,34.3780517578125
9.1899999,-6.600813865661621,-1.5490485429763794,0.15562310814857483,20.8892822265625,16.9830322265625,44.6929931640625
9.209999900000001,-6.775590896606445,-1.9704279899597168,-0.23702596127986908,42.4041748046875,-16.2811279296875,39.825439453125
9.229999900000001,-7.259219646453857,-2.2146365642547607,-0.3902548849582672,54.534912109375,-18.2037353515625,21.3623046875
9.2499999,-7.800309181213379,-2.252943754196167,-0.12449848651885986,54.2144775390625,3.60107421875,3.90625
9.2699999,-8.271966934204102,-2.145204782485962,0.4357447028160095,43.2586669921875,21.5606689453125,-6.53076171875
9.2899999,-8.705317497253418,-1.9584569931030273,1.0845733880996704,28.6407470703125,20.5230712890625,-5.523681640625
9.309999900000001,-9.097966194152832,-1.7693150043487549,1.6041151285171509,16.9830322265625,4.0740966796875,4.119873046875
9.3299999,-9.428366661071777,-1.5849615335464478,1.9177556037902832,5.06591796875,-7.4615478515625,9.0484619140625
9.3499999,-9.670180320739746,-1.3958195447921753,2.0231003761291504,-6.7901611328125,0.335693359375,-0.4119873046875
9.3699999,-9.835380554199219,-1.2689268589019775,1.8842366933822632,-14.09912109375,10.19287109375,-9.368896484375
9.389999900000001,-9.914389610290527,-1.2066776752471924,1.577778935432434,-17.2119140625,-2.62451171875,-2.3345947265625
9.4099999,-9.801861763000488,-1.139639973640442,1.2976573705673218,-20.172119140625,-20.6756591796875,9.674072265625
9.4299999,-9.792284965515137,-1.2761094570159912,0.8092401623725891,-22.8424072265625,11.0931396484375,3.6163330078125
9.4499999,-9.770736694335938,-1.2665326595306396,0.47165772318840027,-13.2598876953125,25.5126953125,-5.9967041015625
9.469999900000001,-9.854534149169922,-1.400607943534851,0.13168109953403473,-8.1939697265625,-0.79345703125,-9.490966796875
9.4899999,-10.050858497619629,-1.455674648284912,-0.10534487664699554,-7.7972412109375,-13.1378173828125,-4.1046142578125
9.5099999,-10.18493366241455,-1.4844050407409668,-0.13168109953403473,-6.256103515625,-6.9427490234375,-2.532958984375
9.5299999,-10.170568466186523,-1.4748282432556152,-0.004788403399288654,-3.8299560546875,-2.0294189453125,-3.7689208984375
9.549999900000001,-10.079588890075684,-1.3886369466781616,0.21787235140800476,-4.7607421875,-3.6163330078125,-0.0457763671875
9.569999900000001,-10.000580787658691,-1.2306196689605713,0.4405331015586853,-9.3231201171875,0.3204345703125,2.8533935546875
9.5899999,-9.926360130310059,-1.0654197931289673,0.5913678407669067,-12.0086669921875,5.0506591796875,2.3040771484375
9.6099999,-9.940725326538086,-0.9241618514060974,0.646434485912323,-13.0157470703125,-1.3580322265625,3.631591796875
9.629999900000001,-10.012551307678223,-0.8068459630012512,0.6057330369949341,-13.763427734375,-11.383056640625,3.8909912109375
9.649999900000001,-10.012551307678223,-0.8164227604866028,0.5123591423034668,-13.9312744140625,-11.688232421875,-1.3885498046875
9.6699999,-9.974244117736816,-0.8954314589500427,0.4118026793003082,-12.6953125,-3.3416748046875,1.9073486328125
9.6899999,-9.9000244140625,-0.993593692779541,0.3280056416988373,-9.5672607421875,0.9765625,15.0604248046875
9.709999900000001,-9.84256362915039,-1.0773907899856567,0.22505496442317963,-4.7607421875,-4.08935546875,23.0255126953125
9.729999900000001,-10.292673110961914,-1.091755986213684,0.1604115068912506,1.89208984375,-13.73291015625,22.9339599609375
9.7499999,-10.759542465209961,-1.1061211824417114,-0.0071826050989329815,4.7149658203125,-5.340576171875,-5.8441162109375
9.7699999,-11.341333389282227,-0.9864110946655273,-0.1364694982767105,7.7667236328125,-1.77001953125,-14.3280029296875
9.7899999,-11.494562149047852,-0.8954314589500427,-0.24181437492370605,7.9498291015625,-10.6201171875,0.30517578125
9.809999900000001,-11.183316230773926,-0.8140285611152649,-0.2753331959247589,9.918212890625,-15.3961181640625,0.396728515625
9.8299999,-10.56800651550293,-0.7829039692878723,-0.2059013396501541,11.962890625,-17.181396484375,-4.5623779296875
9.8499999,-10.065223693847656,-0.7493851184844971,-0.023942016065120697,13.580322265625,-18.890380859375,-3.509521484375
9.8699999,-9.78989028930664,-0.7637503147125244,0.35673606395721436,11.1083984375,-22.39990234375,-7.4310302734375
9.889999900000001,-9.694122314453125,-0.8020575642585754,0.7757213711738586,1.89208984375,-17.059326171875,-7.0953369140625
9.9099999,-9.641449928283691,-0.8619126081466675,1.1276689767837524,-3.082275390625,-10.1165771484375,-4.058837890625
9.9299999,-9.59596061706543,-0.8044517636299133,1.5322890281677246,-0.1220703125,-10.31494140625,-4.5623779296875
9.9499999,-9.593565940856934,-0.8547300100326538,1.8076223134994507,-12.8326416015625,-8.5296630859375,-11.16943359375
9.969999900000001,-9.703699111938477,-0.8786720037460327,1.9249382019042969,-33.4014892578125,1.9073486328125,-13.458251953125
9.9899999,-9.911994934082031,-1.3335703611373901,1.8962076902389526,-31.2347412109375,5.2947998046875,-3.8604736328125
10.0099999,-9.907206535339355,-1.922544002532959,1.5442601442337036,-9.8876953125,-2.0904541015625,5.157470703125
10.0299999,-10.007762908935547,-2.6671407222747803,0.9816226959228516,5.5694580078125,-1.64794921875,14.129638671875
10.049999900000001,-9.861717224121094,-3.1052796840667725,0.28969839215278625,18.2342529296875,-9.124755859375,22.308349609375
10.069999900000001,-10.168174743652344,-2.9735984802246094,-0.17238251864910126,35.9649658203125,-16.8304443359375,32.501220703125
10.0899999,-10.036493301391602,-2.3295583724975586,-0.2513911724090576,43.243408203125,-35.9344482421875,22.9339599609375
10.1099999,-10.20887565612793,-1.2066776752471924,0.24660277366638184,24.4140625,-22.308349609375,16.021728515625
10.129999900000001,-9.799467086791992,0.12449848651885986,1.0319008827209473,-7.8277587890625,-11.5966796875,-3.631591796875
10.149999900000001,-9.648633003234863,1.1085153818130493,1.867477297782898,-26.947021484375,1.251220703125,-10.162353515625
10.1699999,-9.763554573059082,1.534683346748352,2.3582887649536133,-24.6734619140625,2.105712890625,-11.8255615234375
10.1899999,-9.636661529541016,1.1971008777618408,2.4205379486083984,-14.0838623046875,-10.223388671875,-14.8162841796875
10.209999900000001,-10.103530883789062,0.2968810200691223,2.121262788772583,-2.62451171875,-0.518798828125,-18.00537109375
10.229999900000001,-9.720458984375,-0.7158663272857666,1.7142484188079834,13.9617919921875,-1.9378662109375,-18.9056396484375
10.2499999,-9.86889934539795,-1.6927006244659424,1.2952631711959839,21.3775634765625,-0.732421875,-8.514404296875
10.2699999,-9.780313491821289,-2.2864625453948975,0.933738648891449,18.9971923828125,-3.96728515625,1.0528564453125
10.2899999,-9.77791976928711,-2.580949544906616,0.9145850539207458,15.9759521484375,-14.801025390625,8.941650390625
10.309999900000001,-10.014945983886719,-2.4636335372924805,1.0797849893569946,12.1917724609375,-10.6048583984375,2.4261474609375
10.3299999,-9.670180320739746,-2.0374655723571777,1.4939818382263184,9.4757080078125,-4.425048828125,3.936767578125
10.3499999,-9.744400978088379,-1.5179238319396973,1.965639591217041,-3.5247802734375,7.8125,4.2266845703125
10.3699999,-9.710882186889648,-0.45489832758903503,2.298433542251587,-16.693115234375,2.5787353515625,7.9345703125
10.389999900000001,-9.885659217834473,-0.1173158809542656,2.0614075660705566,-18.7530517578125,1.52587890625,-8.697509765625
10.4099999,-9.775525093078613,-0.181959331035614,1.7334020137786865,-15.2130126953125,6.9427490234375,-7.5836181640625
10.4299999,-10.022128105163574,-0.43335050344467163,1.3024457693099976,-7.14111328125,8.36181640625,-11.5966796875
10.4499999,-9.823410034179688,-0.9217676520347595,0.8403648138046265,6.561279296875,-3.11279296875,-5.218505859375
10.469999900000001,-10.125079154968262,-1.4867992401123047,0.5410895943641663,19.5159912109375,-11.2457275390625,10.5743408203125
10.4899999,-9.976638793945312,-1.8938134908676147,0.395043283700943,23.681640625,-21.3623046875,-2.3040771484375
10.5099999,-9.837775230407715,-2.1547815799713135,0.6775590777397156,25.299072265625,-14.0228271484375,3.7689208984375
10.5299999,-9.847352027893066,-1.9321208000183105,1.1300631761550903,15.625,-7.5836181640625,2.8533935546875
10.549999900000001,-9.50737476348877,-1.434126853942871,1.7597382068634033,-3.997802734375,-2.5177001953125,9.7808837890625
10.569999900000001,-9.926360130310059,-0.8475474119186401,2.3104045391082764,-19.4549560546875,3.11279296875,13.275146484375
10.5899999,-9.653421401977539,-0.3016694188117981,2.7102363109588623,-23.3612060546875,-5.4779052734375,-4.5166015625
10.6099999,-9.823410034179688,-0.16519992053508759,2.9065608978271484,-28.5797119140625,11.3067626953125,-1.7242431640625
10.629999900000001,-9.588777542114258,-0.1628057211637497,2.782062292098999,-34.66796875,16.357421875,-8.209228515625
10.649999900000001,-9.569623947143555,-0.4836287498474121,2.3558945655822754,-31.402587890625,20.2178955078125,-2.74658203125
10.6699999,-10.053253173828125,-0.8451532125473022,1.6950948238372803,-11.993408203125,13.641357421875,1.251220703125
10.6899999,-9.818621635437012,-1.2066776752471924,0.9720458984375,11.5966796875,-8.1939697265625,-4.0283203125
10.709999900000001,-10.309432983398438,-1.5682021379470825,0.5626373887062073,22.9339599609375,-0.3662109375,-3.7689208984375
10.729999900000001,-9.895236015319824,-1.7477672100067139,0.42377370595932007,28.2135009765625,-4.1656494140625,-7.87353515625
10.7499999,-9.785101890563965,-1.7310078144073486,0.6799532771110535,23.01025390625,1.5716552734375,1.9989013671875
10.7699999,-9.864110946655273,-1.434126853942871,1.036689281463623,4.5166015625,1.3580322265625,5.340576171875
10.7899999,-9.615114212036133,-1.015141487121582,1.6041151285171509,-14.70947265625,-5.0048828125,2.960205078125
10.809999900000001,-9.964667320251465,-0.7326257228851318,1.8794482946395874,-26.2451171875,8.6669921875,-8.7127685546875
10.8299999,-9.624691009521484,-0.5434837937355042,2.051830768585205,-16.3421630859375,7.843017578125,-11.29150390625
10.8499999,-9.785101890563965,-0.7613561153411865,1.9632453918457031,-7.598876953125,10.80322265625,-3.662109375
10.8699999,-9.730035781860352,-1.048660397529602,1.4844050407409668,-4.974365234375,5.06591796875,1.6326904296875
10.889999900000001,-9.75637149810791,-1.434126853942871,1.0869675874710083,4.852294921875,-5.950927734375,5.950927734375
10.9099999,-9.974244117736816,-1.702277421951294,0.6536170840263367,16.9525146484375,-10.9710693359375,-5.2337646484375
10.9299999,-9.81143856048584,-1.886630892753601,0.4620809257030487,23.6968994140625,-13.1378173828125,2.0294189453125
10.9499999,-10.077195167541504,-1.7764976024627686,0.5530605912208557,13.18359375,-8.819580078125,4.852294921875
10.969999900000001,-9.86650562286377,-1.479616641998291,0.8978256583213806,-1.6021728515625,-11.6729736328125,7.110595703125
10.9899999,-10.089165687561035,-1.2018892765045166,1.3479355573654175,-8.9874267578125,-10.406494140625,12.14599609375
11.0099999,-9.823410034179688,-0.7493851184844971,1.678335428237915,-9.6435546875,-17.9290771484375,-3.021240234375
11.0299999,-9.785101890563965,-0.646434485912323,1.965639591217041,-5.5084228515625,-6.40869140625,-2.2125244140625
11.049999900000001,-9.660603523254395,-0.5099649429321289,2.1547815799713135,-2.9754638671875,-5.279541015625,-10.284423828125
11.069999900000001,-9.5408935546875,-0.4812345504760742,2.3774423599243164,-13.36669921875,1.89208984375,-2.2125244140625
11.0899999,-9.904812812805176,-0.6536170840263367,2.4851813316345215,-25.1922607421875,9.002685546875,2.899169921875
11.1099999,-9.552865028381348,-0.8858546018600464,2.4684219360351562,-18.096923828125,-1.678466796875,-5.5694580078125
11.129999900000001,-9.971850395202637,-1.235408067703247,2.296039342880249,-4.058837890625,8.6822509765625,-4.6844482421875
11.149999900000001,-9.600749015808105,-1.5155296325683594,1.9105730056762695,9.002685546875,3.814697265625,-4.364013671875
11.1699999,-9.641449928283691,-1.6328455209732056,1.6639702320098877,8.2550048828125,8.0718994140625,3.326416015625
11.1899999,-9.943120002746582,-1.5538369417190552,1.4269442558288574,0.030517578125,8.0413818359375,4.0130615234375
11.209999900000001,-9.648633003234863,-1.359906554222107,1.3623007535934448,-1.5716552734375,-3.35693359375,0.67138671875
11.229999900000001,-10.089165687561035,-1.0773907899856567,1.3742717504501343,-0.0762939453125,4.7454833984375,-9.124755859375
11.2499999,-9.749189376831055,-0.8667010068893433,1.525106430053711,6.6375732421875,2.25830078125,-11.0321044921875
11.2699999,-9.77791976928711,-0.790086567401886,1.7405846118927002,-2.13623046875,11.322021484375,-7.6751708984375
11.2899999,-9.682151794433594,-0.7158663272857666,1.8531121015548706,-16.4947509765625,13.6260986328125,-4.119873046875
11.309999900000001,-9.569623947143555,-1.0438719987869263,1.922544002532959,-14.923095703125,6.5155029296875,0.06103515625
11.3299999,-9.720458984375,-1.2425906658172607,1.6424223184585571,-3.4942626953125,4.2724609375,-12.542724609375
11.3499999,-9.679757118225098,-1.7046716213226318,1.3335703611373901,12.75634765625,3.936767578125,-3.326416015625
11.3699999,-9.945513725280762,-1.8555063009262085,1.0989385843276978,11.8865966796875,5.5694580078125,-0.8392333984375
11.389999900000001,-9.770736694335938,-1.7932571172714233,0.9792284965515137,1.1749267578125,2.3956298828125,2.227783203125
11.4099999,-10.079588890075684,-1.7190368175506592,1.070208191871643,-3.7078857421875,0.2899169921875,7.4310302734375
11.4299999,-9.799467086791992,-1.479616641998291,1.0821791887283325,0.6866455078125,-9.552001953125,-6.9427490234375
11.4499999,-9.849745750427246,-1.3958195447921753,1.2258312702178955,7.049560546875,-1.190185546875,-0.42724609375
11.469999900000001,-9.885659217834473,-1.3646949529647827,1.2449848651885986,2.8076171875,-0.6866455078125,-3.8909912109375
11.4899999,-9.691728591918945,-1.213860273361206,1.3910311460494995,-6.2103271484375,2.7618408203125,0.8087158203125
11.5099999,-10.11789608001709,-1.1971008777618408,1.5418659448623657,-10.0250244140625,3.997802734375,5.9051513671875
11.5299999,-9.708487510681152,-1.094150185585022,1.6160861253738403,-8.11767578125,-8.5601806640625,-1.7852783203125
11.549999900000001,-9.99100399017334,-1.1013327836990356,1.6639702320098877,-6.16455078125,4.94384765625,-3.11279296875
11.569999900000001,-9.672574996948242,-1.2042834758758545,1.556231141090393,-0.0152587890625,-0.396728515625,-7.5225830078125
11.5899999,-9.639056205749512,-1.338358759880066,1.4844050407409668,-0.1220703125,2.6092529296875,-1.0528564453125
11.6099999,-9.876082420349121,-1.436521053314209,1.3263877630233765,-4.3182373046875,2.2430419921875,3.96728515625
11.629999900000001,-9.708487510681152,-1.6065093278884888,1.2713210582733154,0.2899169921875,-8.026123046875,3.9215087890625
11.649999900000001,-10.050858497619629,-1.5873557329177856,1.161187767982483,8.4991455078125,-1.922607421875,-6.1798095703125
11.6699999,-9.797073364257812,-1.5442601442337036,1.2617442607879639,17.2119140625,-5.4473876953125,-4.5928955078125
11.6899999,-9.86889934539795,-1.4437036514282227,1.436521053314209,7.476806640625,3.1890869140625,0.1220703125
11.709999900000001,-9.715670585632324,-1.2210428714752197,1.6879122257232666,-8.85009765625,3.8299560546875,1.77001953125
11.729999900000001,-9.674968719482422,-1.2449848651885986,1.9584569931030273,-15.2740478515625,0.2899169921875,6.4697265625
11.7499999,-9.66299819946289,-1.2018892765045166,1.889025092124939,-12.4969482421875,0.518798828125,-5.6304931640625
11.7699999,-9.648633003234863,-1.3862427473068237,1.7334020137786865,-0.946044921875,3.1280517578125,1.6937255859375
11.7899999,-9.888052940368652,-1.41257905960083,1.5155296325683594,0.0762939453125,3.96728515625,0.42724609375
11.809999900000001,-9.761159896850586,-1.400607943534851,1.316810965538025,-5.5694580078125,1.9989013671875,3.082275390625
11.8299999,-10.08198356628418,-1.4245500564575195,1.3072341680526733,-5.2947998046875,0.0457763671875,8.7890625
11.8499999,-9.780313491821289,-1.3407529592514038,1.2210428714752197,2.38037109375,-11.3067626953125,-3.3111572265625
11.8699999,-9.856928825378418,-1.4652514457702637,1.2689268589019775,9.2315673828125,-0.6256103515625,1.190185546875
11.889999900000001,-9.672574996948242,-1.3503297567367554,1.3215993642807007,5.8441162109375,-3.0059814453125,-2.5177001953125
11.9099999,-9.619902610778809,-1.316810965538025,1.50355863571167,-6.439208984375,4.08935546875,2.62451171875
11.9299999,-9.684545516967773,-1.139639973640442,1.699883222579956,-15.289306640625,6.0882568359375,2.410888671875
11.9499999,-9.591172218322754,-1.0869675874710083,1.9153614044189453,-14.7247314453125,0.640869140625,6.134033203125
11.969999900000001,-9.68694019317627,-1.0821791887283325,1.9273324012756348,-15.594482421875,5.035400390625,-6.5460205078125
11.9899999,-9.682151794433594,-1.1061211824417114,1.9249382019042969,-7.32421875,12.0391845703125,-1.556396484375
12.0099999,-9.765948295593262,-1.3024457693099976,1.723825216293335,-4.4097900390625,9.613037109375,-7.0648193359375
12.0299999,-9.821015357971191,-1.359906554222107,1.522712230682373,-2.532958984375,11.53564453125,2.9754638671875
12.049999900000001,-9.895236015319824,-1.5107412338256836,1.1994950771331787,-0.152587890625,7.99560546875,0.67138671875
12.069999900000001,-9.916783332824707,-1.5514427423477173,1.015141487121582,11.90185546875,-1.89208984375,4.7607421875
12.0899999,-9.873687744140625,-1.4676456451416016,0.8810662031173706,12.5274658203125,-6.77490234375,-8.4228515625
12.1099999,-9.967061996459961,-1.3886369466781616,1.0199298858642578,8.544921875,5.9814453125,-1.708984375
12.129999900000001,-9.737217903137207,-1.2713210582733154,1.2545616626739502,-1.7242431640625,1.4190673828125,-6.77490234375
12.149999900000001,-9.876082420349121,-1.2090718746185303,1.659181833267212,-17.2576904296875,13.3514404296875,0.30517578125
12.1699999,-9.588777542114258,-1.2114660739898682,1.8483237028121948,-31.005859375,11.9781494140625,1.678466796875
12.1899999,-9.9000244140625,-1.2976573705673218,1.7525556087493896,-29.47998046875,15.4571533203125,7.75146484375
12.209999900000001,-9.763554573059082,-1.4077905416488647,1.4269442558288574,-11.90185546875,-1.52587890625,1.4801025390625
12.229999900000001,-10.036493301391602,-1.5945383310317993,0.8307880163192749,4.0283203125,1.9989013671875,-4.39453125
12.2499999,-9.93354320526123,-1.6903064250946045,0.4141969084739685,17.4407958984375,-2.5482177734375,2.8839111328125
12.2699999,-9.904812812805176,-1.7286136150360107,0.19871874153614044,16.1590576171875,-6.103515625,-4.3792724609375
12.289999900000002,-9.75637149810791,-1.6208745241165161,0.40462008118629456,11.3372802734375,-3.997802734375,5.6610107421875
12.309999900000001,-9.75637149810791,-1.4628572463989258,0.768538773059845,-2.8839111328125,-5.706787109375,-0.0457763671875
12.3299999,-9.897629737854004,-1.2952631711959839,1.2737152576446533,-3.662109375,0.823974609375,8.544921875
12.3499999,-9.821015357971191,-1.2090718746185303,1.623268723487854,-3.204345703125,-10.7879638671875,-1.2969970703125
12.3699999,-9.99339771270752,-1.1516109704971313,1.7262194156646729,0.5950927734375,4.5623779296875,-2.227783203125
12.389999900000001,-9.775525093078613,-1.158793568611145,1.778891921043396,5.584716796875,1.068115234375,0.2899169921875
12.4099999,-9.746794700622559,-1.1061211824417114,1.6950948238372803,-4.6539306640625,6.40869140625,-4.119873046875
12.4299999,-9.636661529541016,-1.1204863786697388,1.6687586307525635,-15.625,9.735107421875,3.326416015625
12.4499999,-9.68933391571045,-1.161187767982483,1.5634137392044067,-21.6827392578125,7.2784423828125,-0.06103515625
12.469999900000001,-9.861717224121094,-1.259350061416626,1.3646949529647827,-10.2081298828125,7.2021484375,6.8206787109375
12.4899999,-9.86650562286377,-1.4197616577148438,1.036689281463623,1.678466796875,-9.429931640625,-1.6632080078125
12.5099999,-10.077195167541504,-1.558625340461731,0.6847416758537292,13.7786865234375,-0.335693359375,-2.960205078125
12.5299999,-9.955090522766113,-1.6160861253738403,0.5506663918495178,22.64404296875,-6.34765625,-0.3814697265625
12.549999900000001,-9.907206535339355,-1.534683346748352,0.5841852426528931,16.9677734375,-4.5928955078125,-5.7373046875
12.569999900000001,-9.737217903137207,-1.400607943534851,0.9481038451194763,3.23486328125,1.0528564453125,3.1280517578125
12.5899999,-9.674968719482422,-1.2066776752471924,1.338358759880066,-12.908935546875,-0.42724609375,-1.5411376953125
12.6099999,-9.825803756713867,-1.0893617868423462,1.699883222579956,-14.4500732421875,8.1787109375,4.2877197265625
12.629999900000001,-9.758766174316406,-1.0989385843276978,1.8052281141281128,-11.0931396484375,-4.9285888671875,0.18310546875
12.649999900000001,-9.897629737854004,-1.2641384601593018,1.647210717201233,-3.8909912109375,4.1656494140625,-3.8299560546875
12.6699999,-9.84495735168457,-1.3838485479354858,1.4269442558288574,6.4544677734375,4.69970703125,1.5869140625
12.6899999,-9.701305389404297,-1.4389152526855469,1.237802267074585,3.5247802734375,-0.9765625,-4.8065185546875
12.709999900000001,-9.847352027893066,-1.3479355573654175,1.170764684677124,-5.950927734375,9.3231201171875,0.7171630859375
12.729999900000001,-9.768342971801758,-1.2737152576446533,1.1779472827911377,-12.7105712890625,1.1444091796875,-1.4801025390625
12.7499999,-9.952696800231934,-1.1994950771331787,1.0749965906143188,-8.6822509765625,6.500244140625,2.9144287109375
12.7699999,-9.926360130310059,-1.3718775510787964,0.9050082564353943,3.41796875,-9.0484619140625,3.265380859375
12.789999900000002,-9.938331604003906,-1.5275006294250488,0.6368576288223267,15.7012939453125,-11.9781494140625,-6.805419921875
12.809999900000001,-10.086771965026855,-1.721431016921997,0.4836287498474121,27.0538330078125,-5.6610107421875,1.007080078125
12.8299999,-9.907206535339355,-1.6831238269805908,0.6129156351089478,26.641845703125,-16.78466796875,0.1678466796875
12.8499999,-10.017339706420898,-1.501164436340332,0.9433154463768005,9.8419189453125,-4.486083984375,2.349853515625
12.8699999,-9.742006301879883,-1.259350061416626,1.5059528350830078,-13.4124755859375,-5.9967041015625,3.570556640625
12.889999900000001,-9.670180320739746,-0.9552865028381348,1.9536685943603516,-30.914306640625,3.4332275390625,3.0975341796875
12.9099999,-9.682151794433594,-0.8523358106613159,2.233790159225464,-32.806396484375,4.1046142578125,8.3160400390625
12.9299999,-9.615114212036133,-0.9911994934082031,2.056619167327881,-24.658203125,-7.6141357421875,-2.960205078125
12.9499999,-9.840168952941895,-1.1875240802764893,1.6376339197158813,-3.570556640625,2.716064453125,-2.1514892578125
12.969999900000001,-9.828198432922363,-1.5131354331970215,1.170764684677124,17.791748046875,-6.7291259765625,1.5411376953125
12.9899999,-9.892841339111328,-1.6376339197158813,0.8259995579719543,20.721435546875,-8.1329345703125,-2.8076171875
13.0099999,-9.885659217834473,-1.6304513216018677,0.8954314589500427,11.1846923828125,-3.7689208984375,5.0811767578125
13.0299999,-9.799467086791992,-1.4963760375976562,1.1324573755264282,-1.068115234375,-6.500244140625,0.5950927734375
13.049999900000001,-9.897629737854004,-1.359906554222107,1.460463047027588,-3.4027099609375,2.197265625,6.6070556640625
13.069999900000001,-9.794678688049316,-1.3120225667953491,1.7597382068634033,-2.25830078125,-8.9874267578125,5.67626953125
13.0899999,-9.835380554199219,-1.2761094570159912,1.86508309841156,-1.312255859375,-1.64794921875,-1.5716552734375
13.1099999,-9.80904483795166,-1.2114660739898682,1.8914192914962769,5.828857421875,8.2855224609375,2.0294189453125
13.129999900000001,-9.634267807006836,-1.0414776802062988,1.9369091987609863,7.049560546875,0.4730224609375,-2.6092529296875
13.149999900000001,-9.75397777557373,-0.768538773059845,1.9728221893310547,-8.3770751953125,14.373779296875,-3.143310546875
13.1699999,-9.627084732055664,-0.6200982332229614,1.9608511924743652,-23.74267578125,10.55908203125,-5.6915283203125
13.1899999,-9.744400978088379,-0.5363011956214905,1.8387469053268433,-24.90234375,16.265869140625,-7.9193115234375
13.209999900000001,-9.835380554199219,-0.8403648138046265,1.501164436340332,-10.650634765625,8.1787109375,-2.960205078125
13.229999900000001,-9.81143856048584,-1.235408067703247,0.9983820915222168,7.568359375,-7.50732421875,-9.0484619140625
13.2499999,-9.928754806518555,-1.723825216293335,0.5195417404174805,24.7344970703125,-1.64794921875,-6.622314453125
13.2699999,-9.914389610290527,-2.0470423698425293,0.4118026793003082,32.8826904296875,-6.4239501953125,-1.922607421875
13.289999900000002,-9.770736694335938,-1.98958158493042,0.6009446382522583,21.30126953125,-6.4849853515625,-5.5999755859375
13.309999900000001,-9.84256362915039,-1.7262194156646729,1.1468225717544556,-1.03759765625,6.011962890625,3.0364990234375
13.3299999,-9.6989107131958,-1.3503297567367554,1.6950948238372803,-20.843505859375,2.593994140625,-1.1138916015625
13.3499999,-9.761159896850586,-1.094150185585022,1.9752163887023926,-24.1546630859375,12.786865234375,0.091552734375
13.3699999,-9.818621635437012,-1.0869675874710083,1.9536685943603516,-15.289306640625,3.7384033203125,6.16455078125
13.389999900000001,-9.81143856048584,-1.2545616626739502,1.5322890281677246,-3.3721923828125,-5.9051513671875,-4.974365234375
13.4099999,-9.9000244140625,-1.4460978507995605,1.0342950820922852,14.8162841796875,1.03759765625,-4.57763671875
13.4299999,-9.849745750427246,-1.6328455209732056,0.6368576288223267,28.01513671875,-7.6141357421875,-1.6326904296875
13.4499999,-9.904812812805176,-1.53707754611969,0.5171475410461426,23.6053466796875,-9.521484375,-7.0037841796875
13.469999900000001,-9.888052940368652,-1.4676456451416016,0.828393816947937,10.2691650390625,-4.33349609375,0.9307861328125
13.4899999,-9.828198432922363,-1.237802267074585,1.3407529592514038,-8.2550048828125,-4.638671875,-2.25830078125
13.5099999,-9.837775230407715,-1.1468225717544556,1.8148049116134644,-15.350341796875,8.331298828125,1.739501953125
13.5299999,-9.72285270690918,-1.2234370708465576,2.1523873805999756,-12.603759765625,-2.044677734375,3.3416748046875
13.549999900000001,-9.667786598205566,-1.3862427473068237,2.121262788772583,-6.6680908203125,1.373291015625,-4.058837890625
13.569999900000001,-9.816226959228516,-1.5873557329177856,1.946485996246338,3.7384033203125,11.6729736328125,1.007080078125
13.5899999,-9.655815124511719,-1.6065093278884888,1.647210717201233,8.1329345703125,2.50244140625,-0.8697509765625
13.6099999,-9.904812812805176,-1.5131354331970215,1.4101848602294922,2.0599365234375,10.009765625,-2.4261474609375
13.629999900000001,-9.682151794433594,-1.3120225667953491,1.3287819623947144,-4.364013671875,2.99072265625,1.8157958984375
13.649999900000001,-9.749189376831055,-1.1683704853057861,1.235408067703247,-12.237548828125,9.09423828125,-1.2664794921875
13.6699999,-9.821015357971191,-1.1037269830703735,1.2665326595306396,-7.1868896484375,6.6070556640625,2.13623046875
13.6899999,-9.794678688049316,-1.2282254695892334,1.1492167711257935,0.4730224609375,-7.0953369140625,-6.28662109375
13.709999900000001,-9.983820915222168,-1.4053963422775269,0.9672574996948242,9.9639892578125,2.4261474609375,-5.9051513671875
13.729999900000001,-9.854534149169922,-1.577778935432434,0.9241618514060974,18.1884765625,-1.7242431640625,-2.8228759765625
13.7499999,-9.821015357971191,-1.6424223184585571,0.8786720037460327,14.2822265625,-1.708984375,-7.01904296875
13.7699999,-9.801861763000488,-1.5849615335464478,1.1180921792984009,2.960205078125,3.6468505859375,2.288818359375
13.789999900000002,-9.730035781860352,-1.4939818382263184,1.3431471586227417,-9.8876953125,-1.495361328125,-0.1678466796875
13.809999900000001,-9.904812812805176,-1.3455413579940796,1.5682021379470825,-13.3209228515625,8.1329345703125,2.1209716796875
13.8299999,-9.830592155456543,-1.3503297567367554,1.6280571222305298,-9.8419189453125,-3.631591796875,1.708984375
13.8499999,-9.854534149169922,-1.403002142906189,1.5083470344543457,-3.387451171875,-1.2054443359375,-6.4849853515625
13.8699999,-9.921571731567383,-1.4844050407409668,1.2665326595306396,6.40869140625,3.6163330078125,-2.01416015625
13.889999900000001,-9.746794700622559,-1.5658079385757446,1.1899182796478271,9.5977783203125,-5.3558349609375,-3.72314453125
13.9099999,-9.9000244140625,-1.5753847360610962,1.1468225717544556,2.01416015625,5.4779052734375,-0.2899169921875
13.9299999,-9.68933391571045,-1.5179238319396973,1.259350061416626,-6.9732666015625,0.6103515625,2.655029296875
13.9499999,-9.768342971801758,-1.414973258972168,1.3096283674240112,-9.307861328125,4.9285888671875,0.2899169921875
13.969999900000001,-9.818621635437012,-1.3934253454208374,1.3287819623947144,-2.3193359375,-0.5645751953125,3.631591796875
13.9899999,-9.770736694335938,-1.479616641998291,1.173158884048462,3.4332275390625,-12.6495361328125,-4.2724609375
14.0099999,-9.947908401489258,-1.5514427423477173,1.094150185585022,11.9171142578125,-1.2359619140625,-3.0364990234375
14.0299999,-9.787496566772461,-1.599326729774475,1.1516109704971313,15.13671875,-3.662109375,-0.579833984375
14.049999900000001,-9.746794700622559,-1.482010841369629,1.3455413579940796,0.030517578125,-1.2969970703125,-4.7454833984375
14.069999900000001,-9.763554573059082,-1.2282254695892334,1.7357962131500244,-23.2391357421875,9.8876953125,1.9683837890625
14.0899999,-9.68694019317627,-1.094150185585022,1.9728221893310547,-38.1011962890625,9.09423828125,-0.8087158203125
14.1099999,-9.84256362915039,-1.0630255937576294,1.9584569931030273,-35.09521484375,15.167236328125,1.312255859375
14.129999900000001,-9.832986831665039,-1.3287819623947144,1.5945383310317993,-20.5078125,-0.0762939453125,1.6326904296875
14.149999900000001,-9.9000244140625,-1.678335428237915,1.0271124839782715,1.1749267578125,-3.9520263671875,-4.5928955078125
14.1699999,-9.95748519897461,-1.9033904075622559,0.5530605912208557,21.30126953125,-2.8076171875,0.274658203125
14.1899999,-9.873687744140625,-1.8986018896102905,0.4908113479614258,19.10400390625,-10.1776123046875,-0.6561279296875
14.209999900000001,-9.916783332824707,-1.3862427473068237,1.0558429956436157,-11.5203857421875,-2.777099609375,-3.204345703125
14.229999900000001,-9.871294021606445,-0.7709329724311829,1.9584569931030273,-65.2008056640625,13.8397216796875,-0.823974609375
14.2499999,-9.727641105651855,0.44771572947502136,3.8067808151245117,-153.9764404296875,51.5289306640625,-5.126953125
14.2699999,-9.75637149810791,0.06224924325942993,3.2106244564056396,-167.724609375,62.774658203125,-5.2337646484375
14.289999900000002,-9.80904483795166,-0.7972691655158997,1.8363527059555054,-108.8714599609375,39.8101806640625,-10.8489990234375
14.309999900000001,-10.08437728881836,-2.1068975925445557,-0.3711012601852417,-23.040771484375,16.937255859375,-3.7841796875
14.3299999,-10.105925559997559,-3.138798475265503,-2.190694570541382,29.3121337890625,-2.166748046875,2.5482177734375
14.3499999,-10.122684478759766,-3.4548330307006836,-3.1028854846954346,42.6788330078125,-14.5721435546875,-1.190185546875
14.3699999,-9.96945571899414,-3.1268274784088135,-2.7748796939849854,36.102294921875,-16.9830322265625,-6.8206787109375
14.389999900000001,-9.794678688049316,-2.4396915435791016,-1.6496049165725708,15.6402587890625,-12.237548828125,-9.94873046875
14.4099999,-9.603142738342285,-1.8698714971542358,-0.20350714027881622,-1.8310546875,-2.7618408203125,-9.82666015625
14.4299999,-9.476250648498535,-1.6496049165725708,1.0199298858642578,-4.8980712890625,5.096435546875,-7.110595703125
14.4499999,-9.437943458557129,-1.742978811264038,1.7142484188079834,-0.1373291015625,8.9111328125,-2.2125244140625
14.469999900000001,-9.497797966003418,-2.0015525817871094,1.8483237028121948,4.8370361328125,10.43701171875,2.86865234375
14.4899999,-9.57201862335205,-2.2361843585968018,1.6041151285171509,6.7596435546875,10.3302001953125,3.6163330078125
14.5099999,-9.653421401977539,-2.2840683460235596,1.1994950771331787,6.1492919921875,11.505126953125,3.509521484375
14.5299999,-9.725247383117676,-2.169146776199341,0.7876923680305481,3.2501220703125,11.0321044921875,2.227783203125
14.549999900000001,-9.797073364257812,-1.9704279899597168,0.3902548849582672,-1.2969970703125,8.9569091796875,0.7171630859375
14.569999900000001,-9.923966407775879,-1.8124107122421265,0.026336219161748886,-3.082275390625,5.584716796875,-0.640869140625
14.5899999,-10.110713958740234,-1.7190368175506592,-0.35434186458587646,0.0762939453125,0.91552734375,-1.6937255859375
14.6099999,-10.323798179626465,-1.7070658206939697,-0.586579442024231,7.32421875,-5.79833984375,-3.35693359375
14.629999900000001,-10.424354553222656,-1.699883222579956,-0.6248866319656372,15.472412109375,-10.4217529296875,-6.2255859375
14.649999900000001,-10.407594680786133,-1.702277421951294,-0.3519476354122162,19.2413330078125,-8.5601806640625,-8.331298828125
14.6699999,-10.113107681274414,-1.7860745191574097,0.13407529890537262,15.869140625,-3.2958984375,-6.3934326171875
14.6899999,-9.904812812805176,-1.9488801956176758,0.5937620401382446,8.575439453125,1.8463134765625,-0.701904296875
14.709999900000001,-9.782708168029785,-2.1499931812286377,0.811634361743927,3.509521484375,1.556396484375,0.1373291015625
14.729999900000001,-9.832986831665039,-2.3247697353363037,0.730231523513794,6.5460205078125,-1.5106201171875,0.4119873046875
14.7499999,-10.022128105163574,-2.410961151123047,0.4644751250743866,16.265869140625,-7.01904296875,-0.8544921875
14.7699999,-10.14902114868164,-2.434903144836426,0.19871874153614044,25.8331298828125,-10.009765625,0.091552734375
14.789999900000002,-10.218452453613281,-2.408566951751709,0.1173158809542656,28.7628173828125,-11.6424560546875,3.4027099609375
14.809999900000001,-10.196905136108398,-2.3582887649536133,0.1867477297782898,26.0009765625,-11.016845703125,3.8299560546875
14.8299999,-10.065223693847656,-2.2601263523101807,0.47405192255973816,23.6053466796875,-9.6282958984375,3.1585693359375
14.8499999,-9.8784761428833,-2.0877439975738525,0.8212111592292786,22.4151611328125,-2.960205078125,3.5858154296875
14.8699999,-9.648633003234863,-1.9369091987609863,1.1492167711257935,21.9879150390625,4.669189453125,2.3040771484375
14.889999900000001,-9.428366661071777,-1.8363527059555054,1.3048399686813354,25.2532958984375,5.523681640625,2.532958984375
14.9099999,-9.897629737854004,-1.723825216293335,1.1994950771331787,33.5235595703125,4.7607421875,5.9051513671875
14.9299999,-10.96544361114502,-1.9512743949890137,0.6727706789970398,49.13330078125,-4.39453125,-7.99560546875
14.9499999,-12.27507209777832,-2.166752576828003,0.15562310814857483,65.8721923828125,-38.4674072265625,-51.6510009765625
14.969999900000001,-13.431471824645996,-2.674323320388794,-0.42616790533065796,76.47705078125,-25.6195068359375,-73.394775390625
14.9899999,-13.589488983154297,-3.07415509223938,-0.6823474764823914,89.7369384765625,2.99072265625,-63.934326171875
15.0099999,-12.90953540802002,-3.203441858291626,-0.6560112833976746,98.5260009765625,14.404296875,-43.1060791015625
15.0299999,-11.645397186279297,-2.9951462745666504,-0.38307225704193115,98.2818603515625,1.5869140625,-29.60205078125
15.049999900000001,-10.196905136108398,-2.432508945465088,0.181959331035614,83.43505859375,-19.10400390625,-26.67236328125
15.069999900000001,-8.789113998413086,-1.7142484188079834,0.9433154463768005,59.2803955078125,-4.8370361328125,-26.91650390625
15.0899999,-7.493851184844971,-1.0630255937576294,1.764526605606079,34.9578857421875,32.6080322265625,-24.9176025390625
15.1099999,-6.3973069190979,-0.6320692300796509,2.434903144836426,14.068603515625,55.4962158203125,-15.9912109375
15.129999900000001,-5.676652431488037,-0.45489832758903503,2.762908697128296,-4.669189453125,54.0771484375,-0.9002685546875
15.149999900000001,-5.377377033233643,-0.49559974670410156,2.698265314102173,-16.448974609375,46.8292236328125,12.451171875
15.1699999,-5.427655220031738,-0.6991068720817566,2.33913516998291,-18.06640625,43.3197021484375,21.2554931640625
15.1899999,-5.779603004455566,-0.9840168952941895,1.8411411046981812,-14.9993896484375,39.520263671875,29.0679931640625
15.209999900000001,-6.404489517211914,-1.2880805730819702,1.3048399686813354,-9.521484375,33.4930419921875,36.773681640625
15.229999900000001,-7.206547260284424,-1.5729905366897583,0.8236053586006165,1.495361328125,21.8963623046875,42.8009033203125
15.2499999,-8.094796180725098,-1.7860745191574097,0.45010992884635925,13.519287109375,0.8697509765625,45.501708984375
15.2699999,-8.927978515625,-1.886630892753601,0.23702596127986908,22.3388671875,-21.17919921875,43.27392578125
15.289999900000002,-9.57201862335205,-1.8555063009262085,0.19393034279346466,29.022216796875,-29.60205078125,35.7666015625
15.309999900000001,-9.959878921508789,-1.7549498081207275,0.3208230137825012,34.8663330078125,-25.115966796875,27.618408203125
15.3299999,-10.20648193359375,-1.601720929145813,0.5578489899635315,37.017822265625,-21.0113525390625,25.665283203125
15.3499999,-10.342951774597168,-1.4652514457702637,0.8667010068893433,34.149169921875,-22.7203369140625,24.8565673828125
15.3699999,-10.448296546936035,-1.359906554222107,1.170764684677124,28.1982421875,-18.9666748046875,20.56884765625
15.389999900000001,-10.465055465698242,-1.3000515699386597,1.45806884765625,22.39990234375,-10.955810546875,18.98193359375
15.4099999,-10.457873344421387,-1.2713210582733154,1.699883222579956,14.3890380859375,-5.1116943359375,25.7110595703125
15.4299999,-10.515334129333496,-1.2234370708465576,1.867477297782898,4.2724609375,-3.0517578125,32.867431640625
15.4499999,-10.606313705444336,-1.2018892765045166,1.9584569931030273,-3.84521484375,-6.2255859375,29.4342041015625
15.469999900000001,-10.752359390258789,-1.173158884048462,1.965639591217041,-9.6893310546875,-8.9569091796875,23.5137939453125
15.4899999,-10.864887237548828,-1.1994950771331787,1.8746598958969116,-12.8936767578125,-6.8511962890625,22.0794677734375
15.5099999,-10.90798282623291,-1.2641384601593018,1.6950948238372803,-11.627197265625,-7.354736328125,21.2860107421875
15.5299999,-10.857705116271973,-1.3982137441635132,1.436521053314209,-6.4544677734375,-12.603759765625,15.167236328125
15.549999900000001,-10.771512985229492,-1.5753847360610962,1.1324573755264282,-0.3509521484375,-17.2576904296875,11.0015869140625
15.569999900000001,-10.680533409118652,-1.7405846118927002,0.8451532125473022,4.0435791015625,-17.15087890625,11.4898681640625
15.5899999,-10.591948509216309,-1.8842366933822632,0.6224924325942993,6.9122314453125,-10.040283203125,6.1187744140625
15.6099999,-10.532093048095703,-1.9704279899597168,0.45489832758903503,10.162353515625,-0.4425048828125,-5.7373046875
15.629999900000001,-10.484209060668945,-1.9847931861877441,0.3423708379268646,14.34326171875,2.2735595703125,-14.16015625
15.649999900000001,-10.402806282043457,-1.9823989868164062,0.26815059781074524,19.0582275390625,0.3814697265625,-14.556884765625
15.6699999,-10.259154319763184,-1.9273324012756348,0.272938996553421,22.8118896484375,-3.448486328125,-10.284423828125
15.6899999,-10.053253173828125,-1.8148049116134644,0.40462008118629456,23.0255126953125,-3.3416748046875,-8.148193359375
15.709999900000001,-9.84256362915039,-1.6136919260025024,0.646434485912323,19.95849609375,2.8533935546875,-8.056640625
15.729999900000001,-9.653421401977539,-1.3072341680526733,0.9457096457481384,15.68603515625,4.150390625,-6.134033203125
15.7499999,-9.466673851013184,-0.9672574996948242,1.2497732639312744,10.19287109375,-1.6021728515625,-5.18798828125
15.7699999,-9.294290542602539,-0.6512228846549988,1.5083470344543457,2.7008056640625,-3.8299560546875,-4.241943359375
15.789999900000002,-9.129091262817383,-0.3998316824436188,1.699883222579956,-5.340576171875,1.220703125,-1.678466796875
15.809999900000001,-8.990227699279785,-0.27054479718208313,1.8076223134994507,-12.39013671875,9.4757080078125,-3.23486328125
15.8299999,-8.918401718139648,-0.26336219906806946,1.802833914756775,-16.17431640625,15.5487060546875,-5.1727294921875
15.8499999,-8.96389102935791,-0.35913026332855225,1.7166426181793213,-16.8609619140625,14.1448974609375,-0.762939453125
15.869999900000002,-9.157821655273438,-0.5027823448181152,1.5729905366897583,-17.8985595703125,9.46044921875,5.3863525390625
15.889999900000001,-9.734824180603027,-0.6584054827690125,1.3982137441635132,-17.3187255859375,9.0789794921875,1.708984375
15.9099999,-10.35252857208252,-0.8092401623725891,1.2880805730819702,-11.4593505859375,-2.349853515625,-7.4615478515625
15.9299999,-10.982203483581543,-0.8834604024887085,1.1994950771331787,-8.48388671875,-8.0413818359375,-3.1890869140625
15.9499999,-11.26950740814209,-0.9002198576927185,1.1540051698684692,-6.7596435546875,1.0223388671875,5.2032470703125
15.969999900000001,-10.824186325073242,-0.8379706144332886,1.1683704853057861,-2.8228759765625,4.486083984375,4.08935546875
15.9899999,-10.290278434753418,-0.8355764150619507,1.170764684677124,-1.0833740234375,7.5225830078125,2.4566650390625
16.0099999,-9.619902610778809,-0.9289502501487732,1.1540051698684692,3.6773681640625,4.0740966796875,0.1068115234375
16.0299999,-9.196128845214844,-0.9672574996948242,1.213860273361206,4.791259765625,-4.5166015625,-3.7841796875
16.0499999,-9.344569206237793,-1.0199298858642578,1.2976573705673218,-4.1961669921875,5.6304931640625,4.39453125
16.0699999,-9.579200744628906,-0.9744400978088379,1.4077905416488647,-16.7999267578125,9.6282958984375,2.3956298828125
16.089999900000002,-9.880870819091797,-0.8523358106613159,1.4389152526855469,-23.468017578125,10.0250244140625,3.2958984375
16.109999900000002,-10.077195167541504,-0.667982280254364,1.400607943534851,-21.5911865234375,8.85009765625,3.0364990234375
16.1299999,-10.091560363769531,-0.49320554733276367,1.2258312702178955,-19.8974609375,6.2255859375,-5.0506591796875
16.1499999,-10.04846477508545,-0.3208230137825012,0.9313444495201111,-16.9525146484375,4.21142578125,-12.5732421875
16.1699999,-10.11789608001709,-0.24420857429504395,0.6248866319656372,-9.94873046875,-0.1068115234375,-14.9078369140625
16.1899999,-10.196905136108398,-0.26575639843940735,0.4405331015586853,-4.150390625,-5.340576171875,-15.13671875
16.2099999,-10.259154319763184,-0.3687070608139038,0.45010992884635925,-10.31494140625,-6.6070556640625,-17.02880859375
16.2299999,-10.26394271850586,-0.5386953949928284,0.6727706789970398,-21.3775634765625,-3.173828125,-19.8822021484375
16.249999900000002,-10.067618370056152,-0.6775590777397156,0.8834604024887085,-23.1170654296875,-3.265380859375,-21.78955078125
16.269999900000002,-9.962273597717285,-1.0654197931289673,0.9193734526634216,-12.8173828125,-4.180908203125,-19.2108154296875
16.2899999,-9.9000244140625,-1.5682021379470825,0.7948749661445618,3.11279296875,-15.1824951171875,-19.22607421875
16.3099999,-9.847352027893066,-2.142810583114624,0.4381389021873474,18.98193359375,-21.5301513671875,-21.4691162109375
16.3299999,-9.99100399017334,-2.6144683361053467,0.19393034279346466,37.9791259765625,-15.1519775390625,-7.4920654296875
16.3499999,-9.919178009033203,-2.8634653091430664,0.17477671802043915,49.9267578125,-26.7181396484375,-3.570556640625
16.3699999,-9.823410034179688,-2.734178304672241,0.3663128614425659,43.0908203125,-25.1617431640625,-6.805419921875
16.3899999,-9.782708168029785,-2.3032219409942627,0.9313444495201111,34.6221923828125,-17.669677734375,7.62939453125
16.4099999,-9.536105155944824,-1.6065093278884888,1.680729627609253,20.538330078125,-26.580810546875,-2.0294189453125
16.429999900000002,-9.794678688049316,-0.8571242094039917,2.4875755310058594,0.48828125,-11.627197265625,-6.6375732421875
16.4499999,-9.512163162231445,-0.2777273952960968,3.1699230670928955,-15.869140625,-7.1563720703125,-22.705078125
16.4699999,-9.742006301879883,-0.13407529890537262,3.5051112174987793,-24.017333984375,14.4195556640625,-18.8140869140625
16.4899999,-9.442731857299805,-0.3758896589279175,3.4404678344726562,-18.0206298828125,13.153076171875,-18.2342529296875
16.5099999,-9.536105155944824,-0.9313444495201111,2.913743495941162,-13.397216796875,20.69091796875,-17.181396484375
16.5299999,-9.519346237182617,-1.6615760326385498,2.1787235736846924,-0.762939453125,11.90185546875,-6.7901611328125
16.5499999,-9.81143856048584,-2.1930887699127197,1.3910311460494995,7.7056884765625,-0.0152587890625,-12.420654296875
16.5699999,-9.792284965515137,-2.63362193107605,0.8858546018600464,18.7225341796875,-6.8511962890625,-9.3536376953125
16.589999900000002,-9.955090522766113,-2.7102363109588623,0.5746083855628967,17.2576904296875,-4.57763671875,-14.95361328125
16.609999900000002,-9.813833236694336,-2.6455929279327393,0.6248866319656372,19.95849609375,0,-6.134033203125
16.6299999,-9.617507934570312,-2.3295583724975586,0.7757213711738586,16.1285400390625,-8.7890625,-13.641357421875
16.6499999,-9.825803756713867,-2.0398597717285156,1.0582371950149536,11.4288330078125,-0.9002685546875,1.0528564453125
16.6699999,-9.653421401977539,-1.7501614093780518,1.357512354850769,4.2877197265625,-15.4876708984375,-4.2266845703125
16.6899999,-10.070012092590332,-1.6687586307525635,1.6424223184585571,-0.6561279296875,-9.796142578125,-5.859375
16.7099999,-9.684545516967773,-1.7142484188079834,1.86508309841156,-0.3814697265625,-14.7857666015625,-12.7105712890625
16.7299999,-9.84256362915039,-1.9369091987609863,1.9033904075622559,0.701904296875,0.5340576171875,-4.1046142578125
16.749999900000002,-9.339780807495117,-2.126051187515259,1.8483237028121948,6.3934326171875,-9.9639892578125,-6.439208984375
16.769999900000002,-9.47146224975586,-2.3127987384796143,1.6687586307525635,3.7841796875,-2.0599365234375,-0.885009765625
16.7899999,-9.44752025604248,-2.3965959548950195,1.6352397203445435,6.683349609375,-11.90185546875,9.33837890625
16.8099999,-9.763554573059082,-2.296039342880249,1.659181833267212,3.2806396484375,-15.1824951171875,3.9825439453125
16.8299999,-9.677363395690918,-2.1523873805999756,1.9321208000183105,2.105712890625,-15.9912109375,-0.2899169921875
16.8499999,-9.739612579345703,-1.8555063009262085,2.1739351749420166,-6.988525390625,-6.103515625,-11.0931396484375
16.8699999,-9.466673851013184,-1.7357962131500244,2.477998733520508,-5.6915283203125,1.6937255859375,-3.997802734375
16.8899999,-9.296685218811035,-1.6543933153152466,2.5306711196899414,-7.720947265625,0.5645751953125,-10.2691650390625
16.9099999,-9.478644371032715,-1.802833914756775,2.5091233253479004,-3.1280517578125,7.6904296875,8.11767578125
16.929999900000002,-9.50498104095459,-1.968033790588379,2.2912509441375732,0.79345703125,-8.026123046875,1.6326904296875
16.9499999,-9.821015357971191,-2.121262788772583,2.1332337856292725,3.4332275390625,-3.47900390625,3.1280517578125
16.9699999,-9.62947940826416,-2.212242364883423,1.944091796875,5.340576171875,-9.5977783203125,-7.6446533203125
16.9899999,-9.864110946655273,-2.322375535964966,1.8626888990402222,6.6070556640625,4.486083984375,0.91552734375
17.0099999,-9.334992408752441,-2.166752576828003,1.889025092124939,4.8828125,-5.157470703125,-5.43212890625
17.0299999,-9.605537414550781,-2.0829553604125977,1.8411411046981812,-3.448486328125,7.0037841796875,2.62451171875
17.0499999,-9.387664794921875,-1.8794482946395874,2.0015525817871094,-1.861572265625,-5.2337646484375,7.049560546875
17.0699999,-9.648633003234863,-1.7381904125213623,2.140416383743286,-6.866455078125,-3.509521484375,-2.4871826171875
17.089999900000002,-9.50498104095459,-1.7597382068634033,2.3487119674682617,-7.75146484375,-3.6773681640625,-6.16455078125
17.109999900000002,-9.636661529541016,-1.8339585065841675,2.3942017555236816,-9.94873046875,6.04248046875,-10.406494140625
17.1299999,-9.313444137573242,-2.006340980529785,2.4444799423217773,-0.457763671875,7.110595703125,-0.823974609375
17.1499999,-9.32541561126709,-2.1499931812286377,2.298433542251587,-2.99072265625,4.730224609375,-6.89697265625
17.1699999,-9.418789863586426,-2.2361843585968018,2.207453966140747,-3.2501220703125,10.4522705078125,10.6353759765625
17.1899999,-9.526528358459473,-2.252943754196167,2.0638017654418945,-3.8299560546875,-3.47900390625,2.86865234375
17.2099999,-9.852140426635742,-2.252943754196167,2.008735179901123,0.030517578125,0.9918212890625,3.3111572265625
17.2299999,-9.701305389404297,-2.2170307636260986,1.8626888990402222,2.1514892578125,-6.256103515625,-7.7056884765625
17.249999900000002,-9.916783332824707,-2.233790159225464,1.7525556087493896,3.7078857421875,7.3699951171875,2.349853515625
17.269999900000002,-9.454702377319336,-2.0877439975738525,1.7501614093780518,4.3487548828125,-3.1890869140625,-4.3487548828125
17.2899999,-9.6989107131958,-2.013523578643799,1.6903064250946045,-1.6937255859375,8.4228515625,1.007080078125
17.3099999,-9.519346237182617,-1.9177556037902832,1.7980455160140991,-0.06103515625,-3.509521484375,6.622314453125
17.3299999,-9.694122314453125,-1.843535304069519,1.886630892753601,-3.5552978515625,-5.2337646484375,-0.9307861328125
17.3499999,-9.567230224609375,-1.941697597503662,2.049436569213867,-1.3885498046875,-6.40869140625,-2.5787353515625
17.3699999,-9.581595420837402,-2.006340980529785,2.0877439975738525,-2.960205078125,-0.3814697265625,-10.07080078125
17.3899999,-9.452308654785156,-2.188300371170044,2.2146365642547607,4.1046142578125,4.974365234375,2.7618408203125
17.409999900000003,-9.30386734008789,-2.2170307636260986,2.140416383743286,-0.5645751953125,-2.8533935546875,-5.4473876953125
17.429999900000002,-9.59835433959961,-2.231395959854126,2.0853497982025146,-3.5400390625,8.48388671875,10.8184814453125
17.4499999,-9.512163162231445,-2.097320795059204,2.0398597717285156,-3.143310546875,-8.392333984375,4.7454833984375
17.4699999,-9.921571731567383,-2.0398597717285156,1.9752163887023926,-2.593994140625,-2.25830078125,1.861572265625
17.4899999,-9.636661529541016,-1.98958158493042,2.0183119773864746,-1.800537109375,-9.521484375,-6.1798095703125
17.5099999,-9.68933391571045,-2.094926595687866,2.0422539710998535,-2.3040771484375,4.5928955078125,-2.1209716796875
17.5299999,-9.279925346374512,-2.1523873805999756,2.1930887699127197,3.5858154296875,0.7476806640625,1.495361328125
17.5499999,-9.29189682006836,-2.145204782485962,2.2170307636260986,-4.364013671875,4.4097900390625,-4.6234130859375
17.5699999,-9.373299598693848,-2.1332337856292725,2.293645143508911,-5.8746337890625,8.8348388671875,10.711669921875
17.589999900000002,-9.555258750915527,-2.011129379272461,2.207453966140747,-5.828857421875,-5.3863525390625,2.0751953125
17.609999900000002,-9.86889934539795,-1.944091796875,2.1332337856292725,0.1068115234375,0.2593994140625,1.983642578125
17.6299999,-9.667786598205566,-1.9297266006469727,1.9943699836730957,2.685546875,-8.2244873046875,-11.90185546875
17.6499999,-9.77791976928711,-1.9536685943603516,1.8746598958969116,7.4920654296875,6.6375732421875,-0.9307861328125
17.6699999,-9.435548782348633,-2.032677173614502,1.9345149993896484,9.2926025390625,-3.753662109375,-3.662109375
17.6899999,-9.452308654785156,-2.0590133666992188,2.0207061767578125,-5.0811767578125,8.30078125,-2.62451171875
17.7099999,-9.421183586120605,-2.075772762298584,2.2649147510528564,-12.115478515625,9.246826171875,7.4920654296875
17.7299999,-9.50498104095459,-2.013523578643799,2.365471363067627,-15.3350830078125,2.2735595703125,-0.6561279296875
17.749999900000002,-9.658209800720215,-2.099714994430542,2.387019157409668,-8.880615234375,5.2337646484375,0.9613037109375
17.769999900000002,-9.516951560974121,-2.1164743900299072,2.190694570541382,-5.8746337890625,-0.701904296875,-9.7808837890625
17.7899999,-9.801861763000488,-2.296039342880249,1.889025092124939,2.655029296875,11.2152099609375,3.814697265625
17.8099999,-9.41400146484375,-2.3056161403656006,1.7381904125213623,5.126953125,-4.1351318359375,-2.716064453125
17.8299999,-9.639056205749512,-2.3702597618103027,1.4867992401123047,-0.8544921875,8.8348388671875,3.7078857421875
17.8499999,-9.50498104095459,-2.22660756111145,1.4844050407409668,2.7313232421875,-0.5035400390625,10.589599609375
17.8699999,-9.62947940826416,-2.1068975925445557,1.5322890281677246,4.180908203125,-8.514404296875,1.617431640625
17.8899999,-9.727641105651855,-2.0590133666992188,1.723825216293335,7.537841796875,-7.7056884765625,0.48828125
17.909999900000003,-9.627084732055664,-1.9776105880737305,1.941697597503662,3.7689208984375,-7.171630859375,-9.5672607421875
17.929999900000002,-9.780313491821289,-2.0374655723571777,2.1284453868865967,6.9427490234375,8.60595703125,3.753662109375
17.9499999,-9.38048267364502,-1.9847931861877441,2.343923568725586,3.1585693359375,-5.2032470703125,-3.570556640625
17.9699999,-9.5408935546875,-2.032677173614502,2.387019157409668,-9.0179443359375,11.23046875,3.692626953125
17.9899999,-9.344569206237793,-1.941697597503662,2.4396915435791016,-11.8560791015625,7.5225830078125,11.444091796875
18.0099999,-9.500192642211914,-1.9321208000183105,2.3319525718688965,-10.4827880859375,2.38037109375,3.7994384765625
18.0299999,-9.579200744628906,-1.9919757843017578,2.1380221843719482,-2.99072265625,-0.7171630859375,0.701904296875
18.0499999,-9.610325813293457,-1.9512743949890137,1.8291701078414917,-0.8087158203125,-3.96728515625,-10.2691650390625
18.0699999,-9.768342971801758,-2.0374655723571777,1.5921441316604614,9.857177734375,7.415771484375,1.2969970703125
18.089999900000002,-9.524134635925293,-1.9991583824157715,1.6041151285171509,11.444091796875,-8.3160400390625,-6.256103515625
18.109999900000002,-9.691728591918945,-2.0231003761291504,1.6687586307525635,0.8697509765625,6.5765380859375,-1.0833740234375
18.1299999,-9.610325813293457,-1.9728221893310547,2.1978771686553955,-4.425048828125,0.7476806640625,1.6937255859375
18.1499999,-9.68694019317627,-2.0829553604125977,2.382230758666992,-2.4566650390625,1.8157958984375,1.5869140625
18.1699999,-9.488221168518066,-2.1164743900299072,2.343923568725586,-5.767822265625,-1.4801025390625,-8.0718994140625
18.1899999,-9.588777542114258,-2.2385785579681396,2.2385785579681396,-0.5340576171875,13.97705078125,5.0201416015625
18.2099999,-9.313444137573242,-2.2840683460235596,2.1045033931732178,-0.3509521484375,0.457763671875,2.655029296875
18.2299999,-9.445125579833984,-2.274491548538208,1.9393033981323242,-12.1612548828125,12.1612548828125,5.035400390625
18.249999900000002,-9.493009567260742,-2.1547815799713135,1.8267759084701538,-13.9923095703125,10.772705078125,15.13671875
18.269999900000002,-9.624691009521484,-1.9752163887023926,1.6711528301239014,-10.31494140625,-1.0528564453125,6.7138671875
18.2899999,-9.914389610290527,-1.7693150043487549,1.6041151285171509,-1.678466796875,-1.129150390625,3.265380859375
18.3099999,-9.739612579345703,-1.6950948238372803,1.4389152526855469,2.5634765625,-11.3983154296875,-10.3912353515625
18.3299999,-9.825803756713867,-1.6927006244659424,1.4676456451416016,8.3160400390625,4.82177734375,-1.2664794921875
18.3499999,-9.548076629638672,-1.8531121015548706,1.6041151285171509,8.30078125,-4.45556640625,-0.91552734375
18.3699999,-9.50737476348877,-1.9728221893310547,1.7932571172714233,-4.180908203125,1.7852783203125,-4.608154296875
18.3899999,-9.53849983215332,-2.056619167327881,2.0422539710998535,-8.48388671875,10.3607177734375,9.2010498046875
18.409999900000003,-9.59835433959961,-2.049436569213867,2.229001760482788,-7.75146484375,-2.62451171875,5.218505859375
18.429999900000002,-9.904812812805176,-2.0446481704711914,2.233790159225464,-5.1116943359375,5.8441162109375,5.096435546875
18.4499999,-9.641449928283691,-2.0207061767578125,2.209848165512085,-4.058837890625,-4.791259765625,-3.021240234375
18.4699999,-9.739612579345703,-2.054224967956543,2.0422539710998535,-1.9073486328125,10.589599609375,-0.335693359375
18.4899999,-9.569623947143555,-2.051830768585205,2.0374655723571777,1.2969970703125,8.7890625,4.2877197265625
18.5099999,-9.337387084960938,-1.9488801956176758,1.9105730056762695,-9.063720703125,3.7841796875,-4.669189453125
18.5299999,-9.610325813293457,-1.8555063009262085,1.8124107122421265,-13.85498046875,19.0582275390625,7.50732421875
18.5499999,-9.576807022094727,-1.7477672100067139,1.6735470294952393,-7.32421875,1.220703125,6.134033203125
18.5699999,-9.849745750427246,-1.7310078144073486,1.400607943534851,-0.244140625,2.349853515625,0.4425048828125
18.589999900000002,-9.744400978088379,-1.821987509727478,1.256955862045288,8.2855224609375,-7.6446533203125,-3.326416015625
18.609999900000002,-9.835380554199219,-1.9560627937316895,1.137245774269104,13.763427734375,-4.9285888671875,-9.521484375
18.6299999,-9.84495735168457,-2.075772762298584,1.1683704853057861,18.7530517578125,3.1890869140625,0.213623046875
18.6499999,-9.560047149658203,-2.051830768585205,1.4101848602294922,10.8642578125,-9.5672607421875,-4.2266845703125
18.6699999,-9.765948295593262,-2.0422539710998535,1.6160861253738403,-1.8463134765625,7.1563720703125,2.044677734375
18.6899999,-9.583989143371582,-1.9584569931030273,1.9512743949890137,-5.0506591796875,2.4566650390625,8.819580078125
18.7099999,-9.583989143371582,-1.8507179021835327,2.094926595687866,-8.026123046875,-1.739501953125,3.7689208984375
18.7299999,-9.737217903137207,-1.778891921043396,2.2409727573394775,-9.002685546875,2.899169921875,4.0130615234375
18.749999900000002,-9.536105155944824,-1.802833914756775,2.1547815799713135,-8.85009765625,-5.462646484375,-6.0882568359375
18.769999900000002,-9.567230224609375,-1.7693150043487549,2.032677173614502,-3.2958984375,11.2457275390625,1.708984375
18.7899999,-9.399636268615723,-1.9560627937316895,1.9081788063049316,-1.8310546875,1.800537109375,1.8157958984375
18.8099999,-9.452308654785156,-1.9847931861877441,1.7262194156646729,-12.6495361328125,5.6610107421875,-4.8065185546875
18.8299999,-9.641449928283691,-1.9919757843017578,1.6184803247451782,-13.031005859375,13.5040283203125,6.866455078125
18.8499999,-9.725247383117676,-1.9560627937316895,1.5203180313110352,-4.0435791015625,-3.2806396484375,6.65283203125
18.8699999,-10.029311180114746,-1.9081788063049316,1.290474772453308,4.486083984375,1.0528564453125,1.5869140625
18.8899999,-9.84256362915039,-1.9393033981323242,1.213860273361206,12.39013671875,-12.8631591796875,-4.8675537109375
18.909999900000003,-9.890447616577148,-1.9632453918457031,1.1827356815338135,15.350341796875,-4.0283203125,-7.4615478515625
18.929999900000002,-9.964667320251465,-1.9847931861877441,1.3862427473068237,14.6636962890625,3.2806396484375,0.244140625
18.9499999,-9.533711433410645,-1.8722656965255737,1.7262194156646729,1.89208984375,-5.035400390625,-6.3934326171875
18.9699999,-9.732429504394531,-1.8507179021835327,1.9488801956176758,-10.8795166015625,11.8865966796875,1.434326171875
18.9899999,-9.473855972290039,-1.7884687185287476,2.1164743900299072,-9.429931640625,4.0740966796875,7.6751708984375
19.0099999,-9.473855972290039,-1.7908629179000854,2.027888774871826,-6.622314453125,1.0833740234375,2.5787353515625
19.0299999,-9.667786598205566,-1.8363527059555054,1.9369091987609863,-2.1209716796875,1.861572265625,1.129150390625
19.0499999,-9.591172218322754,-1.9393033981323242,1.699883222579956,2.13623046875,-8.0108642578125,-8.270263671875
19.0699999,-9.660603523254395,-1.9512743949890137,1.5514427423477173,7.3394775390625,6.3323974609375,0.2899169921875
19.089999900000002,-9.516951560974121,-2.0614075660705566,1.482010841369629,4.9896240234375,-2.105712890625,1.861572265625
19.109999900000002,-9.569623947143555,-2.006340980529785,1.434126853942871,-7.62939453125,1.15966796875,-5.340576171875
19.1299999,-9.653421401977539,-1.965639591217041,1.4772224426269531,-9.7503662109375,8.1939697265625,5.615234375
19.1499999,-9.720458984375,-1.8770540952682495,1.556231141090393,-2.960205078125,-6.622314453125,7.6141357421875
19.1699999,-9.96945571899414,-1.8555063009262085,1.5083470344543457,1.7547607421875,-1.6937255859375,3.082275390625
19.1899999,-9.763554573059082,-1.8938134908676147,1.5203180313110352,6.77490234375,-12.6190185546875,-2.777099609375
19.2099999,-9.861717224121094,-1.9081788063049316,1.534683346748352,8.1787109375,-5.035400390625,-6.3934326171875
19.2299999,-9.806650161743164,-1.9512743949890137,1.647210717201233,8.6822509765625,1.7547607421875,2.166748046875
19.249999900000002,-9.526528358459473,-1.8483237028121948,1.845929503440857,-3.2958984375,-6.7596435546875,-2.3345947265625
19.269999900000002,-9.636661529541016,-1.824381709098816,2.0039467811584473,-17.333984375,9.490966796875,1.617431640625
19.2899999,-9.57201862335205,-1.7525556087493896,2.1140801906585693,-16.2200927734375,5.8441162109375,7.99560546875
19.3099999,-9.514557838439941,-1.721431016921997,2.0853497982025146,-12.2833251953125,-4.5013427734375,4.0740966796875
19.3299999,-9.904812812805176,-1.867477297782898,1.9105730056762695,-6.5460205078125,1.7852783203125,4.3487548828125
19.3499999,-9.691728591918945,-1.9081788063049316,1.6927006244659424,3.84521484375,-9.7808837890625,-4.4708251953125
19.3699999,-9.787496566772461,-1.9847931861877441,1.460463047027588,12.5274658203125,2.5787353515625,-1.9989013671875
19.3899999,-9.708487510681152,-1.968033790588379,1.5418659448623657,13.519287109375,-2.50244140625,1.5716552734375
19.409999900000003,-9.493009567260742,-1.86508309841156,1.5203180313110352,-1.5411376953125,-6.1798095703125,-7.904052734375
19.429999900000002,-9.579200744628906,-1.7094600200653076,1.7286136150360107,-10.7574462890625,9.3994140625,2.197265625
19.4499999,-9.579200744628906,-1.7142484188079834,1.8363527059555054,-8.5601806640625,-2.1820068359375,6.4239501953125
19.4699999,-9.703699111938477,-1.6855180263519287,1.8411411046981812,-9.857177734375,-4.33349609375,0.1220703125
19.4899999,-9.75397777557373,-1.8315643072128296,1.920149803161621,-6.622314453125,-2.716064453125,1.5106201171875
19.5099999,-9.742006301879883,-1.941697597503662,1.8100165128707886,-0.518798828125,-6.9580078125,-6.1187744140625
19.5299999,-9.682151794433594,-1.968033790588379,1.7860745191574097,5.5389404296875,4.4097900390625,0.2288818359375
19.5499999,-9.481039047241211,-2.0254945755004883,1.699883222579956,2.6397705078125,-5.615234375,0.06103515625
19.5699999,-9.600749015808105,-1.941697597503662,1.6376339197158813,-7.781982421875,1.0223388671875,-5.0201416015625
19.589999900000002,-9.605537414550781,-1.8579005002975464,1.6208745241165161,-5.8441162109375,6.65283203125,4.5928955078125
19.609999900000002,-9.660603523254395,-1.8100165128707886,1.6735470294952393,1.1138916015625,-9.674072265625,5.5694580078125
19.6299999,-9.883264541625977,-1.7286136150360107,1.6711528301239014,0.6866455078125,-4.9285888671875,0.701904296875
19.6499999,-9.701305389404297,-1.8387469053268433,1.7860745191574097,4.5623779296875,-8.8043212890625,-2.8839111328125
19.6699999,-9.734824180603027,-1.889025092124939,1.8483237028121948,6.2408447265625,-2.8533935546875,-8.1024169921875
19.6899999,-9.612719535827637,-1.944091796875,1.9608511924743652,5.2947998046875,4.7760009765625,0.06103515625
19.7099999,-9.387664794921875,-1.944091796875,2.070984363555908,-4.1046142578125,-3.204345703125,-1.6632080078125
19.7299999,-9.476250648498535,-1.9608511924743652,2.1284453868865967,-16.0980224609375,11.322021484375,-0.4119873046875
19.749999900000002,-9.593565940856934,-1.9584569931030273,2.140416383743286,-11.16943359375,11.474609375,7.9498291015625
19.769999900000002,-9.636661529541016,-2.013523578643799,2.006340980529785,-1.0833740234375,-4.57763671875,7.5836181640625
19.7899999,-10.02452278137207,-2.075772762298584,1.7525556087493896,5.5084228515625,0.6561279296875,6.5155029296875
19.8099999,-9.797073364257812,-2.0374655723571777,1.5203180313110352,14.2059326171875,-11.871337890625,-1.46484375
19.8299999,-9.813833236694336,-1.8555063009262085,1.4077905416488647,15.7928466796875,-1.0528564453125,-4.730224609375
19.8499999,-9.821015357971191,-1.680729627609253,1.50355863571167,7.6751708984375,1.068115234375,-2.044677734375
19.8699999,-9.481039047241211,-1.3623007535934448,1.8076223134994507,-10.80322265625,-5.9661865234375,-8.9111328125
19.8899999,-9.624691009521484,-1.381454348564148,2.056619167327881,-24.5361328125,11.41357421875,-2.0751953125
19.909999900000003,-9.617507934570312,-1.4700398445129395,2.2409727573394775,-18.035888671875,7.9193115234375,5.218505859375
19.929999900000002,-9.50737476348877,-1.742978811264038,2.1930887699127197,-7.8125,-3.631591796875,1.800537109375
19.9499999,-9.885659217834473,-2.1068975925445557,1.9608511924743652,-0.396728515625,0.8544921875,2.899169921875
19.9699999,-9.63187313079834,-2.274491548538208,1.7381904125213623,8.9263916015625,-10.8795166015625,-3.2958984375
19.9899999,-9.6989107131958,-2.3104045391082764,1.5466543436050415,13.4124755859375,3.72314453125,0.6103515625
20.0099999,-9.655815124511719,-2.0470423698425293,1.647210717201233,7.5225830078125,2.01416015625,2.2125244140625
20.0299999,-9.41400146484375,-1.742978811264038,1.821987509727478,-10.5743408203125,-3.692626953125,-8.392333984375
20.0499999,-9.536105155944824,-1.4173674583435059,2.03507137298584,-21.392822265625,14.190673828125,-2.105712890625
20.0699999,-9.526528358459473,-1.3335703611373901,2.161964178085327,-13.8397216796875,6.04248046875,1.03759765625
20.089999900000002,-9.588777542114258,-1.501164436340332,1.9943699836730957,-4.547119140625,-0.9765625,-5.06591796875
