# Time (seconds),Accel_X,Accel_Y,Accel_Z,Gyro_X,Gyro_Y,Gyro_Z
0.0099999,4.247313976287842,-7.99184513092041,-1.3934253454208374,1.7242431640625,14.2059326171875,-79.1778564453125
0.029999900000000003,4.357447147369385,-7.843404769897461,-1.3431471586227417,1.46484375,12.3138427734375,-79.864501953125
0.0499999,4.496310710906982,-7.644686222076416,-1.2258312702178955,-1.2054443359375,17.974853515625,-80.5511474609375
0.0699999,4.685452938079834,-7.412448406219482,-1.0342950820922852,-5.615234375,26.2298583984375,-81.695556640625
0.08999990000000001,4.922478675842285,-7.175422668457031,-0.8188169598579407,-10.19287109375,36.1480712890625,-84.65576171875
0.10999990000000001,5.145139217376709,-6.9455790519714355,-0.6416460275650024,-13.5345458984375,45.4254150390625,-86.2579345703125
0.1299999,5.34625244140625,-6.768408298492432,-0.5434837937355042,-15.2587890625,49.3316650390625,-84.3353271484375
0.14999990000000002,5.499481201171875,-6.643909931182861,-0.5171475410461426,-15.4876708984375,46.2799072265625,-80.0933837890625
0.1699999,5.5976433753967285,-6.5696892738342285,-0.5506663918495178,-14.8468017578125,42.6483154296875,-74.70703125
0.1899999,5.647922039031982,-6.519411087036133,-0.6153098344802856,-13.519287109375,40.069580078125,-67.9168701171875
0.20999990000000002,5.655104637145996,-6.44279670715332,-0.6871358752250671,-11.9476318359375,34.6527099609375,-59.600830078125
0.2299999,5.655104637145996,-6.296750545501709,-0.7374141216278076,-10.833740234375,28.106689453125,-51.7425537109375
0.2499999,5.635950565338135,-6.066906929016113,-0.7661445140838623,-10.711669921875,26.18408203125,-45.7763671875
0.2699999,5.616796970367432,-5.765237808227539,-0.7733271718025208,-11.0626220703125,27.89306640625,-39.4287109375
0.28999990000000003,5.585672378540039,-5.446808815002441,-0.7805097699165344,-10.711669921875,26.885986328125,-32.6385498046875
0.3099999,5.549759387969971,-5.12119722366333,-0.790086567401886,-9.124755859375,23.98681640625,-27.130126953125
0.3299999,5.5329999923706055,-4.841075897216797,-0.7996633648872375,-7.3394775390625,22.6593017578125,-22.796630859375
0.34999990000000003,5.556941986083984,-4.642356872558594,-0.7972691655158997,-6.9580078125,25.848388671875,-18.402099609375
0.3699999,5.65031623840332,-4.503493309020996,-0.7661445140838623,-10.8184814453125,30.609130859375,-13.5345458984375
0.3899999,5.841852188110352,-4.402936935424805,-0.667982280254364,-16.6778564453125,32.1807861328125,-7.293701171875
0.40999990000000003,6.112396717071533,-4.350264549255371,-0.545877993106842,-24.139404296875,34.7747802734375,-0.5035400390625
0.4299999,6.440402507781982,-4.326322555541992,-0.4429273009300232,-32.257080078125,43.182373046875,5.7830810546875
0.4499999,6.775590896606445,-4.37420654296875,-0.38307225704193115,-38.3148193359375,47.7294921875,13.36669921875
0.4699999,7.041347026824951,-4.49870491027832,-0.40701428055763245,-43.1671142578125,42.4652099609375,23.2696533203125
0.4899999,7.242460250854492,-4.6040496826171875,-0.4572925269603729,-50.59814453125,34.97314453125,33.0047607421875
0.5099999,7.405265808105469,-4.697423934936523,-0.5195417404174805,-57.5714111328125,33.203125,39.642333984375
0.5299999,7.592013359069824,-5.018246650695801,-0.7733271718025208,-61.70654296875,27.6641845703125,50.445556640625
0.5499999,7.608773231506348,-5.288791656494141,-0.9768342971801758,-65.4144287109375,11.3372802734375,59.8297119140625
0.5699999,7.615955829620361,-5.592854976654053,-1.173158884048462,-68.7103271484375,4.9896240234375,63.995361328125
0.5899998999999999,7.603984832763672,-5.913678169250488,-1.3742717504501343,-71.1669921875,9.0484619140625,62.2406005859375
0.6099998999999999,7.632715225219727,-6.2416839599609375,-1.5490485429763794,-74.8291015625,6.4849853515625,60.9893798828125
0.6299999,7.663839817047119,-6.576871871948242,-1.7405846118927002,-78.094482421875,1.220703125,60.24169921875
0.6499999,7.692570209503174,-6.897695064544678,-1.9393033981323242,-77.9876708984375,7.0953369140625,55.1910400390625
0.6699999,7.649474620819092,-7.240066051483154,-2.183511972427368,-74.4781494140625,17.8375244140625,46.44775390625
0.6899999,7.577648162841797,-7.577648162841797,-2.410961151123047,-69.8089599609375,15.8843994140625,42.2210693359375
0.7099999,7.457938194274902,-7.951143741607666,-2.6240451335906982,-62.591552734375,13.48876953125,41.1834716796875
0.7299998999999999,7.311892032623291,-8.307879447937012,-2.7772738933563232,-53.9398193359375,23.1781005859375,38.1622314453125
0.7499998999999999,7.177816867828369,-8.56645393371582,-2.8179752826690674,-44.586181640625,36.5753173828125,33.87451171875
0.7699999,7.086836814880371,-8.664615631103516,-2.7293899059295654,-35.125732421875,43.304443359375,30.82275390625
0.7899999,7.0341644287109375,-8.621520042419434,-2.535459518432617,-27.4505615234375,47.4395751953125,28.3355712890625
0.8099999,6.9910688400268555,-8.434772491455078,-2.255337953567505,-20.2178955078125,56.365966796875,27.4810791015625
0.8299999,6.971915245056152,-8.111555099487305,-1.8914192914962769,-11.0626220703125,65.0787353515625,28.564453125
0.8499998999999999,6.950367450714111,-7.690176010131836,-1.4891934394836426,-1.922607421875,67.93212890625,28.6712646484375
0.8699998999999999,6.897695064544678,-7.273584842681885,-1.091755986213684,5.340576171875,67.2760009765625,28.5186767578125
0.8899999,6.813898086547852,-6.943184852600098,-0.7493851184844971,12.0849609375,65.85693359375,32.5927734375
0.9099999,6.6630635261535645,-6.766014099121094,-0.47644615173339844,18.2342529296875,61.187744140625,41.2445068359375
0.9299999,6.457161903381348,-6.780379295349121,-0.29209262132644653,21.0418701171875,56.5032958984375,50.018310546875
0.9499999,6.19379997253418,-6.957550048828125,-0.18914192914962769,20.7977294921875,56.854248046875,56.8695068359375
0.9699998999999999,5.91128396987915,-7.230489253997803,-0.13407529890537262,20.6146240234375,58.563232421875,63.29345703125
0.9899998999999999,5.626373767852783,-7.534552574157715,-0.09576806426048279,20.7672119140625,60.272216796875,68.450927734375
1.0099999,5.324704647064209,-7.824251174926758,-0.06703764945268631,20.5535888671875,63.629150390625,70.037841796875
1.0299999,5.003881454467773,-8.070854187011719,-0.031124621629714966,21.728515625,63.5986328125,69.5953369140625
1.0499999,4.659116744995117,-8.245630264282227,0.0454898327589035,23.13232421875,54.19921875,68.145751953125
1.0699999,4.311957359313965,-8.367734909057617,0.15562310814857483,27.9388427734375,43.243408203125,65.4449462890625
1.0899999,3.957615375518799,-8.44195556640625,0.31842881441116333,29.5562744140625,34.5001220703125,57.769775390625
1.1099999,3.6559460163116455,-8.458714485168457,0.5291185975074768,29.571533203125,25.5584716796875,47.7294921875
1.1299999,3.4356794357299805,-8.456320762634277,0.7876923680305481,28.25927734375,15.4876708984375,36.895751953125
1.1499999,3.3231520652770996,-8.465897560119629,1.0534487962722778,24.0325927734375,9.21630859375,25.57373046875
1.1699998999999999,3.3039982318878174,-8.513781547546387,1.3407529592514038,19.8211669921875,10.4522705078125,17.2271728515625
1.1899998999999999,3.3279404640197754,-8.62630844116211,1.6184803247451782,14.58740234375,15.960693359375,12.51220703125
1.2099999,3.3255462646484375,-8.722076416015625,1.9105730056762695,-2.6092529296875,28.6712646484375,5.0201416015625
1.2299999,3.2992098331451416,-8.880094528198242,2.1116859912872314,-8.8958740234375,36.895751953125,-0.06103515625
1.2499999,3.181894063949585,-9.004592895507812,2.319981336593628,-2.9296875,32.89794921875,0.1068115234375
1.2699999,3.0550012588500977,-9.150638580322266,2.403778553009033,-10.0860595703125,37.628173828125,-4.9285888671875
1.2899999,2.9305028915405273,-9.339780807495117,2.4205379486083984,-13.5040283203125,36.3922119140625,-11.53564453125
1.3099999,2.873042106628418,-9.552865028381348,2.322375535964966,-12.5274658203125,28.9306640625,-18.1884765625
1.3299999,2.942473888397217,-9.770736694335938,2.140416383743286,-10.4827880859375,20.01953125,-22.8424072265625
1.3499999,3.1268274784088135,-9.983820915222168,1.8746598958969116,-6.988525390625,11.9476318359375,-24.7955322265625
1.3699999,3.380612850189209,-10.11550235748291,1.580173134803772,-4.425048828125,7.598876953125,-25.848388671875
1.3899999,3.6798880100250244,-10.160991668701172,1.3096283674240112,-1.678466796875,4.69970703125,-27.740478515625
1.4099999,3.9671921730041504,-10.122684478759766,1.094150185585022,0.823974609375,5.8135986328125,-29.998779296875
1.4299998999999999,4.235342979431152,-10.041281700134277,0.9696516990661621,0.9613037109375,14.46533203125,-30.5938720703125
1.4499999,4.448426723480225,-9.971850395202637,0.912190854549408,-0.4119873046875,23.8494873046875,-28.564453125
1.4699999,4.570530891418457,-9.93593692779541,0.8930372595787048,-3.1890869140625,28.4881591796875,-24.810791015625
1.4899999,4.623203277587891,-9.890447616577148,0.9002198576927185,-6.1492919921875,29.0069580078125,-21.1334228515625
1.5099999,4.616020679473877,-9.794678688049316,0.9313444495201111,-15.411376953125,30.9906005859375,-22.1405029296875
1.5299999,4.596867084503174,-9.708487510681152,0.933738648891449,-18.9666748046875,35.64453125,-22.796630859375
1.5499999,4.592078685760498,-9.550470352172852,1.0055646896362305,-8.697509765625,32.470703125,-19.5770263671875
1.5699999,4.637568473815918,-9.41639518737793,1.072602391242981,-7.659912109375,28.7322998046875,-21.8353271484375
1.5899999,4.726154327392578,-9.272743225097656,1.1827356815338135,-4.9896240234375,24.10888671875,-25.726318359375
1.6099999,4.879383087158203,-9.090784072875977,1.335964560508728,-1.861572265625,16.9677734375,-30.0140380859375
1.6299999,5.106832027435303,-8.9064302444458,1.5083470344543457,1.15966796875,6.5460205078125,-34.332275390625
1.6499999,5.365406036376953,-8.760383605957031,1.6376339197158813,2.1514892578125,-2.38037109375,-38.3453369140625
1.6699999,5.633556365966797,-8.645462036132812,1.7262194156646729,-0.0152587890625,-10.5743408203125,-40.4052734375
1.6899998999999999,5.892130374908447,-8.556877136230469,1.7621324062347412,-2.8076171875,-18.646240234375,-40.5731201171875
1.7099999,6.0621185302734375,-8.470685958862305,1.723825216293335,-6.6375732421875,-19.3023681640625,-40.4815673828125
1.7299999,6.088454723358154,-8.33182144165039,1.580173134803772,-13.0157470703125,-14.1448974609375,-39.61181640625
1.7499999,5.980715751647949,-8.128314971923828,1.3551181554794312,-17.5628662109375,-15.411376953125,-38.116455078125
1.7699999,5.750872611999512,-7.869740962982178,1.0654197931289673,-17.76123046875,-20.416259765625,-38.116455078125
1.7899999,5.475539207458496,-7.568071365356445,0.751779317855835,-19.1650390625,-17.2119140625,-40.313720703125
1.8099999,5.2265424728393555,-7.264008045196533,0.47165772318840027,-22.8424072265625,-9.857177734375,-42.8009033203125
1.8299999,5.039794445037842,-6.998251438140869,0.2537853717803955,-25.482177734375,-7.9498291015625,-42.5262451171875
1.8499999,4.95120906829834,-6.821080684661865,0.10055647045373917,-25.57373046875,-6.927490234375,-39.5050048828125
1.8699999,4.95120906829834,-6.787561893463135,-0.0454898327589035,-26.2603759765625,-0.579833984375,-35.9039306640625
1.8899999,5.032611846923828,-6.871358871459961,-0.20350714027881622,-29.1290283203125,3.448486328125,-31.3568115234375
1.9099999,5.1810526847839355,-7.041347026824951,-0.38307225704193115,-28.6865234375,-4.9896240234375,-24.6124267578125
1.9299998999999999,5.3797712326049805,-7.240066051483154,-0.5889736413955688,-26.580810546875,-12.3443603515625,-19.22607421875
1.9499999,5.590460777282715,-7.393294811248779,-0.7613561153411865,-28.4423828125,-5.7525634765625,-17.4102783203125
1.9699999,5.7987565994262695,-7.479485988616943,-0.9050082564353943,-30.853271484375,5.645751953125,-16.6778564453125
1.9899999,5.961562156677246,-7.474697589874268,-1.0438719987869263,-32.0281982421875,9.1705322265625,-16.4337158203125
2.0099999,6.076483726501465,-7.402871608734131,-1.194706678390503,-29.998779296875,4.6234130859375,-16.2353515625
2.0299999,6.1770405769348145,-7.280767440795898,-1.3263877630233765,-28.350830078125,3.875732421875,-17.39501953125
2.0499999,6.291962146759033,-7.16584587097168,-1.4173674583435059,-29.7393798828125,9.613037109375,-18.8751220703125
2.0699999,6.423643112182617,-7.096413612365723,-1.4484920501708984,-31.55517578125,13.4429931640625,-18.00537109375
2.0899999,6.5912370681762695,-7.06528902053833,-1.41257905960083,-32.623291015625,12.5579833984375,-14.5721435546875
2.1099999,6.785167694091797,-7.070077419281006,-1.3479355573654175,-35.003662109375,16.0369873046875,-11.077880859375
2.1299999,6.97430944442749,-7.079654216766357,-1.2761094570159912,-40.6494140625,25.87890625,-8.23974609375
2.1499999,7.146692276000977,-7.070077419281006,-1.1755530834197998,-46.6461181640625,33.0047607421875,-4.1961669921875
2.1699999,7.292738437652588,-7.0557122230529785,-1.0630255937576294,-50.140380859375,38.9862060546875,1.556396484375
2.1899999,7.393294811248779,-7.022193431854248,-0.9528923034667969,-53.7109375,49.285888671875,8.514404296875
2.2099999,7.474697589874268,-6.995857238769531,-0.8451532125473022,-56.7169189453125,55.9539794921875,16.082763671875
2.2299999,7.503427982330322,-6.983886241912842,-0.7709329724311829,-55.72509765625,54.5806884765625,23.0560302734375
2.2499999,7.407660007476807,-6.947973251342773,-0.7805097699165344,-53.03955078125,53.253173828125,24.7650146484375
2.2699999,7.137115478515625,-6.89530086517334,-0.8619126081466675,-50.8880615234375,52.642822265625,18.829345703125
2.2899999,6.718130111694336,-6.854599475860596,-1.0103530883789062,-48.614501953125,49.4842529296875,9.9334716796875
2.3099999,6.248866558074951,-6.854599475860596,-1.170764684677124,-44.4183349609375,47.18017578125,4.058837890625
2.3299999,5.889736175537109,-6.9455790519714355,-1.2976573705673218,-42.0989990234375,51.0406494140625,0.0152587890625
2.3499999,5.710171222686768,-7.132327079772949,-1.3694833517074585,-42.8009033203125,58.7005615234375,-3.936767578125
2.3699999,5.779603004455566,-7.374141216278076,-1.359906554222107,-43.487548828125,62.9425048828125,-5.4779052734375
2.3899999,5.992686748504639,-7.63989782333374,-1.3263877630233765,-43.365478515625,63.5528564453125,-3.7994384765625
2.4099999,6.260837554931641,-7.836222171783447,-1.2545616626739502,-44.43359375,62.1490478515625,-0.6256103515625
2.4299999,6.512228488922119,-7.888894557952881,-1.1348515748977661,-44.43359375,58.624267578125,1.617431640625
2.4499999,6.696582317352295,-7.783549785614014,-0.9768342971801758,-43.64013671875,57.647705078125,0.2593994140625
2.4699999,6.775590896606445,-7.608773231506348,-0.8212111592292786,-41.8701171875,55.2825927734375,-1.3275146484375
2.4899999,6.777985095977783,-7.42681360244751,-0.6607996821403503,-40.58837890625,46.2799072265625,1.2054443359375
2.5099999,6.7277069091796875,-7.283161640167236,-0.5027823448181152,-39.581298828125,36.7584228515625,5.218505859375
2.5299999,6.636727333068848,-7.184999465942383,-0.35913026332855225,-39.337158203125,35.9649658203125,5.37109375
2.5499999,6.54574728012085,-7.096413612365723,-0.2322375625371933,-38.9556884765625,37.994384765625,3.204345703125
2.5699999,6.490680694580078,-7.026981830596924,-0.1388636976480484,-37.29248046875,36.19384765625,2.0294189453125
2.5899999,6.45476770401001,-7.015010833740234,-0.10534487664699554,-34.5611572265625,35.4461669921875,1.373291015625
2.6099999,6.435614109039307,-7.06528902053833,-0.13168109953403473,-30.853271484375,38.8946533203125,0.91552734375
2.6299999,6.449979305267334,-7.156269073486328,-0.19393034279346466,-26.1383056640625,40.1153564453125,1.1444091796875
2.6499999,6.461950302124023,-7.264008045196533,-0.2753331959247589,-21.0723876953125,37.0941162109375,1.2054443359375
2.6699999,6.478709697723389,-7.359776020050049,-0.33039984107017517,-16.7083740234375,34.3475341796875,-0.0152587890625
2.6899999,6.517016887664795,-7.4316020011901855,-0.33758243918418884,-13.641357421875,36.19384765625,-1.9683837890625
2.7099999,6.552929878234863,-7.469909191131592,-0.2968810200691223,-11.0321044921875,38.299560546875,-2.899169921875
2.7299999,6.581660270690918,-7.491456985473633,-0.21547815203666687,-7.9803466796875,33.1573486328125,-1.983642578125
2.7499999,6.584054470062256,-7.50582218170166,-0.12449848651885986,-4.8065185546875,24.9176025390625,0.2288818359375
2.7699999,6.550535678863525,-7.51779317855835,-0.06703764945268631,-2.471923828125,19.287109375,2.2430419921875
2.7899999,6.512228488922119,-7.529764175415039,-0.0071826050989329815,-1.922607421875,11.962890625,4.0130615234375
2.8099999,6.478709697723389,-7.544129371643066,0.038307227194309235,-4.08935546875,4.0283203125,6.378173828125
2.8299999,6.473921298980713,-7.536946773529053,0.1173158809542656,-7.3089599609375,4.69970703125,9.002685546875
2.8499999,6.466738700866699,-7.5201873779296875,0.2082955539226532,-9.2620849609375,17.02880859375,8.6822509765625
2.8699999,6.3973069190979,-7.4770917892456055,0.26575639843940735,-8.4991455078125,29.632568359375,5.43212890625
2.8899999,6.279991149902344,-7.400477409362793,0.26815059781074524,-5.859375,28.01513671875,1.15966796875
2.9099999,6.141127586364746,-7.295132637023926,0.22744916379451752,-2.9144287109375,16.7236328125,-3.47900390625
2.9299999,6.057330131530762,-7.1921820640563965,0.21547815203666687,-0.335693359375,10.8795166015625,-7.8277587890625
2.9499999,6.076483726501465,-7.0988078117370605,0.26096799969673157,1.7547607421875,14.8162841796875,-9.613037109375
2.9699999,6.1985883712768555,-7.046135425567627,0.3711012601852417,2.38037109375,18.6767578125,-8.697509765625
2.9899999,6.3949127197265625,-7.01979923248291,0.5123591423034668,1.2664794921875,17.7459716796875,-7.7362060546875
3.0099999,6.615179061889648,-7.0126166343688965,0.6631938815116882,-0.823974609375,17.5018310546875,-8.087158203125
3.0299999,6.806715488433838,-7.050923824310303,0.8212111592292786,-3.7689208984375,22.0184326171875,-8.7432861328125
3.0499999,6.900089263916016,-7.173028469085693,0.9528923034667969,-7.659912109375,28.6865234375,-9.3231201171875
3.0699999,6.876147270202637,-7.371747016906738,1.0414776802062988,-10.07080078125,33.26416015625,-12.420654296875
3.0899999,6.742072105407715,-7.589619159698486,1.0606313943862915,-9.124755859375,35.400390625,-20.2484130859375
3.1099999,6.550535678863525,-7.754819393157959,1.0103530883789062,-5.0048828125,34.85107421875,-31.1126708984375
3.1299999,6.390124320983887,-7.783549785614014,0.9193734526634216,0.457763671875,28.533935546875,-40.3594970703125
3.1499999,6.303933143615723,-7.692570209503174,0.8355764150619507,6.3629150390625,16.7999267578125,-44.9371337890625
3.1699999,6.291962146759033,-7.484274387359619,0.7613561153411865,11.4898681640625,4.4097900390625,-44.647216796875
3.1899999,6.3733649253845215,-7.228095054626465,0.7326257228851318,14.739990234375,-8.6669921875,-40.7257080078125
3.2099999,6.53377628326416,-6.955155849456787,0.7589619159698486,15.6402587890625,-21.7742919921875,-34.210205078125
3.2299999,6.75883150100708,-6.71334171295166,0.8379706144332886,14.7552490234375,-30.487060546875,-25.6500244140625
3.2499999,7.048529624938965,-6.502651691436768,0.9768342971801758,13.0615234375,-30.9600830078125,-17.333984375
3.2699999,7.350199222564697,-6.3518171310424805,1.1252747774124146,10.1470947265625,-24.5513916015625,-11.4593505859375
3.2899999,7.615955829620361,-6.236895561218262,1.2425906658172607,6.7901611328125,-18.524169921875,-6.622314453125
3.3099999,7.795520782470703,-6.18182897567749,1.2689268589019775,4.2266845703125,-19.59228515625,-1.1444091796875
3.3299999000000002,7.869740962982178,-6.18182897567749,1.2066776752471924,2.74658203125,-25.87890625,3.96728515625
3.3499999,7.836222171783447,-6.224924564361572,1.072602391242981,2.0751953125,-29.4342041015625,6.500244140625
3.3699999,7.723694801330566,-6.291962146759033,0.912190854549408,1.9378662109375,-25.970458984375,6.134033203125
3.3899999,7.565677165985107,-6.354211330413818,0.751779317855835,3.1280517578125,-16.845703125,2.3345947265625
3.4099999,7.386112213134766,-6.411672115325928,0.5937620401382446,7.26318359375,-6.805419921875,-3.875732421875
3.4299999,7.1921820640563965,-6.473921298980713,0.43095630407333374,14.4500732421875,-1.007080078125,-9.185791015625
3.4499999,7.06528902053833,-6.495469093322754,0.31364041566848755,23.223876953125,-1.4801025390625,-11.6424560546875
3.4699999,7.015010833740234,-6.476315498352051,0.26815059781074524,31.036376953125,-0.5340576171875,-13.458251953125
3.4899999,7.062894821166992,-6.404489517211914,0.31842881441116333,36.1480712890625,3.4332275390625,-13.8702392578125
3.5099999,7.223306655883789,-6.277596950531006,0.4692635238170624,39.703369140625,4.180908203125,-10.467529296875
3.5299999,7.448361396789551,-6.141127586364746,0.6847416758537292,42.3736572265625,2.38037109375,-5.2032470703125
3.5499999,7.687781810760498,-6.007051944732666,0.950498104095459,43.975830078125,2.7008056640625,-0.732421875
3.5699999,7.903259754180908,-5.892130374908447,1.235408067703247,41.656494140625,5.6610107421875,2.655029296875
3.5899999,8.032546997070312,-5.793968200683594,1.4915876388549805,35.3240966796875,7.537841796875,5.645751953125
3.6099999,8.08282470703125,-5.7125654220581055,1.6831238269805908,28.4423828125,4.9896240234375,7.781982421875
3.6299999,8.058882713317871,-5.657498836517334,1.7860745191574097,22.7203369140625,2.3193359375,8.148193359375
3.6499999,7.977479934692383,-5.6191911697387695,1.7717092037200928,16.204833984375,5.767822265625,6.6680908203125
3.6699999,7.891288757324219,-5.602431774139404,1.6879122257232666,11.077880859375,8.7890625,4.4708251953125
3.6899999,7.7763671875,-5.595249176025391,1.5538369417190552,8.3160400390625,6.7901611328125,1.46484375
3.7099999,7.627926826477051,-5.616796970367432,1.3646949529647827,7.1868896484375,4.3792724609375,-2.1514892578125
3.7299999,7.501033782958984,-5.6455278396606445,1.1875240802764893,5.8135986328125,1.617431640625,-5.8135986328125
3.7499999,7.441178798675537,-5.669469833374023,1.0534487962722778,4.8675537109375,1.0528564453125,-10.0250244140625
3.7699999,7.484274387359619,-5.688623428344727,1.0007762908935547,3.692626953125,6.8511962890625,-14.4500732421875
3.7899999,7.570465564727783,-5.731719017028809,0.9816226959228516,1.678466796875,16.754150390625,-15.594482421875
3.8099999,7.659051418304443,-5.801150798797607,0.9696516990661621,1.9989013671875,20.7977294921875,-11.932373046875
3.8299999000000002,7.680599212646484,-5.884947776794434,0.9193734526634216,6.561279296875,16.4947509765625,-7.232666015625
3.8499999,7.620744228363037,-5.947196960449219,0.8595184087753296,13.763427734375,13.7786865234375,-5.5694580078125
3.8699999,7.515398979187012,-6.042964935302734,0.7805097699165344,19.5770263671875,14.984130859375,-6.2408447265625
3.8899999,7.457938194274902,-5.937620162963867,0.7015010714530945,-6.988525390625,13.5345458984375,-13.031005859375
3.9099999,7.484274387359619,-5.796362400054932,0.6967126727104187,-14.5263671875,5.67626953125,-9.735107421875
3.9299999,7.577648162841797,-5.614402770996094,0.689530074596405,39.520263671875,-4.2877197265625,10.2691650390625
3.9499999,7.687781810760498,-5.430049419403076,0.811634361743927,39.55078125,13.397216796875,13.7939453125
3.9699999,7.706935405731201,-5.415684223175049,1.0295066833496094,29.937744140625,24.505615234375,14.2822265625
3.9899999,7.534552574157715,-5.609614372253418,1.3096283674240112,23.529052734375,25.726318359375,13.458251953125
4.0099999,7.2352776527404785,-5.817910194396973,1.6089035272598267,-6.195068359375,25.3448486328125,1.708984375
4.029999900000001,6.950367450714111,-6.045359134674072,1.845929503440857,-14.129638671875,16.0369873046875,-7.904052734375
4.0499999,6.9455790519714355,-6.212953567504883,1.9177556037902832,1.1749267578125,1.2664794921875,-9.2926025390625
4.069999900000001,7.113173484802246,-6.27280855178833,1.8842366933822632,20.01953125,-24.749755859375,5.950927734375
4.0899999000000005,7.443572998046875,-6.189011573791504,1.86508309841156,18.9056396484375,-34.85107421875,15.838623046875
4.1099999,7.733271598815918,-6.078877925872803,1.8339585065841675,15.167236328125,-20.233154296875,4.7149658203125
4.1299999000000005,7.814674377441406,-5.75326681137085,2.0829553604125977,13.5040283203125,0.2593994140625,-3.2196044921875
4.1499999,7.750030994415283,-5.683835029602051,2.207453966140747,11.9476318359375,4.180908203125,1.4495849609375
4.1699999000000005,7.620744228363037,-5.746084213256836,2.2385785579681396,10.7421875,8.0718994140625,4.852294921875
4.1899999,7.467514991760254,-5.832275390625,2.2433669567108154,7.3699951171875,9.674072265625,4.2572021484375
4.209999900000001,7.285555839538574,-5.913678169250488,2.183511972427368,5.43212890625,3.3721923828125,3.875732421875
4.2299999,7.141903877258301,-5.985504150390625,2.10210919380188,5.523681640625,-1.495361328125,3.0670166015625
4.249999900000001,7.086836814880371,-5.978321552276611,2.0853497982025146,5.096435546875,-0.1678466796875,2.2430419921875
4.2699999,7.060500621795654,-6.028599739074707,2.0614075660705566,3.6163330078125,7.4920654296875,3.4332275390625
4.289999900000001,7.050923824310303,-6.04775333404541,2.0901381969451904,-1.3427734375,8.636474609375,3.692626953125
4.3099999,7.072471618652344,-6.098031520843506,2.1523873805999756,-3.0670166015625,1.8157958984375,0.4119873046875
4.329999900000001,7.089231014251709,-6.121973514556885,2.2457611560821533,-7.0037841796875,3.997802734375,-2.8076171875
4.3499999,7.175422668457031,-6.086060523986816,2.38462495803833,-14.617919921875,11.8408203125,-2.1820068359375
4.369999900000001,7.309497833251953,-6.0621185302734375,2.5091233253479004,-18.4478759765625,17.4407958984375,-0.7171630859375
4.3899999,7.417236804962158,-6.016628742218018,2.5665841102600098,-21.5301513671875,21.91162109375,-1.861572265625
4.409999900000001,7.474697589874268,-5.978321552276611,2.540247917175293,-22.8118896484375,20.5841064453125,-2.471923828125
4.4299999,7.508216381072998,-6.009446144104004,2.4660277366638184,-19.561767578125,17.9901123046875,-2.655029296875
4.449999900000001,7.50582218170166,-6.04775333404541,2.367865562438965,-19.4244384765625,19.989013671875,-1.8463134765625
4.4699999,7.515398979187012,-6.124367713928223,2.2864625453948975,-21.026611328125,22.308349609375,1.129150390625
4.489999900000001,7.5848307609558105,-6.200982570648193,2.212242364883423,-18.4478759765625,23.86474609375,4.5928955078125
4.5099999,7.6351094245910645,-6.244078159332275,2.1164743900299072,-14.0838623046875,26.42822265625,8.453369140625
4.529999900000001,7.63989782333374,-6.268020153045654,2.0207061767578125,-9.1705322265625,25.238037109375,14.34326171875
4.5499999,7.577648162841797,-6.31829833984375,1.946485996246338,-4.547119140625,20.751953125,16.876220703125
4.569999900000001,7.402871608734131,-6.356605529785156,1.920149803161621,-1.8157958984375,19.04296875,15.4876708984375
4.5899999000000005,7.134721279144287,-6.399701118469238,1.9273324012756348,4.5013427734375,16.7236328125,14.7857666015625
4.609999900000001,6.854599475860596,-6.418854713439941,2.013523578643799,10.1318359375,12.1307373046875,11.1541748046875
4.6299999000000005,6.574477672576904,-6.426037311553955,2.126051187515259,12.0391845703125,8.636474609375,5.218505859375
4.6499999,6.36378812789917,-6.435614109039307,2.27209734916687,10.80322265625,5.706787109375,0.3662109375
4.6699999000000005,6.253654956817627,-6.426037311553955,2.427720546722412,9.33837890625,0.0762939453125,-1.6021728515625
4.6899999,6.270414352416992,-6.390124320983887,2.5737667083740234,7.99560546875,-5.79833984375,-3.35693359375
4.709999900000001,6.404489517211914,-6.327875137329102,2.655169725418091,4.8828125,-7.415771484375,-6.34765625
4.7299999,6.617573261260986,-6.232107162475586,2.676717519760132,2.3651123046875,-8.056640625,-6.8817138671875
4.749999900000001,6.900089263916016,-6.124367713928223,2.6791117191314697,3.5247802734375,-9.09423828125,-4.6844482421875
4.7699999,7.184999465942383,-6.007051944732666,2.6575639247894287,2.593994140625,-2.593994140625,-3.5400390625
4.789999900000001,7.429207801818848,-5.904101371765137,2.6240451335906982,-0.946044921875,7.0343017578125,-1.678466796875
4.8099999,7.568071365356445,-5.8203043937683105,2.631227731704712,-1.7852783203125,8.7738037109375,3.4637451171875
4.829999900000001,7.599195957183838,-5.808333396911621,2.631227731704712,-0.5035400390625,10.7574462890625,6.9580078125
4.8499999,7.481880187988281,-5.846640586853027,2.652775526046753,-1.8463134765625,15.716552734375,8.758544921875
4.869999900000001,7.271190643310547,-5.954379558563232,2.6862943172454834,-2.6092529296875,16.204833984375,10.31494140625
4.8899999,7.038952827453613,-6.0836663246154785,2.7246015071868896,-0.9613037109375,11.3983154296875,10.2996826171875
4.909999900000001,6.811503887176514,-6.251260757446289,2.7246015071868896,0.091552734375,9.2315673828125,9.7808837890625
4.9299999,6.641515731811523,-6.435614109039307,2.6144683361053467,0.946044921875,7.2784423828125,10.6658935546875
4.949999900000001,6.588842868804932,-6.562506675720215,2.652775526046753,1.617431640625,-2.532958984375,11.9781494140625
4.9699999,6.449979305267334,-6.6630635261535645,2.63362193107605,1.64794921875,0.335693359375,9.1705322265625
4.989999900000001,6.375759124755859,-6.655880928039551,2.760514497756958,-1.739501953125,12.20703125,-1.46484375
5.0099999,6.2392897605896,-6.6391215324401855,2.8778305053710938,-3.509521484375,7.080078125,-10.345458984375
5.029999900000001,6.167463779449463,-6.651092529296875,2.9065608978271484,-1.7242431640625,-3.5858154296875,-12.7410888671875
5.0499999,6.217741966247559,-6.701370716094971,2.853888511657715,0.1220703125,-14.0228271484375,-10.0250244140625
5.069999900000001,6.378153324127197,-6.8043212890625,2.717418909072876,2.99072265625,-22.4761962890625,-5.0506591796875
5.0899999000000005,6.610390663146973,-6.914454460144043,2.5737667083740234,6.9427490234375,-29.296875,0.732421875
5.109999900000001,6.84981107711792,-7.000645637512207,2.4468741416931152,10.3759765625,-30.9600830078125,5.1422119140625
5.1299999000000005,7.048529624938965,-7.0341644287109375,2.365471363067627,13.9312744140625,-25.1312255859375,6.5765380859375
5.1499999,7.175422668457031,-7.036558628082275,2.31758713722229,18.2647705078125,-14.9993896484375,6.011962890625
5.1699999000000005,7.201758861541748,-7.01979923248291,2.2888567447662354,24.59716796875,-6.561279296875,6.40869140625
5.1899999,7.122750282287598,-7.024587631225586,2.2577321529388428,33.203125,-3.082275390625,8.4686279296875
5.209999900000001,6.952761650085449,-7.046135425567627,2.207453966140747,43.9605712890625,-4.4708251953125,10.101318359375
5.2299999,6.775590896606445,-7.029376029968262,2.185906171798706,57.586669921875,-12.4969482421875,11.0626220703125
5.249999900000001,6.627150535583496,-6.959944248199463,2.1930887699127197,70.709228515625,-22.2930908203125,11.1083984375
5.2699999,6.562506675720215,-6.797138690948486,2.2457611560821533,80.4443359375,-29.6783447265625,11.322021484375
5.289999900000001,6.598419666290283,-6.5696892738342285,2.3774423599243164,87.58544921875,-34.7747802734375,12.7716064453125
5.3099999,6.71334171295166,-6.291962146759033,2.585737943649292,90.576171875,-36.9415283203125,14.434814453125
5.329999900000001,6.88332986831665,-6.009446144104004,2.8419175148010254,88.5162353515625,-36.0107421875,16.265869140625
5.3499999,7.091625213623047,-5.710171222686768,3.1507694721221924,83.3282470703125,-34.149169921875,18.3258056640625
5.369999900000001,7.3023152351379395,-5.418078422546387,3.4787750244140625,75.225830078125,-28.1982421875,18.61572265625
5.3899999,7.47230339050293,-5.152322292327881,3.7852327823638916,62.652587890625,-14.7705078125,15.8233642578125
5.409999900000001,7.55131196975708,-4.948814868927002,4.02465295791626,47.9888916015625,-0.54931640625,12.3291015625
5.4299999,7.51779317855835,-4.831499099731445,4.165910720825195,35.15625,4.669189453125,9.8114013671875
5.449999900000001,7.38132381439209,-4.802768707275391,4.206612586975098,25.9552001953125,1.5106201171875,6.988525390625
5.4699999,7.194576263427734,-4.81473970413208,4.185064792633057,17.4560546875,-2.0751953125,2.410888671875
5.489999900000001,7.029376029968262,-4.869806289672852,4.146757125854492,8.4991455078125,-1.64794921875,-2.9449462890625
5.5099999,6.8809356689453125,-4.987122058868408,4.091690540313721,0.6866455078125,-0.274658203125,-5.7830810546875
5.529999900000001,6.75883150100708,-5.157110691070557,4.027047157287598,-3.4942626953125,-3.204345703125,-5.2337646484375
5.5499999,6.665457725524902,-5.374982833862305,3.9600095748901367,-4.7607421875,-9.0789794921875,-4.547119140625
5.569999900000001,6.615179061889648,-5.585672378540039,3.912125587463379,-6.65283203125,-10.55908203125,-6.28662109375
5.5899999000000005,6.627150535583496,-5.746084213256836,3.885789394378662,-9.4146728515625,-7.354736328125,-8.1329345703125
5.609999900000001,6.687005519866943,-5.880159378051758,3.8498764038085938,-10.19287109375,-4.852294921875,-7.32421875
5.6299999000000005,6.761225700378418,-5.990292549133301,3.778050184249878,-7.75146484375,-6.53076171875,-4.6844482421875
5.6499999,6.828263282775879,-6.071695327758789,3.6559460163116455,-2.9449462890625,-10.650634765625,-2.655029296875
5.6699999000000005,6.904877662658691,-6.112396717071533,3.536235809326172,2.9144287109375,-14.373779296875,-2.471923828125
5.6899999,7.010222434997559,-6.112396717071533,3.4356794357299805,8.5601806640625,-14.678955078125,-3.0517578125
5.709999900000001,7.1490864753723145,-6.074089527130127,3.3901896476745605,12.8173828125,-12.664794921875,-1.9989013671875
5.7299999,7.321468830108643,-5.990292549133301,3.4141316413879395,14.801025390625,-9.2620849609375,0.4119873046875
5.749999900000001,7.486668586730957,-5.882553577423096,3.490746021270752,15.31982421875,-3.7841796875,2.8533935546875
5.7699999,7.632715225219727,-5.762843608856201,3.584120035171509,13.36669921875,1.495361328125,5.5694580078125
5.789999900000001,7.690176010131836,-5.604825973510742,3.6966474056243896,8.1939697265625,4.791259765625,8.8043212890625
5.8099999,7.649474620819092,-5.489904403686523,3.7469255924224854,14.373779296875,3.8299560546875,14.129638671875
5.829999900000001,7.50582218170166,-5.363011837005615,3.7708675861358643,15.68603515625,4.1656494140625,16.357421875
5.8499999,7.299921035766602,-5.2911858558654785,3.7229835987091064,11.3677978515625,6.500244140625,14.16015625
5.869999900000001,7.053318023681641,-5.260061264038086,3.6535518169403076,-1.7242431640625,9.3994140625,10.7574462890625
5.8899999,6.828263282775879,-5.274426460266113,3.600879430770874,1.007080078125,3.7384033203125,11.65771484375
5.909999900000001,6.655880928039551,-5.341464042663574,3.5625722408294678,26.4434814453125,-8.6822509765625,15.7318115234375
5.9299999,6.574477672576904,-5.420472621917725,3.600879430770874,30.21240234375,-12.87841796875,13.1378173828125
5.949999900000001,6.588842868804932,-5.5329999923706055,3.6774938106536865,21.6522216796875,-9.3994140625,10.5743408203125
5.9699999,6.675034523010254,-5.66228723526001,3.7708675861358643,16.41845703125,-4.39453125,11.199951171875
5.989999900000001,6.775590896606445,-5.805939197540283,3.8738183975219727,15.4266357421875,-3.3111572265625,11.90185546875
6.0099999,6.864176273345947,-5.904101371765137,3.971980571746826,15.6097412109375,-4.3487548828125,10.8489990234375
6.029999900000001,6.9024834632873535,-5.940014362335205,4.046200752258301,12.39013671875,-3.0059814453125,8.880615234375
6.0499999,6.907271862030029,-5.918466567993164,4.101267337799072,8.5296630859375,-1.6632080078125,7.4462890625
6.069999900000001,6.9024834632873535,-5.851428985595703,4.127603530883789,7.415771484375,-2.6702880859375,6.317138671875
6.0899999000000005,6.8809356689453125,-5.781997203826904,4.141968727111816,6.378173828125,-1.9073486328125,5.157470703125
6.109999900000001,6.868964672088623,-5.717353820800781,4.137180328369141,3.11279296875,1.251220703125,4.8065185546875
6.1299999000000005,6.885724067687988,-5.717353820800781,4.072536945343018,-7.7056884765625,3.753662109375,3.448486328125
6.149999900000001,6.931213855743408,-5.810727596282959,3.9624037742614746,-19.500732421875,4.57763671875,1.9989013671875
6.1699999000000005,6.957550048828125,-5.726930618286133,3.8546648025512695,-14.46533203125,6.2713623046875,5.8135986328125
6.1899999,6.9910688400268555,-5.700594425201416,3.8091750144958496,10.19287109375,-8.1024169921875,21.2554931640625
6.209999900000001,6.94079065322876,-5.501875400543213,3.8786067962646484,24.9176025390625,-19.10400390625,32.4249267578125
6.2299999,6.811503887176514,-5.353435039520264,4.0749311447143555,2.2125244140625,-9.857177734375,29.8614501953125
6.249999900000001,6.619967937469482,-5.331887245178223,4.197035789489746,-14.46533203125,-5.1422119140625,29.815673828125
6.2699999,6.406883716583252,-5.468356609344482,4.230554580688477,-19.3328857421875,-14.1448974609375,33.3404541015625
6.289999900000001,6.251260757446289,-5.69580602645874,4.108449935913086,-14.068603515625,-24.505615234375,33.599853515625
6.3099999,6.169857978820801,-6.007051944732666,3.861847400665283,-6.9122314453125,-22.94921875,28.6865234375
6.329999900000001,6.141127586364746,-6.337451934814453,3.5865142345428467,-0.579833984375,-13.61083984375,22.9644775390625
6.3499999,6.107608318328857,-6.627150535583496,3.361459255218506,13.3056640625,-6.561279296875,16.29638671875
6.369999900000001,6.0405707359313965,-6.861782073974609,3.2130186557769775,20.965576171875,-4.8065185546875,6.3323974609375
6.3899999,5.944802761077881,-6.993463039398193,3.1938650608062744,24.7344970703125,-7.6141357421875,-3.8909912109375
6.409999900000001,5.875370979309082,-7.010222434997559,3.308786630630493,29.1900634765625,-12.4969482421875,-11.16943359375
6.4299999,5.870582580566406,-6.916848659515381,3.5266590118408203,27.557373046875,-15.777587890625,-17.15087890625
6.449999900000001,5.959167957305908,-6.7492547035217285,3.8115692138671875,19.6685791015625,-18.61572265625,-22.9034423828125
6.4699999,6.167463779449463,-6.519411087036133,4.125209331512451,11.932373046875,-21.881103515625,-25.8026123046875
6.489999900000001,6.485892295837402,-6.265625953674316,4.426878929138184,-0.48828125,-16.1285400390625,-24.96337890625
6.5099999,6.876147270202637,-6.011840343475342,4.659116744995117,-14.95361328125,-5.55419921875,-21.17919921875
6.529999900000001,7.230489253997803,-5.791574001312256,4.7405195236206055,-27.2216796875,1.52587890625,-15.472412109375
6.5499999,7.465120792388916,-5.635950565338135,4.630385875701904,-33.447265625,2.1209716796875,-9.27734375
6.569999900000001,7.534552574157715,-5.5329999923706055,4.323928356170654,-35.70556640625,2.4566650390625,-5.7830810546875
6.5899999000000005,7.453149795532227,-5.530605792999268,3.869029998779297,-33.1268310546875,2.50244140625,-3.47900390625
6.609999900000001,7.295132637023926,-5.583278179168701,3.3901896476745605,-27.2064208984375,2.0294189453125,-0.91552734375
6.6299999000000005,7.105990409851074,-5.729324817657471,2.942473888397217,-19.287109375,3.2806396484375,2.5787353515625
6.649999900000001,6.916848659515381,-5.95677375793457,2.564189910888672,-9.979248046875,5.9051513671875,6.6070556640625
6.6699999000000005,6.7708024978637695,-6.222530364990234,2.315192937850952,3.1280517578125,3.814697265625,11.2762451171875
6.6899999,6.682217121124268,-6.476315498352051,2.1763293743133545,17.5933837890625,0.4425048828125,16.2811279296875
6.709999900000001,6.643909931182861,-6.67982292175293,2.1571757793426514,29.4342041015625,-1.373291015625,21.97265625
6.7299999,6.6630635261535645,-6.789956092834473,2.2649147510528564,39.642333984375,-4.9896240234375,28.564453125
6.749999900000001,6.718130111694336,-6.794744491577148,2.454056739807129,47.088623046875,-3.8909912109375,32.135009765625
6.7699999,6.785167694091797,-6.703764915466309,2.741360902786255,51.2237548828125,1.708984375,32.28759765625
6.789999900000001,6.835445880889893,-6.550535678863525,3.0550012588500977,52.9022216796875,5.706787109375,32.16552734375
6.8099999,6.833051681518555,-6.370970726013184,3.378218650817871,53.497314453125,2.655029296875,34.1339111328125
6.829999900000001,6.782773494720459,-6.189011573791504,3.687070608139038,52.276611328125,-4.8065185546875,35.552978515625
6.8499999,6.696582317352295,-6.042964935302734,3.9624037742614746,47.6531982421875,-4.364013671875,33.0047607421875
6.869999900000001,6.576871871948242,-5.92325496673584,4.235342979431152,40.1763916015625,4.0283203125,28.594970703125
6.8899999,6.418854713439941,-5.832275390625,4.489128112792969,30.6854248046875,11.688232421875,24.749755859375
6.909999900000001,6.212953567504883,-5.779603004455566,4.697423934936523,20.538330078125,13.8397216796875,20.5078125
6.9299999,5.987898349761963,-5.762843608856201,4.829104900360107,11.993408203125,10.7421875,15.3656005859375
6.949999900000001,5.779603004455566,-5.796362400054932,4.908113479614258,6.072998046875,6.5155029296875,11.23046875
6.9699999,5.621585369110107,-5.870582580566406,4.924872875213623,0.30517578125,6.2408447265625,9.27734375
6.989999900000001,5.509057998657227,-6.004657745361328,4.910507678985596,-5.462646484375,5.6915283203125,8.2244873046875
7.0099999,5.432443618774414,-6.167463779449463,4.881777286529541,-7.5225830078125,0.8087158203125,6.8206787109375
7.029999900000001,5.4013190269470215,-6.332663536071777,4.843470096588135,-6.5765380859375,-3.7384033203125,4.8370361328125
7.0499999,5.427655220031738,-6.485892295837402,4.797980308532715,-5.8441162109375,-3.6163330078125,3.0364990234375
7.069999900000001,5.4875102043151855,-6.615179061889648,4.738125324249268,-5.4779052734375,-0.54931640625,2.3040771484375
7.0899999000000005,5.571307182312012,-6.7061591148376465,4.668693542480469,-2.7008056640625,-0.091552734375,2.777099609375
7.109999900000001,5.65031623840332,-6.739677906036377,4.584896087646484,1.6632080078125,-2.410888671875,3.5552978515625
7.1299999000000005,5.722142219543457,-6.71334171295166,4.508281707763672,3.875732421875,-4.150390625,3.4332275390625
7.149999900000001,5.7987565994262695,-6.636727333068848,4.4532151222229,3.5552978515625,-3.8604736328125,2.9449462890625
7.1699999000000005,5.87776517868042,-6.550535678863525,4.422090530395508,2.9754638671875,-1.708984375,2.9754638671875
7.1899999,5.95677375793457,-6.478709697723389,4.405331134796143,2.9449462890625,0.48828125,3.8604736328125
7.209999900000001,6.00226354598999,-6.44279670715332,4.395754337310791,2.777099609375,1.4190673828125,5.0506591796875
7.2299999,6.016628742218018,-6.418854713439941,4.3861775398254395,2.2735595703125,1.251220703125,5.43212890625
7.249999900000001,5.999869346618652,-6.404489517211914,4.378994941711426,1.3885498046875,2.01416015625,4.6844482421875
7.2699999,5.961562156677246,-6.404489517211914,4.3861775398254395,0.091552734375,4.4708251953125,3.997802734375
7.289999900000001,5.913678169250488,-6.421248912811279,4.3861775398254395,-1.4190673828125,6.53076171875,4.2877197265625
7.3099999,5.849034786224365,-6.4595561027526855,4.381389141082764,-2.2125244140625,5.0506591796875,4.9896240234375
7.329999900000001,5.78678560256958,-6.521805286407471,4.383783340454102,-1.9378662109375,1.4495849609375,4.9591064453125
7.3499999,5.731719017028809,-6.593631267547607,4.390965938568115,-1.373291015625,1.6021728515625,3.9825439453125
7.369999900000001,5.693411827087402,-6.665457725524902,4.405331134796143,-1.861572265625,5.1422119140625,3.23486328125
7.3899999,5.6670756340026855,-6.72531270980835,4.426878929138184,-2.5482177734375,6.317138671875,2.9754638671875
7.409999900000001,5.643133640289307,-6.7708024978637695,4.446032524108887,-1.8310546875,3.7841796875,2.4566650390625
7.4299999,5.626373767852783,-6.780379295349121,4.467580318450928,-0.79345703125,1.434326171875,1.6021728515625
7.449999900000001,5.616796970367432,-6.761225700378418,4.503493309020996,-1.3275146484375,0.8544921875,0.8544921875
7.4699999,5.6191911697387695,-6.734889507293701,4.54419469833374,-2.3651123046875,0.2899169921875,1.129150390625
7.489999900000001,5.626373767852783,-6.701370716094971,4.58968448638916,-2.655029296875,-0.885009765625,1.6937255859375
7.5099999,5.614402770996094,-6.675034523010254,4.606443881988525,-3.2196044921875,-0.8087158203125,1.312255859375
7.529999900000001,5.609614372253418,-6.658275127410889,4.5825018882751465,-3.753662109375,-2.2735595703125,0.701904296875
7.5499999,5.614402770996094,-6.646304130554199,4.501099109649658,-1.4801025390625,-6.8511962890625,0.9918212890625
7.569999900000001,5.65031623840332,-6.648698329925537,4.3861775398254395,2.349853515625,-8.0108642578125,1.8463134765625
7.5899999000000005,5.705382823944092,-6.67982292175293,4.278438568115234,4.7454833984375,-3.9520263671875,3.2196044921875
7.609999900000001,5.765237808227539,-6.703764915466309,4.230554580688477,6.5155029296875,-1.312255859375,5.0048828125
7.6299999000000005,5.803544998168945,-6.703764915466309,4.2544965744018555,6.8206787109375,-2.3345947265625,7.01904296875
7.649999900000001,5.813121795654297,-6.6630635261535645,4.335899353027344,5.4473876953125,-3.4027099609375,8.8043212890625
7.6699999000000005,5.793968200683594,-6.600813865661621,4.410119533538818,3.6468505859375,-1.617431640625,9.979248046875
7.6899999,5.75326681137085,-6.560112476348877,4.438849925994873,3.3111572265625,0.0152587890625,10.894775390625
7.709999900000001,5.688623428344727,-6.552929878234863,4.422090530395508,4.5623779296875,-2.2430419921875,11.77978515625
7.7299999,5.626373767852783,-6.564900875091553,4.388571739196777,5.31005859375,-5.0506591796875,11.444091796875
7.749999900000001,5.544970989227295,-6.593631267547607,4.364629745483398,4.058837890625,-2.899169921875,9.82666015625
7.7699999,5.485116004943848,-6.629544734954834,4.359841346740723,2.8076171875,1.6326904296875,8.026123046875
7.789999900000001,5.370194435119629,-6.737283706665039,4.378994941711426,4.5013427734375,5.950927734375,5.859375
7.8099999,5.324704647064209,-6.785167694091797,4.412513732910156,4.547119140625,6.0272216796875,4.7454833984375
7.829999900000001,5.298368453979492,-6.821080684661865,4.436455726623535,3.5552978515625,6.1492919921875,4.150390625
7.8499999,5.307945251464844,-6.856993675231934,4.462791919708252,3.2806396484375,3.448486328125,4.33349609375
7.869999900000001,5.336675643920898,-6.919242858886719,4.474762916564941,4.8828125,-1.190185546875,4.913330078125
7.8899999,5.377377033233643,-6.971915245056152,4.4939165115356445,5.4168701171875,-3.9215087890625,5.950927734375
7.909999900000001,5.408501625061035,-6.971915245056152,4.55616569519043,3.8299560546875,-5.1422119140625,6.1798095703125
7.9299999,5.410895824432373,-6.912060260772705,4.63517427444458,-0.579833984375,-2.349853515625,4.1961669921875
7.949999900000001,5.398924827575684,-6.813898086547852,4.707000732421875,-3.9520263671875,0.4119873046875,1.007080078125
7.9699999,5.377377033233643,-6.732495307922363,4.750096321105957,-5.0811767578125,1.4801025390625,-1.15966796875
7.989999900000001,5.351040840148926,-6.710947513580322,4.730942726135254,-6.28662109375,0.946044921875,-1.4495849609375
8.0099999,5.351040840148926,-6.746860504150391,4.656722068786621,-6.4849853515625,-1.7242431640625,-0.3509521484375
8.0299999,5.377377033233643,-6.806715488433838,4.5394062995910645,-4.241943359375,-3.3721923828125,0.91552734375
8.049999900000001,5.439626216888428,-6.8593878746032715,4.4077253341674805,-0.9765625,-1.6326904296875,1.6326904296875
8.069999900000001,5.506663799285889,-6.900089263916016,4.302380561828613,1.6021728515625,1.7852783203125,2.410888671875
8.0899999,5.566518783569336,-6.936002254486084,4.228160381317139,3.35693359375,4.150390625,3.753662109375
8.1099999,5.588066577911377,-6.976703643798828,4.199429988861084,6.500244140625,4.364013671875,5.615234375
8.129999900000001,5.571307182312012,-7.01979923248291,4.211400985717773,9.8876953125,3.4637451171875,6.866455078125
8.149999900000001,5.518634796142578,-7.029376029968262,4.2951979637146,11.41357421875,3.0364990234375,6.4849853515625
8.1699999,5.406107425689697,-6.971915245056152,4.477157115936279,10.009765625,3.692626953125,4.547119140625
8.1899999,5.284003257751465,-6.900089263916016,4.627991676330566,4.1656494140625,2.8076171875,2.50244140625
8.2099999,5.169081687927246,-6.806715488433838,4.771644115447998,1.7852783203125,-3.2806396484375,1.739501953125
8.229999900000001,5.078101634979248,-6.744466304779053,4.829104900360107,2.8839111328125,-7.2021484375,0.6561279296875
8.2499999,5.0254292488098145,-6.730101108551025,4.817133903503418,0.0762939453125,-7.2174072265625,-2.838134765625
8.2699999,5.0014872550964355,-6.746860504150391,4.793191909790039,-3.326416015625,-8.270263671875,-6.622314453125
8.2899999,4.99669885635376,-6.813898086547852,4.757278919219971,-4.302978515625,-10.833740234375,-10.009765625
8.309999900000001,5.023035049438477,-6.9024834632873535,4.685452938079834,-3.4027099609375,-11.53564453125,-12.87841796875
8.3299999,5.078101634979248,-6.9910688400268555,4.592078685760498,-1.89208984375,-10.1318359375,-15.5029296875
8.3499999,5.142745018005371,-7.048529624938965,4.486733913421631,-0.1678466796875,-9.033203125,-17.88330078125
8.3699999,5.236119270324707,-7.058106422424316,4.378994941711426,3.4332275390625,-12.298583984375,-19.4091796875
8.389999900000001,5.410895824432373,-7.038952827453613,4.2760443687438965,8.087158203125,-16.7388916015625,-19.1802978515625
8.4099999,5.664681434631348,-7.005434036254883,4.19224739074707,12.603759765625,-14.8468017578125,-15.44189453125
8.4299999,5.9735331535339355,-6.931213855743408,4.144362926483154,16.632080078125,-8.575439453125,-8.3160400390625
8.4499999,6.248866558074951,-6.828263282775879,4.122815132141113,20.0958251953125,-4.180908203125,-1.64794921875
8.469999900000001,6.390124320983887,-6.675034523010254,4.132391929626465,23.92578125,-1.7242431640625,2.3193359375
8.4899999,6.378153324127197,-6.48828649520874,4.156333923339844,27.0233154296875,1.2664794921875,4.8370361328125
8.5099999,6.2392897605896,-6.311115741729736,4.20421838760376,28.961181640625,2.6702880859375,6.4849853515625
8.5299999,6.054935932159424,-6.169857978820801,4.2951979637146,30.09033203125,0.8697509765625,7.080078125
8.549999900000001,5.856217384338379,-6.0597243309021,4.4292731285095215,29.4647216796875,1.1444091796875,6.5460205078125
8.569999900000001,5.681440830230713,-5.978321552276611,4.584896087646484,26.9927978515625,3.2196044921875,5.706787109375
8.5899999,5.556941986083984,-5.92325496673584,4.733336925506592,24.505615234375,1.2664794921875,5.0048828125
8.6099999,5.509057998657227,-5.8873419761657715,4.869806289672852,23.7579345703125,-2.1209716796875,5.218505859375
8.629999900000001,5.525817394256592,-5.861005783081055,5.015852451324463,22.6898193359375,-1.251220703125,6.77490234375
8.649999900000001,5.56173038482666,-5.825092792510986,5.185841083526611,17.4560546875,4.1046142578125,8.880615234375
8.6699999,5.590460777282715,-5.767632007598877,5.386953830718994,10.1470947265625,6.4544677734375,9.1705322265625
8.6899999,5.556941986083984,-5.688623428344727,5.564124584197998,3.9520263671875,6.04248046875,8.0413818359375
8.709999900000001,5.492298603057861,-5.626373767852783,5.693411827087402,-1.434326171875,4.302978515625,7.4310302734375
8.729999900000001,5.451597213745117,-5.612008571624756,5.7556610107421875,-6.6680908203125,0.9307861328125,8.148193359375
8.7499999,5.458779811859131,-5.679046630859375,5.748478412628174,-11.3677978515625,-1.129150390625,9.674072265625
8.7699999,5.51624059677124,-5.868188381195068,5.623979568481445,-13.458251953125,-0.640869140625,11.962890625
8.7899999,5.616796970367432,-6.160281181335449,5.403713226318359,-9.27734375,-3.3416748046875,16.6778564453125
8.809999900000001,5.705382823944092,-6.481103897094727,5.140350818634033,-0.030517578125,-6.8359375,22.39990234375
8.8299999,5.724536418914795,-6.737283706665039,4.896142482757568,6.7291259765625,-1.9378662109375,23.3001708984375
8.8499999,5.628767967224121,-6.833051681518555,4.764461517333984,9.7198486328125,5.92041015625,18.1884765625
8.8699999,5.451597213745117,-6.806715488433838,4.707000732421875,12.420654296875,6.4849853515625,11.8255615234375
8.889999900000001,5.238513469696045,-6.672640323638916,4.7405195236206055,16.0675048828125,-0.91552734375,9.5062255859375
8.9099999,5.0900726318359375,-6.5265936851501465,4.819528102874756,16.7694091796875,-5.8441162109375,9.063720703125
8.9299999,5.051765441894531,-6.3949127197265625,4.982333660125732,12.847900390625,-2.62451171875,8.2855224609375
8.9499999,5.085284233093262,-6.277596950531006,5.171475887298584,7.0343017578125,4.2266845703125,8.1939697265625
8.969999900000001,5.130774021148682,-6.232107162475586,5.3127336502075195,2.3956298828125,4.7454833984375,9.09423828125
8.9899999,5.161899089813232,-6.258443355560303,5.3797712326049805,2.01416015625,-1.953125,9.6435546875
9.0099999,5.154716491699219,-6.342240333557129,5.3797712326049805,3.0670166015625,-5.2032470703125,8.0718994140625
9.0299999,5.147533416748047,-6.466738700866699,5.327098846435547,2.166748046875,-2.8228759765625,6.134033203125
9.049999900000001,5.147533416748047,-6.586448669433594,5.274426460266113,0.67138671875,-3.997802734375,6.4239501953125
9.069999900000001,5.1595048904418945,-6.675034523010254,5.224148273468018,1.434326171875,-8.8043212890625,7.4920654296875
9.0899999,5.171475887298584,-6.720524311065674,5.178658485412598,2.5482177734375,-9.368896484375,5.828857421875
9.1099999,5.183446884155273,-6.722918510437012,5.154716491699219,1.617431640625,-5.2490234375,3.082275390625
9.129999900000001,5.195417881011963,-6.689399719238281,5.154716491699219,0.7171630859375,-3.387451171875,1.64794921875
9.149999900000001,5.212177276611328,-6.627150535583496,5.166687488555908,0.946044921875,-4.2724609375,1.4190673828125
9.1699999,5.228936672210693,-6.538564682006836,5.202600479125977,0.18310546875,-3.265380859375,0.9307861328125
9.1899999,5.233725070953369,-6.464344501495361,5.212177276611328,-3.2806396484375,0.42724609375,0.152587890625
9.209999900000001,5.224148273468018,-6.402095317840576,5.219359874725342,-5.2947998046875,-1.220703125,0.6866455078125
9.229999900000001,5.2049946784973145,-6.380547523498535,5.20978307723999,-4.547119140625,-6.744384765625,1.8463134765625
9.2499999,5.183446884155273,-6.387730121612549,5.178658485412598,-4.8065185546875,-6.8359375,1.7852783203125
9.2699999,5.169081687927246,-6.414066314697266,5.147533416748047,-7.3089599609375,-2.62451171875,1.190185546875
9.2899999,5.1595048904418945,-6.464344501495361,5.092466831207275,-9.1400146484375,-0.8544921875,1.64794921875
9.309999900000001,5.154716491699219,-6.524199485778809,4.999093055725098,-7.9193115234375,-2.899169921875,2.3956298828125
9.3299999,5.161899089813232,-6.586448669433594,4.898536682128906,-6.04248046875,-4.1656494140625,1.8310546875
9.3499999,5.157110691070557,-6.619967937469482,4.81473970413208,-7.232666015625,-1.0833740234375,0.274658203125
9.3699999,5.161899089813232,-6.627150535583496,4.757278919219971,-9.70458984375,0.9002685546875,-1.6632080078125
9.389999900000001,5.149928092956543,-6.6391215324401855,4.6950297355651855,-10.3912353515625,0.6256103515625,-3.2196044921875
9.4099999,5.161899089813232,-6.682217121124268,4.608838081359863,-8.575439453125,-0.5035400390625,-4.302978515625
9.4299999,5.2049946784973145,-6.718130111694336,4.54419469833374,-7.0953369140625,-0.0762939453125,-5.279541015625
9.4499999,5.30076265335083,-6.7277069091796875,4.522646903991699,-10.6964111328125,2.9449462890625,-6.16455078125
9.469999900000001,5.434837818145752,-6.672640323638916,4.558559894561768,-17.4102783203125,4.8980712890625,-6.4849853515625
9.4899999,5.578489780426025,-6.5481414794921875,4.63517427444458,-23.3306884765625,5.18798828125,-6.4849853515625
9.5099999,5.702988624572754,-6.406883716583252,4.680664539337158,-28.8238525390625,6.3629150390625,-6.7596435546875
9.5299999,5.774814605712891,-6.299144744873047,4.685452938079834,-38.2537841796875,11.53564453125,-6.744384765625
9.549999900000001,5.7987565994262695,-6.246472358703613,4.642356872558594,-48.492431640625,12.8936767578125,-6.7138671875
9.569999900000001,5.796362400054932,-6.260837554931641,4.563348293304443,-59.0362548828125,12.451171875,-7.4310302734375
9.5899999,5.7987565994262695,-6.344634532928467,4.467580318450928,-70.556640625,15.4571533203125,-9.94873046875
9.6099999,5.805939197540283,-6.478709697723389,4.345476150512695,-83.343505859375,21.728515625,-13.3056640625
9.629999900000001,5.801150798797607,-6.653486728668213,4.189853191375732,-95.9320068359375,24.169921875,-15.960693359375
9.649999900000001,5.7772088050842285,-6.8593878746032715,3.993528366088867,-107.086181640625,22.0489501953125,-17.9443359375
9.6699999,5.729324817657471,-7.082048416137695,3.7421371936798096,-115.997314453125,24.4140625,-20.4925537109375
9.6899999,5.66228723526001,-7.304709434509277,3.442862033843994,-122.6806640625,33.660888671875,-23.4527587890625
9.709999900000001,5.595249176025391,-7.4986395835876465,3.098097085952759,-127.8228759765625,42.9229736328125,-26.30615234375
9.729999900000001,5.523423194885254,-7.644686222076416,2.741360902786255,-130.5694580078125,47.943115234375,-30.1513671875
9.7499999,5.442020416259766,-7.752425193786621,2.3702597618103027,-132.4615478515625,52.79541015625,-36.0565185546875
9.7699999,5.348646640777588,-7.829039573669434,2.0015525817871094,-133.4075927734375,56.793212890625,-42.2821044921875
9.7899999,5.272032260894775,-7.893682956695557,1.656787633895874,-131.9580078125,54.962158203125,-46.4630126953125
9.809999900000001,5.245696067810059,-7.94635534286499,1.3311761617660522,-128.7841796875,50.47607421875,-50.0030517578125
9.8299999,5.257667064666748,-8.008605003356934,1.05105459690094,-124.359130859375,48.614501953125,-54.6112060546875
9.8499999,5.343858242034912,-8.044517517089844,0.8259995579719543,-120.4986572265625,49.4384765625,-58.197021484375
9.8699999,5.499481201171875,-8.075642585754395,0.6488286852836609,-118.1488037109375,48.370361328125,-61.1114501953125
9.889999900000001,5.69580602645874,-8.087613105773926,0.49559974670410156,-115.264892578125,45.135498046875,-64.4378662109375
9.9099999,5.9304375648498535,-8.063671112060547,0.35913026332855225,-110.321044921875,42.6788330078125,-66.7877197265625
9.9299999,6.200982570648193,-8.027758598327637,0.23702596127986908,-103.94287109375,43.1365966796875,-68.1915283203125
9.9499999,6.423643112182617,-7.982268333435059,0.10773907601833344,-95.39794921875,42.7398681640625,-67.6727294921875
9.969999900000001,6.586448669433594,-7.924807548522949,-0.026336219161748886,-83.892822265625,35.3546142578125,-64.51416015625
9.9899999,6.701370716094971,-7.85537576675415,-0.14365209639072418,-73.0438232421875,24.505615234375,-60.9588623046875
10.0099999,6.799532890319824,-7.762001991271973,-0.24420857429504395,-67.56591796875,21.1029052734375,-60.089111328125
10.0299999,6.907271862030029,-7.647080421447754,-0.31364041566848755,-59.7076416015625,24.078369140625,-57.6934814453125
10.049999900000001,7.048529624938965,-7.491456985473633,-0.35673606395721436,-49.1943359375,24.7955322265625,-53.1005859375
10.069999900000001,7.189787864685059,-7.2568254470825195,-0.3711012601852417,-38.4521484375,23.193359375,-49.37744140625
10.0899999,7.338228225708008,-6.933608055114746,-0.35673606395721436,-29.1900634765625,25.8636474609375,-49.8504638671875
10.1099999,7.489062786102295,-6.557718276977539,-0.3256114423274994,-20.08056640625,32.318115234375,-53.192138671875
10.129999900000001,7.666234016418457,-6.165069580078125,-0.26815059781074524,-10.498046875,33.477783203125,-54.290771484375
10.149999900000001,7.8529815673828125,-5.822698593139648,-0.19871874153614044,-0.701904296875,30.9600830078125,-52.3223876953125
10.1699999,8.02536392211914,-5.549759387969971,-0.12928688526153564,7.1563720703125,30.364990234375,-49.224853515625
10.1899999,8.20492935180664,-5.327098846435547,-0.026336219161748886,13.6871337890625,28.62548828125,-44.7998046875
10.209999900000001,8.372523307800293,-5.142745018005371,0.07900865375995636,19.561767578125,24.9786376953125,-37.872314453125
10.229999900000001,8.504204750061035,-4.989516258239746,0.16759411990642548,24.810791015625,19.866943359375,-28.0609130859375
10.2499999,8.585607528686523,-4.843470096588135,0.22505496442317963,28.9306640625,14.556884765625,-17.425537109375
10.2699999,8.5903959274292,-4.702212333679199,0.24660277366638184,32.1044921875,10.9710693359375,-9.4757080078125
10.2899999,8.508993148803711,-4.537012100219727,0.22026655077934265,35.5377197265625,8.5601806640625,-4.7760009765625
10.309999900000001,8.391676902770996,-4.352658748626709,0.18914192914962769,39.7186279296875,5.5694580078125,-2.410888671875
10.3299999,8.255207061767578,-4.180276393890381,0.15083470940589905,43.3349609375,5.0811767578125,-0.7781982421875
10.3499999,8.145073890686035,-4.046200752258301,0.1412578970193863,45.3338623046875,5.9814453125,2.25830078125
10.3699999,8.066065788269043,-3.9815573692321777,0.1628057211637497,46.142578125,6.134033203125,7.0343017578125
10.389999900000001,8.015787124633789,-4.003105163574219,0.21308395266532898,46.38671875,6.2255859375,12.4359130859375
10.4099999,7.9846625328063965,-4.094084739685059,0.2753331959247589,46.7529296875,6.2103271484375,17.9443359375
10.4299999,7.95832633972168,-4.2329487800598145,0.3519476354122162,48.4161376953125,4.364013671875,23.0865478515625
10.4499999,7.9176249504089355,-4.398148536682129,0.45010992884635925,51.2847900390625,4.150390625,26.18408203125
10.469999900000001,7.838616371154785,-4.55616569519043,0.5602431893348694,54.8858642578125,6.7596435546875,27.4200439453125
10.4899999,7.723694801330566,-4.685452938079834,0.667982280254364,57.098388671875,2.8076171875,27.9693603515625
10.5099999,7.613561630249023,-4.766855716705322,0.811634361743927,57.2052001953125,-9.521484375,28.106689453125
10.5299999,7.556100368499756,-4.802768707275391,1.0199298858642578,55.145263671875,-14.95361328125,26.7181396484375
10.549999900000001,7.565677165985107,-4.831499099731445,1.3096283674240112,50.1708984375,-4.119873046875,24.688720703125
10.569999900000001,7.615955829620361,-4.900930881500244,1.6376339197158813,43.792724609375,11.627197265625,25.2532958984375
10.5899999,7.654263019561768,-5.018246650695801,1.9608511924743652,38.909912109375,17.02880859375,29.3121337890625
10.6099999,7.654263019561768,-5.1810526847839355,2.2242133617401123,36.1785888671875,13.7786865234375,33.7371826171875
10.629999900000001,7.60637903213501,-5.3582234382629395,2.427720546722412,35.064697265625,10.467529296875,36.2091064453125
10.649999900000001,7.544129371643066,-5.523423194885254,2.5761611461639404,35.7818603515625,5.0201416015625,38.543701171875
10.6699999,7.457938194274902,-5.676652431488037,2.6599581241607666,37.017822265625,-9.002685546875,41.6717529296875
10.6899999,7.378929615020752,-5.805939197540283,2.7030537128448486,36.5142822265625,-28.167724609375,43.5028076171875
10.709999900000001,7.343016624450684,-5.896918773651123,2.75812029838562,33.843994140625,-36.2091064453125,41.473388671875
10.729999900000001,7.400477409362793,-5.992686748504639,2.8850131034851074,28.86962890625,-28.0609130859375,37.0941162109375
10.7499999,7.534552574157715,-6.143521785736084,3.0861260890960693,22.5830078125,-13.85498046875,36.56005859375
10.7699999,7.687781810760498,-6.36378812789917,3.2992098331451416,16.2811279296875,-5.4779052734375,42.1600341796875
10.7899999,7.747636795043945,-6.646304130554199,3.426102638244629,9.4757080078125,-6.439208984375,48.736572265625
10.809999900000001,7.647080421447754,-6.900089263916016,3.421314239501953,4.57763671875,-11.3067626953125,51.2542724609375
10.8299999,7.3669586181640625,-7.070077419281006,3.3039982318878174,3.1585693359375,-12.8021240234375,48.095703125
10.8499999,6.936002254486084,-7.137115478515625,3.114856481552124,3.9215087890625,-7.8125,41.0308837890625
10.8699999,6.428431510925293,-7.146692276000977,2.9089550971984863,5.2337646484375,1.373291015625,32.4554443359375
10.889999900000001,5.899312973022461,-7.139509677886963,2.715024709701538,6.28662109375,10.284423828125,24.1546630859375
10.9099999,5.432443618774414,-7.127538681030273,2.5522189140319824,8.148193359375,15.6097412109375,16.9830322265625
10.9299999,5.0900726318359375,-7.108384609222412,2.432508945465088,11.383056640625,18.707275390625,11.077880859375
10.9499999,4.920084476470947,-7.070077419281006,2.3942017555236816,14.4805908203125,21.087646484375,7.9498291015625
10.969999900000001,4.9368438720703125,-6.9910688400268555,2.4588451385498047,14.923095703125,24.5361328125,8.544921875
10.9899999,5.0876784324646,-6.888118267059326,2.6168625354766846,12.420654296875,29.8614501953125,11.6729736328125
11.0099999,5.3127336502075195,-6.75883150100708,2.8203697204589844,8.880615234375,33.7677001953125,15.625
11.0299999,5.552153587341309,-6.629544734954834,3.0358476638793945,5.218505859375,31.79931640625,19.6990966796875
11.049999900000001,5.781997203826904,-6.519411087036133,3.24414324760437,0.4730224609375,27.8167724609375,23.5443115234375
11.069999900000001,5.9735331535339355,-6.473921298980713,3.450044631958008,-6.011962890625,28.8238525390625,27.191162109375
11.0899999,6.121973514556885,-6.5050458908081055,3.648763418197632,-13.1683349609375,33.5693359375,31.55517578125
11.1099999,6.229712963104248,-6.617573261260986,3.8307228088378906,-19.0887451171875,36.7889404296875,35.919189453125
11.129999900000001,6.270414352416992,-6.799532890319824,3.9671921730041504,-22.8118896484375,35.2325439453125,39.4439697265625
11.149999900000001,6.256049156188965,-7.053318023681641,4.043806552886963,-25.4669189453125,29.8614501953125,42.1905517578125
11.1699999,6.203376770019531,-7.402871608734131,4.05817174911499,-26.67236328125,24.261474609375,43.5791015625
11.1899999,6.0621185302734375,-7.876923561096191,3.9911341667175293,-25.299072265625,19.989013671875,44.097900390625
11.209999900000001,5.851428985595703,-8.446743965148926,3.861847400665283,-21.240234375,16.4794921875,43.9300537109375
11.229999900000001,5.5976433753967285,-9.057265281677246,3.7038300037384033,-15.411376953125,15.533447265625,39.8406982421875
11.2499999,5.341464042663574,-9.627084732055664,3.576937437057495,-7.62939453125,18.280029296875,31.341552734375
11.2699999,5.142745018005371,-10.108319282531738,3.5266590118408203,1.28173828125,20.843505859375,21.5301513671875
11.2899999,5.008669853210449,-10.45547866821289,3.5697548389434814,8.4686279296875,15.4571533203125,13.031005859375
11.309999900000001,4.9152960777282715,-10.678139686584473,3.7038300037384033,11.749267578125,5.0201416015625,8.11767578125
11.3299999,4.795586109161377,-10.747570991516113,3.907337188720703,11.1541748046875,-0.1220703125,6.9580078125
11.3499999,4.6040496826171875,-10.623072624206543,4.14915132522583,8.056640625,3.0670166015625,4.7760009765625
11.3699999,4.32871675491333,-10.316615104675293,4.347870349884033,6.072998046875,9.4451904296875,-4.1656494140625
11.389999900000001,3.9839515686035156,-9.8784761428833,4.436455726623535,8.270263671875,10.8642578125,-17.15087890625
11.4099999,3.622427225112915,-9.404424667358398,4.371812343597412,13.6566162109375,2.62451171875,-26.5045166015625
11.4299999,3.3279404640197754,-8.959102630615234,4.151545524597168,18.06640625,-13.7939453125,-30.4718017578125
11.4499999,3.222595453262329,-8.17380428314209,3.5865142345428467,16.3421630859375,-52.1240234375,-33.9508056640625
11.469999900000001,3.490746021270752,-7.6997528076171875,3.399766445159912,11.6729736328125,-58.5174560546875,-36.3006591796875
11.4899999,3.9384617805480957,-7.1251444816589355,3.308786630630493,5.4931640625,-57.2967529296875,-40.8782958984375
11.5099999,4.477157115936279,-6.478709697723389,3.265691041946411,-1.983642578125,-59.356689453125,-47.637939453125
11.5299999,5.027823448181152,-5.822698593139648,3.2178070545196533,-10.8795166015625,-68.8323974609375,-53.680419921875
11.549999900000001,5.566518783569336,-5.228936672210693,3.1531636714935303,-21.91162109375,-75.714111328125,-57.2509765625
11.569999900000001,6.090848922729492,-4.754884719848633,3.090914487838745,-34.637451171875,-66.7724609375,-58.0902099609375
11.5899999,6.600813865661621,-4.434061527252197,3.0573954582214355,-46.905517578125,-43.5943603515625,-56.15234375
11.6099999,7.074865818023682,-4.278438568115234,3.028665065765381,-54.99267578125,-16.5252685546875,-51.1322021484375
11.629999900000001,7.462726593017578,-4.288015365600586,2.940079689025879,-56.5032958984375,3.5247802734375,-43.4112548828125
11.649999900000001,7.723694801330566,-4.462791919708252,2.7317841053009033,-51.0101318359375,9.58251953125,-33.6151123046875
11.6699999,7.8314337730407715,-4.771644115447998,2.3942017555236816,-40.8782958984375,0.3509521484375,-21.8963623046875
11.6899999,7.8098859786987305,-5.169081687927246,1.9704279899597168,-28.411865234375,-18.585205078125,-8.5906982421875
11.709999900000001,7.687781810760498,-5.602431774139404,1.5131354331970215,-15.3656005859375,-37.506103515625,4.1351318359375
11.729999900000001,7.527369976043701,-6.00226354598999,1.091755986213684,-3.570556640625,-51.513671875,14.46533203125
11.7499999,7.386112213134766,-6.299144744873047,0.7565677165985107,6.40869140625,-58.7615966796875,21.026611328125
11.7699999,7.299921035766602,-6.464344501495361,0.5578489899635315,14.6484375,-56.0760498046875,23.4832763671875
11.7899999,7.266402244567871,-6.4834980964660645,0.5027823448181152,20.538330078125,-43.243408203125,23.1781005859375
11.809999900000001,7.268796443939209,-6.387730121612549,0.5770025849342346,23.8494873046875,-27.9998779296875,22.15576171875
11.8299999,7.271190643310547,-6.222530364990234,0.7398083209991455,26.2298583984375,-18.1884765625,21.4691162109375
11.8499999,7.252037048339844,-6.0405707359313965,0.9385270476341248,28.900146484375,-14.373779296875,21.7742919921875
11.8699999,7.201758861541748,-5.8657941818237305,1.1348515748977661,30.8685302734375,-15.9912109375,24.1546630859375
11.889999900000001,7.134721279144287,-5.724536418914795,1.3263877630233765,31.7535400390625,-23.25439453125,28.6712646484375
11.9099999,7.0317702293396,-5.635950565338135,1.4724340438842773,32.3638916015625,-33.7371826171875,34.5916748046875
11.9299999,6.912060260772705,-5.585672378540039,1.5825673341751099,33.5693359375,-45.34912109375,40.4815673828125
11.9499999,6.7708024978637695,-5.566518783569336,1.659181833267212,35.09521484375,-54.534912109375,44.9066162109375
11.969999900000001,6.631938934326172,-5.547365188598633,1.7573440074920654,36.68212890625,-59.5703125,48.431396484375
11.9899999,6.481103897094727,-5.559336185455322,1.9105730056762695,39.12353515625,-58.7005615234375,52.7496337890625
12.0099999,6.301538944244385,-5.592854976654053,2.0877439975738525,42.8924560546875,-53.2684326171875,59.1583251953125
12.0299999,6.054935932159424,-5.671864032745361,2.2601263523101807,47.821044921875,-54.6112060546875,66.5130615234375
12.049999900000001,5.748478412628174,-5.846640586853027,2.3535003662109375,53.1158447265625,-68.3746337890625,73.6846923828125
12.069999900000001,5.4228668212890625,-6.078877925872803,2.3558945655822754,58.16650390625,-90.14892578125,81.6497802734375
12.0899999,5.166687488555908,-6.382941722869873,2.3104045391082764,63.0645751953125,-110.748291015625,91.0797119140625
12.1099999,4.946420669555664,-6.75883150100708,2.2218191623687744,68.66455078125,-124.725341796875,100.9063720703125
12.129999900000001,4.790797710418701,-7.16584587097168,2.1140801906585693,75.3936767578125,-137.4969482421875,108.7493896484375
12.149999900000001,4.584896087646484,-7.572859764099121,1.9488801956176758,82.489013671875,-153.8238525390625,112.945556640625
12.1699999,4.2975921630859375,-7.975085735321045,1.7262194156646729,91.7816162109375,-170.8984375,114.8223876953125
12.1899999,3.950432777404785,-8.329427719116211,1.5442601442337036,103.0731201171875,-180.60302734375,115.936279296875
12.209999900000001,3.557783842086792,-8.628703117370605,1.4915876388549805,107.6507568359375,-178.28369140625,115.72265625
12.229999900000001,3.098097085952759,-8.918401718139648,1.599326729774475,102.2796630859375,-169.7998046875,117.889404296875
12.2499999,2.580949544906616,-9.184157371520996,1.8339585065841675,91.85791015625,-164.1998291015625,123.748779296875
12.2699999,2.056619167327881,-9.394847869873047,2.1092917919158936,86.2274169921875,-162.0635986328125,129.241943359375
12.289999900000002,1.5945383310317993,-9.57201862335205,2.365471363067627,87.3260498046875,-157.379150390625,131.89697265625
12.309999900000001,1.2665326595306396,-9.715670585632324,2.6144683361053467,84.4879150390625,-146.1334228515625,131.744384765625
12.3299999,1.0414776802062988,-9.909601211547852,2.8850131034851074,80.9783935546875,-131.89697265625,134.613037109375
12.3499999,0.8858546018600464,-10.120290756225586,3.2297780513763428,77.2247314453125,-114.959716796875,138.671875
12.3699999,0.7374141216278076,-10.27591323852539,3.5960910320281982,68.695068359375,-91.461181640625,136.1846923828125
12.389999900000001,0.5147533416748047,-10.299856185913086,3.9600095748901367,58.3648681640625,-71.624755859375,127.9296875
12.4099999,0.2537853717803955,-10.103530883789062,4.273650169372559,45.7000732421875,-61.5234375,116.0430908203125
12.4299999,-0.038307227194309235,-9.782708168029785,4.484339714050293,30.8837890625,-55.48095703125,101.6998291015625
12.4499999,-0.3663128614425659,-9.495404243469238,4.6040496826171875,16.4642333984375,-49.0875244140625,88.470458984375
12.469999900000001,-0.6919242739677429,-9.346963882446289,4.666299343109131,3.5247802734375,-39.398193359375,79.40673828125
12.4899999,-1.0414776802062988,-9.390059471130371,4.675876140594482,-8.6212158203125,-28.4881591796875,73.974609375
12.5099999,-1.4269442558288574,-9.567230224609375,4.584896087646484,-20.6756591796875,-24.35302734375,69.39697265625
12.5299999,-1.821987509727478,-9.773131370544434,4.37420654296875,-28.9306640625,-35.09521484375,63.568115234375
12.549999900000001,-2.1571757793426514,-9.923966407775879,4.039018154144287,-33.447265625,-53.77197265625,56.0760498046875
12.569999900000001,-2.363077163696289,-10.005369186401367,3.6176388263702393,-36.19384765625,-68.359375,47.210693359375
12.5899999,-2.4181437492370605,-10.043676376342773,3.1675288677215576,-38.7420654296875,-76.0345458984375,37.3992919921875
12.6099999,-2.2840683460235596,-10.034099578857422,2.7533318996429443,-42.2821044921875,-76.2939453125,24.6124267578125
12.629999900000001,-1.946485996246338,-10.002974510192871,2.403778553009033,-46.661376953125,-65.91796875,8.9569091796875
12.649999900000001,-1.4700398445129395,-9.986215591430664,2.1356279850006104,-52.1087646484375,-45.562744140625,-5.2337646484375
12.6699999,-0.9409212470054626,-10.029311180114746,1.920149803161621,-58.41064453125,-20.111083984375,-16.0675048828125
12.6899999,-0.5099649429321289,-10.194510459899902,1.6927006244659424,-62.3626708984375,3.3416748046875,-24.0631103515625
12.709999900000001,-0.3016694188117981,-10.486603736877441,1.381454348564148,-62.591552734375,16.998291015625,-29.8919677734375
12.729999900000001,-0.3208230137825012,-10.84094524383545,0.9624691009521484,-61.4471435546875,16.7694091796875,-33.69140625
12.7499999,-0.4908113479614258,-11.209651947021484,0.49799394607543945,-58.6090087890625,8.9263916015625,-36.285400390625
12.7699999,-0.7374141216278076,-11.57596492767334,0.043095629662275314,-53.3905029296875,3.3111572265625,-38.4979248046875
12.789999900000002,-1.0319008827209473,-11.930307388305664,-0.3495534360408783,-46.875,-2.7923583984375,-39.581298828125
12.809999900000001,-1.381454348564148,-12.27267837524414,-0.7015010714530945,-38.726806640625,-19.805908203125,-41.3665771484375
12.8299999,-1.7046716213226318,-12.550405502319336,-0.9864110946655273,-25.299072265625,-52.1087646484375,-46.295166015625
12.8499999,-1.9177556037902832,-12.701239585876465,-1.161187767982483,-9.3994140625,-87.615966796875,-54.1534423828125
12.8699999,-1.8267759084701538,-12.69405746459961,-1.0749965906143188,0.0457763671875,-106.231689453125,-61.6912841796875
12.889999900000001,-1.3096283674240112,-12.60307788848877,-0.6727706789970398,-1.2359619140625,-93.231201171875,-65.2618408203125
12.9099999,-0.4908113479614258,-12.492944717407227,-0.026336219161748886,-8.48388671875,-60.5316162109375,-62.6373291015625
12.9299999,0.42377370595932007,-12.370840072631836,0.646434485912323,-16.6473388671875,-32.6995849609375,-56.9000244140625
12.9499999,1.2210428714752197,-12.174515724182129,1.1683704853057861,-24.169921875,-23.3917236328125,-53.9398193359375
12.969999900000001,1.8171991109848022,-11.839327812194824,1.4724340438842773,-31.890869140625,-21.7742919921875,-56.2591552734375
12.9899999,2.164358377456665,-11.420342445373535,1.5873557329177856,-39.825439453125,-11.322021484375,-61.6607666015625
13.0099999,2.2888567447662354,-11.037269592285156,1.5897499322891235,-46.478271484375,8.6212158203125,-66.6961669921875
13.0299999,2.188300371170044,-10.74996566772461,1.4939818382263184,-51.1016845703125,28.01513671875,-72.4029541015625
13.049999900000001,1.8746598958969116,-10.56800651550293,1.2689268589019775,-51.1016845703125,38.57421875,-83.0078125
13.069999900000001,1.4413094520568848,-10.44350814819336,0.8930372595787048,-44.219970703125,36.4532470703125,-97.900390625
13.0899999,1.0534487962722778,-10.35252857208252,0.4213795065879822,-31.7535400390625,21.9573974609375,-112.762451171875
13.1099999,0.8690952062606812,-10.295066833496094,-0.05027823522686958,-18.4478759765625,4.2877197265625,-126.8463134765625
13.129999900000001,1.05105459690094,-10.24239444732666,-0.38307225704193115,-8.1939697265625,-2.5634765625,-141.571044921875
13.149999900000001,1.5945383310317993,-10.160991668701172,-0.507570743560791,0.1068115234375,1.8157958984375,-152.8167724609375
13.1699999,2.406172752380371,-9.976638793945312,-0.4429273009300232,4.9591064453125,7.049560546875,-155.242919921875
13.1899999,3.2752678394317627,-9.643844604492188,-0.2777273952960968,4.3792724609375,2.3956298828125,-151.4434814453125
13.209999900000001,4.132391929626465,-9.126696586608887,-0.06224924325942993,-0.4425048828125,-5.6304931640625,-148.8494873046875
13.229999900000001,4.8602294921875,-8.456320762634277,0.14604631066322327,-6.8359375,-1.46484375,-149.47509765625
13.2499999,5.497087001800537,-7.706935405731201,0.3423708379268646,-13.3056640625,11.3983154296875,-147.8729248046875
13.2699999,6.033388137817383,-6.9910688400268555,0.4884171485900879,-21.4080810546875,22.8271484375,-142.3797607421875
13.289999900000002,6.421248912811279,-6.358999729156494,0.545877993106842,-29.8614501953125,29.23583984375,-135.589599609375
13.309999900000001,6.67982292175293,-5.841852188110352,0.5051765441894531,-35.919189453125,36.31591796875,-129.8980712890625
13.3299999,6.789956092834473,-5.456385612487793,0.33039984107017517,-36.56005859375,46.1578369140625,-124.3896484375
13.3499999,6.809109687805176,-5.140350818634033,0.05027823522686958,-35.9954833984375,49.5147705078125,-120.1629638671875
13.3699999,6.7923502922058105,-4.891354084014893,-0.28730419278144836,-33.2794189453125,44.8455810546875,-118.011474609375
13.389999900000001,6.809109687805176,-4.654327869415283,-0.5913678407669067,-26.67236328125,42.327880859375,-115.6005859375
13.4099999,6.9240312576293945,-4.417302131652832,-0.7996633648872375,-18.5546875,46.3714599609375,-109.649658203125
13.4299999,7.113173484802246,-4.240131378173828,-0.9169792532920837,-11.9171142578125,45.684814453125,-99.5941162109375
13.4499999,7.3023152351379395,-4.151545524597168,-1.0007762908935547,-4.2572021484375,31.1737060546875,-85.784912109375
13.469999900000001,7.465120792388916,-4.0964789390563965,-1.0582371950149536,4.9591064453125,12.3291015625,-71.5789794921875
13.4899999,7.603984832763672,-3.998316764831543,-1.0342950820922852,13.427734375,9.9334716796875,-61.4166259765625
13.5099999,7.706935405731201,-3.780444383621216,-0.9361328482627869,20.233154296875,25.7720947265625,-56.060791015625
13.5299999,7.762001991271973,-3.464409828186035,-0.7852981686592102,26.55029296875,34.66796875,-53.497314453125
13.549999900000001,7.750030994415283,-3.1076738834381104,-0.6727706789970398,33.38623046875,25.390625,-51.8341064453125
13.569999900000001,7.6782050132751465,-2.784456491470337,-0.6536170840263367,41.259765625,11.566162109375,-51.0406494140625
13.5899999,7.625532627105713,-2.5091233253479004,-0.6536170840263367,49.0264892578125,4.150390625,-51.8341064453125
13.6099999,7.649474620819092,-2.2601263523101807,-0.5817909836769104,54.351806640625,3.96728515625,-54.656982421875
13.629999900000001,7.754819393157959,-2.027888774871826,-0.4165911078453064,57.0526123046875,7.0648193359375,-58.5784912109375
13.649999900000001,7.9415669441223145,-1.8363527059555054,-0.18914192914962769,57.55615234375,7.4615478515625,-61.0198974609375
13.6699999,8.166622161865234,-1.6855180263519287,0.033518824726343155,56.6864013671875,1.983642578125,-60.2569580078125
13.6899999,8.44434928894043,-1.5729905366897583,0.24181437492370605,54.62646484375,-5.096435546875,-58.746337890625
13.709999900000001,8.757989883422852,-1.4772224426269531,0.4189853072166443,52.1392822265625,-4.180908203125,-57.861328125
13.729999900000001,9.131484985351562,-1.3934253454208374,0.5793967843055725,49.6826171875,1.0528564453125,-55.328369140625
13.7499999,9.50737476348877,-1.359906554222107,0.6584054827690125,47.4395751953125,-1.0833740234375,-47.36328125
13.7699999,9.818621635437012,-1.3742717504501343,0.6344634294509888,45.4864501953125,-14.739990234375,-34.0423583984375
13.789999900000002,10.036493301391602,-1.4221558570861816,0.507570743560791,44.6624755859375,-26.7486572265625,-21.6522216796875
13.809999900000001,10.122684478759766,-1.4460978507995605,0.3232172429561615,45.501708984375,-25.5279541015625,-14.58740234375
13.8299999,10.103530883789062,-1.403002142906189,0.14844051003456116,47.2259521484375,-19.1192626953125,-11.5203857421875
13.8499999,9.99339771270752,-1.3215993642807007,-0.026336219161748886,48.5992431640625,-17.5933837890625,-9.796142578125
13.8699999,9.861717224121094,-1.2186486721038818,-0.14844051003456116,50.23193359375,-19.9127197265625,-8.087158203125
13.889999900000001,9.742006301879883,-1.1252747774124146,-0.22744916379451752,52.0172119140625,-17.88330078125,-7.293701171875
13.9099999,9.68694019317627,-1.039083480834961,-0.23942017555236816,52.459716796875,-14.4500732421875,-6.9580078125
13.9299999,9.720458984375,-0.9744400978088379,-0.1628057211637497,51.08642578125,-17.1661376953125,-5.9356689453125
13.9499999,9.801861763000488,-0.9481038451194763,-0.040701430290937424,48.6907958984375,-19.0582275390625,-3.9825439453125
13.969999900000001,9.876082420349121,-0.9648633003234863,0.11252748221158981,45.3948974609375,-15.2130126953125,-2.3956298828125
13.9899999,9.931148529052734,-1.0055646896362305,0.2849099934101105,41.1376953125,-8.8348388671875,-3.1280517578125
14.0099999,9.931148529052734,-1.070208191871643,0.4381389021873474,36.285400390625,-3.1585693359375,-7.415771484375
14.0299999,9.852140426635742,-1.1516109704971313,0.545877993106842,31.5399169921875,-3.3416748046875,-13.2904052734375
14.049999900000001,9.725247383117676,-1.2282254695892334,0.629675030708313,26.885986328125,-8.697509765625,-18.890380859375
14.069999900000001,9.567230224609375,-1.292868971824646,0.6919242739677429,21.8963623046875,-9.82666015625,-25.81787109375
14.0899999,9.411606788635254,-1.3431471586227417,0.7445967197418213,15.4876708984375,-7.080078125,-34.0423583984375
14.1099999,9.294290542602539,-1.3623007535934448,0.8092401623725891,7.75146484375,-7.4310302734375,-41.0308837890625
14.129999900000001,9.251194953918457,-1.3551181554794312,0.8810662031173706,0,-6.28662109375,-46.478271484375
14.149999900000001,9.27034854888916,-1.3311761617660522,0.9361328482627869,-6.3934326171875,1.8768310546875,-52.0477294921875
14.1699999,9.337387084960938,-1.278503656387329,0.9576807022094727,-11.23046875,8.6822509765625,-57.0526123046875
14.1899999,9.428366661071777,-1.1851298809051514,0.950498104095459,-14.6331787109375,5.3863525390625,-59.539794921875
14.209999900000001,9.521739959716797,-1.05105459690094,0.8954314589500427,-17.303466796875,-0.7171630859375,-59.539794921875
14.229999900000001,9.591172218322754,-0.871489405632019,0.8044517636299133,-19.8211669921875,-1.89208984375,-58.89892578125
14.2499999,9.658209800720215,-0.6512228846549988,0.6823474764823914,-21.8658447265625,-2.166748046875,-57.7850341796875
14.2699999,9.727641105651855,-0.38546648621559143,0.5506663918495178,-23.5595703125,-7.080078125,-55.8624267578125
14.289999900000002,9.81143856048584,-0.08379705995321274,0.44771572947502136,-23.8189697265625,-9.490966796875,-53.6956787109375
14.309999900000001,9.8784761428833,0.2322375625371933,0.38307225704193115,-21.3470458984375,-0.244140625,-52.18505859375
14.3299999,9.883264541625977,0.5363011956214905,0.3447650372982025,-16.326904296875,8.8348388671875,-49.8199462890625
14.3499999,9.797073364257812,0.8068459630012512,0.28730419278144836,-9.6282958984375,4.0130615234375,-45.440673828125
14.3699999,9.63187313079834,1.039083480834961,0.18914192914962769,-1.251220703125,-8.6517333984375,-40.6036376953125
14.389999900000001,9.437943458557129,1.2521674633026123,0.08858546614646912,8.6669921875,-14.984130859375,-37.5823974609375
14.4099999,9.277531623840332,1.4676456451416016,0.0071826050989329815,19.2108154296875,-11.871337890625,-36.6363525390625
14.4299999,9.162610054016113,1.678335428237915,-0.06224924325942993,29.1748046875,-10.68115234375,-36.1785888671875
14.4499999,9.093177795410156,1.86508309841156,-0.15083470940589905,36.7279052734375,-19.256591796875,-35.1409912109375
14.469999900000001,9.069235801696777,1.9943699836730957,-0.26575639843940735,39.9627685546875,-31.18896484375,-33.050537109375
14.4899999,9.064447402954102,2.0614075660705566,-0.37828385829925537,38.6962890625,-36.9873046875,-30.487060546875
14.5099999,9.050082206726074,2.1045033931732178,-0.45010992884635925,34.4085693359375,-34.7747802734375,-27.740478515625
14.5299999,8.98543930053711,2.1715409755706787,-0.4668693244457245,28.9459228515625,-28.1982421875,-26.9317626953125
14.549999900000001,8.863334655761719,2.3080103397369385,-0.4596867263317108,23.92578125,-19.2413330078125,-30.1361083984375
14.569999900000001,8.722076416015625,2.5234885215759277,-0.4884171485900879,20.721435546875,-11.3067626953125,-37.0941162109375
14.5899999,8.628703117370605,2.7772738933563232,-0.5506663918495178,18.4478759765625,-12.6190185546875,-44.25048828125
14.6099999,8.62391471862793,2.999934673309326,-0.6607996821403503,15.533447265625,-21.30126953125,-47.1649169921875
14.629999900000001,8.681375503540039,3.1747114658355713,-0.7972691655158997,11.2152099609375,-28.717041015625,-45.2880859375
14.649999900000001,8.78193187713623,3.3016040325164795,-0.9481038451194763,6.1492919921875,-30.5023193359375,-41.534423828125
14.6699999,8.904036521911621,3.421314239501953,-1.0989385843276978,1.007080078125,-28.6865234375,-38.5284423828125
14.6899999,9.028534889221191,3.552995204925537,-1.2306196689605713,-3.5247802734375,-23.1781005859375,-36.1785888671875
14.709999900000001,9.150638580322266,3.6822822093963623,-1.357512354850769,-6.561279296875,-12.0391845703125,-32.7301025390625
14.729999900000001,9.239224433898926,3.7852327823638916,-1.4772224426269531,-7.6446533203125,-1.6937255859375,-27.130126953125
14.7499999,9.294290542602539,3.840299606323242,-1.5849615335464478,-6.3018798828125,1.6632080078125,-19.8211669921875
14.7699999,9.32302188873291,3.885789394378662,-1.6879122257232666,-2.5787353515625,2.62451171875,-11.5814208984375
14.789999900000002,9.344569206237793,3.909731388092041,-1.764526605606079,2.3040771484375,5.828857421875,-2.25830078125
14.809999900000001,9.349357604980469,3.950432777404785,-1.8291701078414917,7.4462890625,9.185791015625,9.765625
14.8299999,9.354146003723145,4.0078935623168945,-1.8746598958969116,12.7410888671875,7.1868896484375,23.25439453125
14.8499999,9.32302188873291,4.067748546600342,-1.9345149993896484,17.1051025390625,2.2430419921875,34.5001220703125
14.8699999,9.296685218811035,4.141968727111816,-1.9919757843017578,19.744873046875,-1.77001953125,42.3431396484375
14.889999900000001,9.332598686218262,4.216189384460449,-1.98958158493042,19.5159912109375,-1.2359619140625,47.607421875
14.9099999,9.433155059814453,4.242525577545166,-1.944091796875,15.350341796875,8.1329345703125,52.0172119140625
14.9299999,9.588777542114258,4.185064792633057,-1.8579005002975464,8.72802734375,18.8446044921875,57.525634765625
14.9499999,9.730035781860352,4.017470359802246,-1.7334020137786865,1.5411376953125,21.2554931640625,63.995361328125
14.969999900000001,9.813833236694336,3.7469255924224854,-1.6089035272598267,-4.7454833984375,23.6358642578125,69.000244140625
14.9899999,9.80904483795166,3.421314239501953,-1.50355863571167,-9.4757080078125,30.94482421875,70.25146484375
15.0099999,9.727641105651855,3.0765492916107178,-1.41257905960083,-13.12255859375,34.0423583984375,67.8558349609375
15.0299999,9.569623947143555,2.741360902786255,-1.3455413579940796,-16.4031982421875,30.120849609375,64.788818359375
15.049999900000001,9.117119789123535,2.1499931812286377,-1.1994950771331787,-21.8963623046875,30.0140380859375,60.5010986328125
15.069999900000001,8.901641845703125,1.8914192914962769,-1.0989385843276978,-23.4832763671875,36.6973876953125,56.33544921875
15.0899999,8.734047889709473,1.6687586307525635,-0.993593692779541,-23.9410400390625,37.53662109375,51.7425537109375
15.1099999,8.650250434875488,1.4628572463989258,-0.8882488012313843,-23.284912109375,32.6080322265625,47.8973388671875
15.129999900000001,8.631096839904785,1.2737152576446533,-0.8164227604866028,-22.4761962890625,29.4647216796875,45.3643798828125
15.149999900000001,8.69095230102539,1.115697979927063,-0.7254431247711182,-22.6287841796875,24.7650146484375,44.9066162109375
15.1699999,8.827422142028809,0.9720458984375,-0.5985504388809204,-23.4375,20.233154296875,45.8831787109375
15.1899999,8.987833023071289,0.8427590131759644,-0.45250412821769714,-24.1546630859375,21.1029052734375,47.3480224609375
15.209999900000001,9.153033256530762,0.6967126727104187,-0.31124621629714966,-24.0936279296875,21.3470458984375,49.530029296875
15.229999900000001,9.284713745117188,0.524330198764801,-0.2082955539226532,-23.25439453125,14.6942138671875,52.2308349609375
15.2499999,9.399636268615723,0.31124621629714966,-0.1412578970193863,-22.4151611328125,5.9967041015625,53.7567138671875
15.2699999,9.50737476348877,0.07182604819536209,-0.08619125932455063,-21.8048095703125,4.57763671875,53.955078125
15.289999900000002,9.612719535827637,-0.1843535304069519,-0.026336219161748886,-20.660400390625,10.2081298828125,53.8330078125
15.309999900000001,9.706093788146973,-0.45250412821769714,0.033518824726343155,-18.85986328125,12.20703125,53.6346435546875
15.3299999,9.768342971801758,-0.7350199222564697,0.06464344263076782,-17.1661376953125,6.561279296875,53.253173828125
15.3499999,9.787496566772461,-0.9911994934082031,0.07900865375995636,-16.998291015625,-0.06103515625,51.513671875
15.3699999,9.797073364257812,-1.1899182796478271,0.11971008777618408,-18.2647705078125,2.5634765625,47.3175048828125
15.389999900000001,9.780313491821289,-1.3407529592514038,0.16998831927776337,-20.843505859375,16.7999267578125,42.3126220703125
15.4099999,9.710882186889648,-1.4676456451416016,0.20111294090747833,-23.92578125,27.3590087890625,40.2679443359375
15.4299999,9.593565940856934,-1.6160861253738403,0.19393034279346466,-25.360107421875,24.261474609375,41.717529296875
15.4499999,9.425971984863281,-1.7956513166427612,0.14604631066322327,-24.4903564453125,19.866943359375,42.48046875
15.469999900000001,9.241618156433105,-1.9752163887023926,0.1149216815829277,-22.7508544921875,23.040771484375,40.7257080078125
15.4899999,9.071630477905273,-2.1332337856292725,0.1388636976480484,-20.416259765625,29.571533203125,39.4287109375
15.5099999,8.923190116882324,-2.2697031497955322,0.21308395266532898,-17.333984375,31.5093994140625,40.618896484375
15.5299999,8.80587387084961,-2.408566951751709,0.31842881441116333,-13.97705078125,26.06201171875,43.7469482421875
15.549999900000001,8.71728801727295,-2.5474305152893066,0.4405331015586853,-10.4522705078125,17.913818359375,47.1343994140625
15.569999900000001,8.65982723236084,-2.6839001178741455,0.5817909836769104,-7.568359375,11.322021484375,49.2095947265625
15.5899999,8.62630844116211,-2.801215887069702,0.7374141216278076,-5.8441162109375,6.8817138671875,49.9725341796875
15.6099999,8.592789649963379,-2.9041666984558105,0.8858546018600464,-5.9967041015625,2.4871826171875,50.262451171875
15.629999900000001,8.552088737487793,-3.002328872680664,1.0055646896362305,-7.6751708984375,-2.716064453125,50.201416015625
15.649999900000001,8.492233276367188,-3.1220390796661377,1.072602391242981,-9.674072265625,-6.7901611328125,49.8504638671875
15.6699999,8.415618896484375,-3.2752678394317627,1.0869675874710083,-12.6495361328125,-8.8348388671875,49.224853515625
15.6899999,8.317456245422363,-3.464409828186035,1.0534487962722778,-17.2119140625,-9.1094970703125,48.52294921875
15.709999900000001,8.212111473083496,-3.6822822093963623,0.993593692779541,-22.552490234375,-7.7667236328125,47.7142333984375
15.729999900000001,8.118738174438477,-3.9001545906066895,0.9217676520347595,-27.435302734375,-3.448486328125,46.4630126953125
15.7499999,8.04691219329834,-4.086902141571045,0.8571242094039917,-31.6619873046875,2.86865234375,44.1131591796875
15.7699999,8.02536392211914,-4.252102375030518,0.7852981686592102,-35.1715087890625,8.1634521484375,40.4205322265625
15.789999900000002,8.032546997070312,-4.4077253341674805,0.689530074596405,-38.2843017578125,8.1024169921875,37.9180908203125
15.809999900000001,8.070854187011719,-4.553771495819092,0.6009446382522583,-40.5426025390625,2.410888671875,38.299560546875
15.8299999,8.135497093200684,-4.692635536193848,0.5410895943641663,-40.924072265625,0.091552734375,38.63525390625
15.8499999,8.200140953063965,-4.807557106018066,0.5027823448181152,-40.3289794921875,2.74658203125,36.865234375
15.869999900000002,8.286332130432129,-4.903325080871582,0.4908113479614258,-39.794921875,0.274658203125,34.5916748046875
15.889999900000001,8.374917984008789,-4.989516258239746,0.4644751250743866,-38.6962890625,-8.23974609375,33.233642578125
15.9099999,8.463502883911133,-5.078101634979248,0.4189853072166443,-36.9415283203125,-15.31982421875,32.806396484375
15.9299999,8.552088737487793,-5.173870086669922,0.35673606395721436,-34.881591796875,-15.0299072265625,32.0587158203125
15.9499999,8.614337921142578,-5.231330871582031,0.304063618183136,-34.1339111328125,-12.20703125,31.2957763671875
15.969999900000001,8.671798706054688,-5.303156852722168,0.24181437492370605,-34.820556640625,-9.6435546875,30.792236328125
15.9899999,8.674192428588867,-5.3797712326049805,0.14365209639072418,-35.736083984375,-7.5225830078125,31.6009521484375
16.0099999,8.611943244934082,-5.43723201751709,0.028730420395731926,-35.736083984375,-5.5389404296875,34.0423583984375
16.0299999,8.470685958862305,-5.4659624099731445,-0.10534487664699554,-35.5682373046875,0.640869140625,34.7900390625
16.0499999,8.233659744262695,-5.477933406829834,-0.2777273952960968,-36.163330078125,8.1787109375,33.4625244140625
16.0699999,7.951143741607666,-5.48272180557251,-0.47165772318840027,-35.8123779296875,7.6446533203125,33.4930419921875
16.089999900000002,7.694964408874512,-5.518634796142578,-0.6584054827690125,-33.172607421875,1.251220703125,36.3006591796875
16.109999900000002,7.503427982330322,-5.643133640289307,-0.8236053586006165,-29.5257568359375,0.8697509765625,40.7562255859375
16.1299999,7.3693528175354,-5.832275390625,-0.9241618514060974,-27.8778076171875,1.4801025390625,47.1038818359375
16.1499999,7.333439826965332,-6.071695327758789,-0.9313444495201111,-26.7333984375,-1.5411376953125,54.6417236328125
16.1699999,7.347805023193359,-6.3518171310424805,-0.9002198576927185,-23.101806640625,1.2359619140625,60.1348876953125
16.1899999,7.390900611877441,-6.6391215324401855,-0.8595184087753296,-16.6473388671875,9.063720703125,63.04931640625
16.2099999,7.448361396789551,-6.926425457000732,-0.8403648138046265,-9.490966796875,11.383056640625,64.8651123046875
16.2299999,7.4770917892456055,-7.220912456512451,-0.8762778043746948,-1.8157958984375,7.7972412109375,65.9942626953125
16.249999900000002,7.445967197418213,-7.513004779815674,-0.9720458984375,6.7901611328125,3.72314453125,65.643310546875
16.269999900000002,7.374141216278076,-7.783549785614014,-1.0678139925003052,14.4195556640625,-0.42724609375,63.1256103515625
16.2899999,7.271190643310547,-7.994239330291748,-1.115697979927063,18.3563232421875,-2.044677734375,58.319091796875
16.3099999,7.1490864753723145,-8.145073890686035,-1.1013327836990356,19.989013671875,2.899169921875,51.361083984375
16.3299999,7.015010833740234,-8.226476669311523,-1.0055646896362305,21.6064453125,12.908935546875,43.0908203125
16.3499999,6.873753070831299,-8.245630264282227,-0.8762778043746948,22.5677490234375,22.94921875,33.7066650390625
16.3699999,6.730101108551025,-8.209717750549316,-0.7182605266571045,21.7437744140625,27.2064208984375,23.1781005859375
16.3899999,6.598419666290283,-8.13789176940918,-0.5339069962501526,20.4620361328125,28.7322998046875,12.3748779296875
16.4099999,6.507440090179443,-8.042123794555664,-0.33997663855552673,19.3328857421875,31.7840576171875,3.204345703125
16.429999900000002,6.461950302124023,-7.9415669441223145,-0.12689268589019775,18.06640625,32.470703125,-2.655029296875
16.4499999,6.447585105895996,-7.836222171783447,0.08858546614646912,17.0440673828125,29.693603515625,-5.2490234375
16.4699999,6.452373504638672,-7.7213006019592285,0.2801215946674347,15.44189453125,25.4669189453125,-6.7596435546875
16.4899999,6.45476770401001,-7.608773231506348,0.43095630407333374,13.336181640625,18.5699462890625,-7.7667236328125
16.5099999,6.473921298980713,-7.510610580444336,0.545877993106842,11.7645263671875,8.9569091796875,-7.38525390625
16.5299999,6.493074893951416,-7.4770917892456055,0.6177040338516235,10.6964111328125,3.173828125,-6.5155029296875
16.5499999,6.5050458908081055,-7.484274387359619,0.6607996821403503,8.544921875,4.730224609375,-6.134033203125
16.5699999,6.509834289550781,-7.50582218170166,0.6871358752250671,5.2337646484375,8.331298828125,-6.8817138671875
16.589999900000002,6.485892295837402,-7.508216381072998,0.6943184733390808,2.227783203125,8.697509765625,-9.27734375
16.609999900000002,6.4380083084106445,-7.465120792388916,0.6775590777397156,0.091552734375,5.828857421875,-12.2222900390625
16.6299999,6.3733649253845215,-7.371747016906738,0.6655880808830261,-1.8768310546875,3.082275390625,-14.7857666015625
16.6499999,6.313509941101074,-7.242460250854492,0.6703764796257019,-4.57763671875,3.60107421875,-17.120361328125
16.6699999,6.260837554931641,-7.101202011108398,0.7015010714530945,-7.8125,5.1422119140625,-18.9666748046875
16.6899999,6.234501361846924,-6.962338447570801,0.7469909191131592,-11.1846923828125,3.7689208984375,-18.6920166015625
16.7099999,6.236895561218262,-6.845022678375244,0.7924807667732239,-14.22119140625,1.9683837890625,-16.4947509765625
16.7299999,6.251260757446289,-6.7708024978637695,0.8092401623725891,-16.7388916015625,3.5247802734375,-14.251708984375
16.749999900000002,6.270414352416992,-6.739677906036377,0.8020575642585754,-18.310546875,5.9661865234375,-12.26806640625
16.769999900000002,6.291962146759033,-6.742072105407715,0.790086567401886,-18.951416015625,7.8887939453125,-11.077880859375
16.7899999,6.313509941101074,-6.794744491577148,0.7661445140838623,-18.5546875,11.7340087890625,-10.5133056640625
16.8099999,6.337451934814453,-6.871358871459961,0.7469909191131592,-16.8304443359375,14.312744140625,-9.8114013671875
16.8299999,6.356605529785156,-6.979097843170166,0.7254431247711182,-13.824462890625,12.5885009765625,-9.2926025390625
16.8499999,6.354211330413818,-7.0988078117370605,0.6919242739677429,-9.3841552734375,9.5977783203125,-9.9639892578125
16.8699999,6.332663536071777,-7.189787864685059,0.6607996821403503,-4.7607421875,7.7056884765625,-12.8173828125
16.8899999,6.308721542358398,-7.2352776527404785,0.6320692300796509,-1.678466796875,7.598876953125,-19.012451171875
16.9099999,6.303933143615723,-7.206547260284424,0.6153098344802856,-0.67138671875,7.7056884765625,-26.2603759765625
16.929999900000002,6.361393928527832,-7.129932880401611,0.6033388376235962,-2.3040771484375,6.9122314453125,-31.5704345703125
16.9499999,6.4595561027526855,-7.0557122230529785,0.5722141861915588,-5.401611328125,7.476806640625,-35.09521484375
16.9699999,6.574477672576904,-7.036558628082275,0.5051765441894531,-8.392333984375,10.31494140625,-38.116455078125
16.9899999,6.670246124267578,-7.091625213623047,0.363918662071228,-9.4146728515625,13.153076171875,-41.2750244140625
17.0099999,6.744466304779053,-7.175422668457031,0.19871874153614044,-7.904052734375,13.7939453125,-44.9676513671875
17.0299999,6.833051681518555,-7.254431247711182,0.043095629662275314,-5.43212890625,18.00537109375,-49.1790771484375
17.0499999,6.967126846313477,-7.283161640167236,-0.05027823522686958,-4.2266845703125,26.0467529296875,-50.689697265625
17.0699999,7.141903877258301,-7.264008045196533,-0.07182604819536209,-5.5694580078125,29.72412109375,-46.6766357421875
17.089999900000002,7.319074630737305,-7.196970462799072,-0.040701430290937424,-8.4686279296875,26.8096923828125,-38.0706787109375
17.109999900000002,7.445967197418213,-7.074865818023682,0.004788403399288654,-12.2528076171875,25.177001953125,-30.2276611328125
17.1299999,7.534552574157715,-6.897695064544678,0.05267243832349777,-16.7236328125,30.3802490234375,-27.679443359375
17.1499999,7.630321025848389,-6.687005519866943,0.11252748221158981,-22.186279296875,38.177490234375,-28.7933349609375
17.1699999,7.800309181213379,-6.507440090179443,0.1843535304069519,-30.4412841796875,42.5262451171875,-27.2064208984375
17.1899999,7.989450931549072,-6.421248912811279,0.2346317619085312,-42.1600341796875,41.4886474609375,-18.035888671875
17.2099999,8.17380428314209,-6.392518520355225,0.2849099934101105,-54.8248291015625,34.332275390625,-4.1046142578125
17.2299999,8.305485725402832,-6.325480937957764,0.33758243918418884,-66.4215087890625,28.289794921875,4.5623779296875
17.249999900000002,8.35336971282959,-6.124367713928223,0.3974374830722809,-75.7904052734375,32.8369140625,1.434326171875
17.269999900000002,8.348581314086914,-5.779603004455566,0.5003881454467773,-81.0546875,43.45703125,-10.1776123046875
17.2899999,8.324639320373535,-5.360617637634277,0.6536170840263367,-82.305908203125,53.3599853515625,-22.4151611328125
17.3099999,8.291120529174805,-5.011064052581787,0.8403648138046265,-80.352783203125,61.2945556640625,-31.06689453125
17.3299999,8.288725852966309,-4.809951305389404,1.048660397529602,-78.1707763671875,66.40625,-37.1856689453125
17.3499999,8.365341186523438,-4.73573112487793,1.2713210582733154,-74.6612548828125,68.115234375,-40.2069091796875
17.3699999,8.482656478881836,-4.7620673179626465,1.4484920501708984,-67.6422119140625,67.596435546875,-39.9017333984375
17.3899999,8.616731643676758,-4.824316501617432,1.5729905366897583,-59.5703125,62.43896484375,-35.9954833984375
17.409999900000003,8.712499618530273,-4.917690277099609,1.6041151285171509,-51.971435546875,52.001953125,-28.350830078125
17.429999900000002,8.734047889709473,-5.032611846923828,1.5298948287963867,-45.379638671875,35.3240966796875,-18.3563232421875
17.4499999,8.702922821044922,-5.137956619262695,1.37906014919281,-40.0543212890625,14.2974853515625,-7.9345703125
17.4699999,8.614337921142578,-5.2049946784973145,1.1659762859344482,-36.7279052734375,-2.044677734375,0.7171630859375
17.4899999,8.47786808013916,-5.212177276611328,0.9026140570640564,-35.675048828125,-8.819580078125,7.0037841796875
17.5099999,8.334216117858887,-5.16429328918457,0.646434485912323,-35.7513427734375,-9.124755859375,10.6964111328125
17.5299999,8.197746276855469,-5.118803024291992,0.40222588181495667,-36.19384765625,-1.5411376953125,11.9781494140625
17.5499999,8.094796180725098,-5.106832027435303,0.1843535304069519,-36.9873046875,11.962890625,12.939453125
17.5699999,8.027758598327637,-5.142745018005371,0.014365210197865963,-37.9486083984375,23.162841796875,13.7786865234375
17.589999900000002,7.95832633972168,-5.202600479125977,-0.11252748221158981,-39.48974609375,27.6641845703125,13.7939453125
17.609999900000002,7.869740962982178,-5.238513469696045,-0.17238251864910126,-41.3970947265625,28.045654296875,11.6729736328125
17.6299999,7.754819393157959,-5.22175407409668,-0.16519992053508759,-42.633056640625,31.829833984375,6.4849853515625
17.6499999,7.63989782333374,-5.161899089813232,-0.07661445438861847,-42.510986328125,38.39111328125,-0.3662109375
17.6699999,7.534552574157715,-5.104437828063965,0.05506663769483566,-41.32080078125,43.0145263671875,-4.7607421875
17.6899999,7.46033239364624,-5.092466831207275,0.21308395266532898,-39.306640625,41.656494140625,-3.72314453125
17.7099999,7.412448406219482,-5.142745018005371,0.3711012601852417,-37.1551513671875,35.430908203125,-0.06103515625
17.7299999,7.393294811248779,-5.214571475982666,0.5339069962501526,-35.94970703125,28.350830078125,2.8228759765625
17.749999900000002,7.41484260559082,-5.257667064666748,0.7038952708244324,-36.407470703125,24.59716796875,3.5552978515625
17.769999900000002,7.474697589874268,-5.2696380615234375,0.871489405632019,-38.9404296875,27.0843505859375,2.4566650390625
17.7899999,7.582436561584473,-5.284003257751465,1.0103530883789062,-42.724609375,32.4859619140625,2.471923828125
17.8099999,7.714118003845215,-5.341464042663574,1.072602391242981,-46.2646484375,34.637451171875,5.7830810546875
17.8299999,7.833827972412109,-5.47075080871582,1.0295066833496094,-48.583984375,30.8990478515625,10.5743408203125
17.8499999,7.915230751037598,-5.638344764709473,0.8930372595787048,-49.2706298828125,25.5126953125,12.969970703125
17.8699999,7.95832633972168,-5.803544998168945,0.730231523513794,-49.2706298828125,26.2451171875,11.16943359375
17.8899999,7.99184513092041,-5.954379558563232,0.6200982332229614,-49.25537109375,35.430908203125,7.6751708984375
17.909999900000003,8.070854187011719,-6.102819919586182,0.6248866319656372,-49.468994140625,47.0123291015625,7.1868896484375
17.929999900000002,8.214506149291992,-6.275202751159668,0.7445967197418213,-49.530029296875,52.215576171875,12.0849609375
17.9499999,8.377311706542969,-6.45476770401001,0.9313444495201111,-48.187255859375,47.271728515625,20.9503173828125
17.9699999,8.49941635131836,-6.564900875091553,1.115697979927063,-45.10498046875,38.2232666015625,24.71923828125
17.9899999,8.482656478881836,-6.572083473205566,1.1755530834197998,-40.9698486328125,31.6314697265625,14.495849609375
18.0099999,8.293514251708984,-6.466738700866699,1.0869675874710083,-36.3616943359375,24.7650146484375,-5.828857421875
18.0299999,8.044517517089844,-6.31829833984375,0.8547300100326538,-33.966064453125,16.8609619140625,-24.4140625
18.0499999,7.836222171783447,-6.229712963104248,0.5506663918495178,-34.820556640625,13.2293701171875,-35.0494384765625
18.0699999,7.807491779327393,-6.2416839599609375,0.28730419278144836,-37.750244140625,14.312744140625,-37.445068359375
18.089999900000002,7.979874134063721,-6.296750545501709,0.13168109953403473,-41.168212890625,19.256591796875,-34.6221923828125
18.109999900000002,8.259995460510254,-6.294356346130371,0.08379705995321274,-42.0684814453125,26.3519287109375,-32.5164794921875
18.1299999,8.494627952575684,-6.165069580078125,0.0933738648891449,-38.0859375,29.9530029296875,-34.2254638671875
18.1499999,8.580819129943848,-5.892130374908447,0.10534487664699554,-29.998779296875,25.115966796875,-37.9180908203125
18.1699999,8.473079681396484,-5.537788391113281,0.090979665517807,-21.148681640625,11.77978515625,-41.56494140625
18.1899999,8.245630264282227,-5.154716491699219,0.0694318488240242,-15.0299072265625,-2.5787353515625,-45.47119140625
18.2099999,8.010998725891113,-4.776432514190674,0.09576806426048279,-13.3514404296875,-8.85009765625,-50.079345703125
18.2299999,7.843404769897461,-4.426878929138184,0.19393034279346466,-15.4876708984375,-4.5013427734375,-53.070068359375
18.249999900000002,7.7763671875,-4.132391929626465,0.3423708379268646,-19.439697265625,6.4697265625,-52.6123046875
18.269999900000002,7.781155586242676,-3.8953661918640137,0.4836287498474121,-24.0020751953125,16.204833984375,-50.3997802734375
18.2899999,7.8098859786987305,-3.732560396194458,0.5506663918495178,-27.9083251953125,18.3868408203125,-48.4619140625
18.3099999,7.843404769897461,-3.581725835800171,0.5434837937355042,-31.6009521484375,11.566162109375,-46.3409423828125
18.3299999,7.924807548522949,-3.40216064453125,0.5123591423034668,-35.369873046875,5.035400390625,-45.379638671875
18.3499999,8.063671112060547,-3.201047658920288,0.48602294921875,-37.9791259765625,9.7198486328125,-47.05810546875
18.3699999,8.255207061767578,-3.023876667022705,0.45250412821769714,-39.1387939453125,18.5699462890625,-47.2869873046875
18.3899999,8.463502883911133,-2.873042106628418,0.3902548849582672,-39.1998291015625,16.9525146484375,-43.4722900390625
18.409999900000003,8.686163902282715,-2.7533318996429443,0.28730419278144836,-36.0565185546875,8.026123046875,-39.9627685546875
18.429999900000002,8.844181060791016,-2.676717519760132,0.11013327538967133,-29.2816162109375,2.4566650390625,-40.1458740234375
18.4499999,8.987833023071289,-2.5546131134033203,-0.05746084079146385,-22.064208984375,-6.4697265625,-39.97802734375
18.4699999,9.129091262817383,-2.3989901542663574,-0.1867477297782898,-15.93017578125,-15.655517578125,-39.1387939453125
18.4899999,9.232041358947754,-2.231395959854126,-0.29209262132644653,-11.5814208984375,-14.83154296875,-40.2374267578125
18.5099999,9.306262016296387,-2.0590133666992188,-0.35434186458587646,-9.33837890625,-11.0931396484375,-40.46630859375
18.5299999,9.342175483703613,-1.8986018896102905,-0.3878606855869293,-8.209228515625,-7.75146484375,-40.3900146484375
18.5499999,9.301473617553711,-1.7956513166427612,-0.45010992884635925,-5.6610107421875,-1.6937255859375,-42.3583984375
18.5699999,9.222464561462402,-1.702277421951294,-0.5147533416748047,-0.9613037109375,3.0364990234375,-44.4793701171875
18.589999900000002,9.17936897277832,-1.599326729774475,-0.5410895943641663,5.9814453125,7.7056884765625,-46.4019775390625
18.609999900000002,9.217676162719727,-1.5107412338256836,-0.5434837937355042,14.129638671875,14.739990234375,-47.698974609375
18.6299999,9.658209800720215,-1.3455413579940796,-0.4668693244457245,15.9149169921875,-8.7127685546875,-28.9764404296875
18.6499999,9.99339771270752,-1.2952631711959839,-0.3998316824436188,7.8582763671875,-26.4129638671875,-10.7574462890625
18.6699999,10.290278434753418,-1.2545616626739502,-0.31842881441116333,-3.082275390625,-25.1922607421875,4.4708251953125
18.6899999,10.41956615447998,-1.2042834758758545,-0.2753331959247589,-14.2669677734375,-13.1378173828125,13.702392578125
18.7099999,10.340557098388672,-1.1444283723831177,-0.31364041566848755,-24.261474609375,-8.4381103515625,15.9454345703125
18.7299999,10.070012092590332,-1.0869675874710083,-0.47884035110473633,-32.501220703125,-10.406494140625,9.6435546875
18.749999900000002,9.751583099365234,-1.0438719987869263,-0.7015010714530945,-38.2232666015625,-7.50732421875,-2.532958984375
18.769999900000002,9.53849983215332,-1.0749965906143188,-0.9050082564353943,-43.51806640625,5.1116943359375,-14.068603515625
18.7899999,9.5408935546875,-1.2114660739898682,-1.0031704902648926,-50.537109375,19.2108154296875,-18.73779296875
18.8099999,9.725247383117676,-1.4891934394836426,-1.0319008827209473,-58.3343505859375,26.67236328125,-16.326904296875
18.8299999,10.007762908935547,-1.8938134908676147,-1.0438719987869263,-65.277099609375,24.5208740234375,-8.5296630859375
18.8499999,10.283096313476562,-2.367865562438965,-1.0821791887283325,-71.0906982421875,14.70947265625,2.716064453125
18.8699999,10.441113471984863,-2.851494312286377,-1.173158884048462,-76.904296875,5.6915283203125,15.3045654296875
18.8899999,10.41956615447998,-3.270479440689087,-1.3263877630233765,-82.6416015625,2.86865234375,26.641845703125
18.909999900000003,10.216058731079102,-3.5649664402008057,-1.50355863571167,-86.3800048828125,5.4168701171875,32.5164794921875
18.929999900000002,9.835380554199219,-3.7277719974517822,-1.7142484188079834,-86.3037109375,14.068603515625,29.5867919921875
18.9499999,9.368511199951172,-3.780444383621216,-1.9129672050476074,-82.855224609375,22.9644775390625,20.721435546875
18.9699999,8.923190116882324,-3.7828385829925537,-2.0614075660705566,-78.216552734375,28.38134765625,10.5133056640625
18.9899999,8.583212852478027,-3.7924153804779053,-2.1284453868865967,-74.676513671875,29.815673828125,2.7923583984375
19.0099999,8.427590370178223,-3.825934410095215,-2.070984363555908,-73.7457275390625,28.289794921875,0.030517578125
19.0299999,8.465897560119629,-3.8786067962646484,-1.8746598958969116,-75.7904052734375,29.3121337890625,0.91552734375
19.0499999,8.645462036132812,-3.9384617805480957,-1.5658079385757446,-80.5816650390625,35.247802734375,3.7841796875
19.0699999,8.877699851989746,-3.97916316986084,-1.1899182796478271,-86.73095703125,42.90771484375,7.904052734375
19.089999900000002,9.059659004211426,-4.019864559173584,-0.8307880163192749,-92.498779296875,48.553466796875,11.23046875
19.109999900000002,9.11233139038086,-4.065354347229004,-0.5339069962501526,-97.7020263671875,49.6978759765625,13.2293701171875
19.1299999,9.062053680419922,-4.108449935913086,-0.31124621629714966,-102.508544921875,46.722412109375,14.46533203125
19.1499999,8.939949035644531,-4.177882194519043,-0.1364694982767105,-106.475830078125,44.3878173828125,14.617919921875
19.1699999,8.796297073364258,-4.299986362457275,0.0071826050989329815,-109.649658203125,44.00634765625,15.7928466796875
19.1899999,8.681375503540039,-4.460397720336914,0.14365209639072418,-112.7471923828125,43.426513671875,18.8140869140625
19.2099999,8.571242332458496,-4.6471452713012695,0.2585737705230713,-114.3798828125,46.4019775390625,19.134521484375
19.2299999,8.463502883911133,-4.809951305389404,0.3423708379268646,-114.07470703125,52.276611328125,15.4876708984375
19.249999900000002,8.35097599029541,-4.900930881500244,0.38067805767059326,-111.541748046875,54.3670654296875,11.2152099609375
19.269999900000002,8.248024940490723,-4.898536682128906,0.3878606855869293,-106.7657470703125,50.872802734375,7.0343017578125
19.2899999,8.180987358093262,-4.819528102874756,0.3902548849582672,-100.6317138671875,45.8526611328125,1.8310546875
19.3099999,8.197746276855469,-4.6734819412231445,0.43095630407333374,-94.2230224609375,42.1905517578125,-2.655029296875
19.3299999,8.305485725402832,-4.46518611907959,0.5410895943641663,-87.95166015625,39.520263671875,-4.7760009765625
19.3499999,8.504204750061035,-4.213795185089111,0.7230489253997803,-82.061767578125,38.4063720703125,-6.2103271484375
19.3699999,8.755595207214355,-3.9240965843200684,0.9672574996948242,-75.927734375,39.7491455078125,-8.209228515625
19.3899999,9.01895809173584,-3.60566782951355,1.2425906658172607,-69.3817138671875,43.2891845703125,-10.31494140625
19.409999900000003,9.239224433898926,-3.2800562381744385,1.479616641998291,-62.4542236328125,46.7071533203125,-11.932373046875
19.429999900000002,9.390059471130371,-2.9664158821105957,1.647210717201233,-55.4962158203125,44.4793701171875,-12.298583984375
19.4499999,9.461885452270508,-2.674323320388794,1.7262194156646729,-49.3011474609375,37.750244140625,-11.90185546875
19.4699999,9.48343276977539,-2.408566951751709,1.7357962131500244,-44.00634765625,30.8685302734375,-11.6119384765625
19.4899999,9.488221168518066,-2.1811177730560303,1.7262194156646729,-39.764404296875,27.679443359375,-11.04736328125
19.5099999,9.495404243469238,-2.0183119773864746,1.723825216293335,-37.0941162109375,28.50341796875,-9.21630859375
19.5299999,9.490615844726562,-1.9321208000183105,1.7334020137786865,-35.614013671875,27.9083251953125,-5.7525634765625
19.5499999,9.466673851013184,-1.941697597503662,1.7405846118927002,-34.4390869140625,23.25439453125,-1.2969970703125
19.5699999,9.41639518737793,-2.0446481704711914,1.7334020137786865,-33.203125,17.181396484375,2.7008056640625
19.589999900000002,9.334992408752441,-2.205059766769409,1.6974890232086182,-31.1431884765625,12.5732421875,5.92041015625
19.609999900000002,9.23443603515625,-2.3965959548950195,1.6519991159439087,-28.7628173828125,8.97216796875,8.1329345703125
19.6299999,9.100360870361328,-2.5785553455352783,1.5921441316604614,-25.93994140625,7.6446533203125,8.819580078125
19.6499999,8.954314231872559,-2.7126305103302,1.53707754611969,-22.369384765625,6.77490234375,7.9345703125
19.6699999,8.813055992126465,-2.7964274883270264,1.482010841369629,-18.3563232421875,6.622314453125,4.3182373046875
19.6899999,8.712499618530273,-2.827552318572998,1.4317326545715332,-14.6942138671875,5.523681640625,-0.7476806640625
19.7099999,8.683769226074219,-2.8227639198303223,1.3934253454208374,-11.9781494140625,2.62451171875,-4.791259765625
19.7299999,8.755595207214355,-2.7964274883270264,1.3694833517074585,-10.6201171875,0.701904296875,-7.0037841796875
19.749999900000002,8.920795440673828,-2.7557260990142822,1.3623007535934448,-10.6658935546875,1.1444091796875,-7.904052734375
19.769999900000002,9.14585018157959,-2.7006595134735107,1.3623007535934448,-11.6119384765625,2.3193359375,-7.659912109375
19.7899999,9.385271072387695,-2.63362193107605,1.359906554222107,-12.5732421875,2.3956298828125,-6.317138671875
19.8099999,9.564835548400879,-2.564189910888672,1.3407529592514038,-13.2904052734375,3.23486328125,-5.157470703125
19.8299999,9.653421401977539,-2.499546527862549,1.292868971824646,-13.580322265625,4.425048828125,-4.7607421875
19.8499999,9.643844604492188,-2.449268341064453,1.2114660739898682,-13.61083984375,3.8299560546875,-5.4473876953125
19.8699999,9.555258750915527,-2.4229321479797363,1.1037269830703735,-13.7176513671875,0.9613037109375,-6.195068359375
19.8899999,9.445125579833984,-2.425326347351074,0.9959878921508789,-13.946533203125,-1.190185546875,-6.134033203125
19.909999900000003,9.342175483703613,-2.449268341064453,0.912190854549408,-14.09912109375,1.1138916015625,-6.011962890625
19.929999900000002,9.282320022583008,-2.4875755310058594,0.871489405632019,-14.09912109375,6.134033203125,-6.591796875
19.9499999,9.260771751403809,-2.5282769203186035,0.8643068075180054,-14.16015625,9.46044921875,-7.6751708984375
19.9699999,9.265560150146484,-2.564189910888672,0.871489405632019,-13.8092041015625,8.5296630859375,-8.5601806640625
19.9899999,9.296685218811035,-2.5785553455352783,0.8906430602073669,-13.5498046875,5.157470703125,-8.819580078125
20.0099999,9.337387084960938,-2.5665841102600098,0.9217676520347595,-13.824462890625,3.5400390625,-9.0789794921875
20.0299999,9.38048267364502,-2.516305923461914,0.9840168952941895,-14.1754150390625,5.7220458984375,-9.5062255859375
20.0499999,9.406818389892578,-2.434903144836426,1.0654197931289673,-14.2669677734375,9.5672607421875,-9.918212890625
20.0699999,9.397241592407227,-2.3295583724975586,1.1516109704971313,-13.73291015625,10.7269287109375,-10.2081298828125
20.089999900000002,9.361329078674316,-2.2242133617401123,1.2234370708465576,-12.847900390625,8.0718994140625,-10.2691650390625
20.109999900000002,9.306262016296387,-2.126051187515259,1.2856862545013428,-11.9781494140625,4.2266845703125,-9.735107421875
20.1299999,9.260771751403809,-2.051830768585205,1.3407529592514038,-11.23046875,2.2125244140625,-8.636474609375
20.1499999,9.23682975769043,-2.0039467811584473,1.3982137441635132,-10.8795166015625,2.349853515625,-6.683349609375
20.1699999,9.244012832641602,-1.9991583824157715,1.4508862495422363,-10.9100341796875,2.593994140625,-3.72314453125
