# Time (seconds),Accel_X,Accel_Y,Accel_Z,Gyro_X,Gyro_Y,Gyro_Z
0.0099999,-2.6575639247894287,-10.27591323852539,-0.3902548849582672,-14.312744140625,11.749267578125,7.5225830078125
0.029999900000000003,-2.655169725418091,-10.228029251098633,-0.45489832758903503,-11.5966796875,11.04736328125,3.570556640625
0.0499999,-2.5953147411346436,-10.204087257385254,-0.5195417404174805,-7.9345703125,10.0250244140625,-0.030517578125
0.0699999,-2.4875755310058594,-10.194510459899902,-0.5626373887062073,-3.5552978515625,7.4462890625,-1.3885498046875
0.08999990000000001,-2.389413356781006,-10.192116737365723,-0.5913678407669067,-0.152587890625,4.852294921875,-1.03759765625
0.10999990000000001,-2.3343467712402344,-10.17296314239502,-0.5913678407669067,1.77001953125,3.41796875,-2.7313232421875
0.1299999,-2.322375535964966,-10.14902114868164,-0.5650315880775452,2.86865234375,3.082275390625,-7.14111328125
0.14999990000000002,-2.3702597618103027,-10.105925559997559,-0.5386953949928284,3.60107421875,3.8909912109375,-10.19287109375
0.1699999,-2.434903144836426,-10.053253173828125,-0.5171475410461426,4.7760009765625,4.058837890625,-12.1307373046875
0.1899999,-2.499546527862549,-10.000580787658691,-0.5219359993934631,7.049560546875,4.7607421875,-16.90673828125
0.20999990000000002,-2.5665841102600098,-9.952696800231934,-0.5506663918495178,10.1776123046875,5.18798828125,-22.15576171875
0.2299999,-2.6144683361053467,-9.897629737854004,-0.586579442024231,12.908935546875,1.9073486328125,-25.1007080078125
0.2499999,-2.631227731704712,-9.854534149169922,-0.6057330369949341,14.5111083984375,-2.6397705078125,-28.99169921875
0.2699999,-2.6024973392486572,-9.804255485534668,-0.586579442024231,15.13671875,-2.7313232421875,-34.3017578125
0.28999990000000003,-2.5306711196899414,-9.751583099365234,-0.5147533416748047,14.6484375,1.3885498046875,-38.1622314453125
0.3099999,-2.43011474609375,-9.684545516967773,-0.42616790533065796,12.6495361328125,4.1351318359375,-39.9322509765625
0.3299999,-2.300827741622925,-9.622296333312988,-0.31842881441116333,9.918212890625,1.40380859375,-42.29736328125
0.34999990000000003,-2.145204782485962,-9.586383819580078,-0.21547815203666687,6.40869140625,1.1749267578125,-45.1812744140625
0.3699999,-1.9728221893310547,-9.567230224609375,-0.1173158809542656,1.708984375,8.5601806640625,-45.6695556640625
0.3899999,-1.7956513166427612,-9.586383819580078,-0.031124621629714966,-3.082275390625,17.181396484375,-45.2728271484375
0.40999990000000003,-1.656787633895874,-9.617507934570312,0.016759412363171577,-5.9814453125,21.78955078125,-46.905517578125
0.4299999,-1.580173134803772,-9.679757118225098,0.0071826050989329815,-6.4544677734375,22.88818359375,-50.1556396484375
0.4499999,-1.5610195398330688,-9.75397777557373,-0.0694318488240242,-5.401611328125,22.03369140625,-53.5736083984375
0.4699999,-1.5275006294250488,-9.871294021606445,-0.15562310814857483,-3.2501220703125,17.181396484375,-58.013916015625
0.4899999,-1.4460978507995605,-10.034099578857422,-0.2082955539226532,-1.28173828125,15.4266357421875,-62.5762939453125
0.5099999,-1.3192051649093628,-10.259154319763184,-0.2059013396501541,-0.3814697265625,22.2930908203125,-65.5517578125
0.5299999,-1.1683704853057861,-10.522516250610352,-0.1412578970193863,0.274658203125,27.9083251953125,-69.488525390625
0.5499999,-1.0534487962722778,-10.778696060180664,-0.043095629662275314,2.74658203125,27.679443359375,-77.880859375
0.5699999,-0.9600749015808105,-10.946290016174316,0.05027823522686958,6.103515625,24.0936279296875,-90.667724609375
0.5899998999999999,-0.8044517636299133,-11.022904396057129,0.13407529890537262,9.0179443359375,18.5394287109375,-104.30908203125
0.6099998999999999,-0.4884171485900879,-10.94150161743164,0.2106897532939911,11.65771484375,14.862060546875,-112.823486328125
0.6299999,0.002394201699644327,-10.740388870239258,0.2777273952960968,13.763427734375,15.625,-116.4703369140625
0.6499999,0.5961562395095825,-10.462661743164062,0.33997663855552673,15.3961181640625,16.1590576171875,-118.8812255859375
0.6699999,1.1803414821624756,-10.074800491333008,0.38067805767059326,16.3116455078125,13.6566162109375,-120.6207275390625
0.6899999,1.7070658206939697,-9.622296333312988,0.4189853072166443,16.8304443359375,9.3994140625,-124.542236328125
0.7099999,2.1356279850006104,-9.121908187866211,0.45489832758903503,16.8609619140625,5.2032470703125,-129.5166015625
0.7299998999999999,2.5258827209472656,-8.56645393371582,0.4908113479614258,14.556884765625,1.0528564453125,-130.1422119140625
0.7499998999999999,2.935291290283203,-8.044517517089844,0.5386953949928284,10.986328125,-5.584716796875,-129.0740966796875
0.7699999,3.380612850189209,-7.575253963470459,0.5937620401382446,7.4462890625,-8.026123046875,-126.5716552734375
0.7899999,3.866635799407959,-7.177816867828369,0.629675030708313,3.23486328125,-2.1820068359375,-119.964599609375
0.8099999,4.3622355461120605,-6.888118267059326,0.6416460275650024,-0.91552734375,3.204345703125,-111.0687255859375
0.8299999,4.793191909790039,-6.6846113204956055,0.5961562395095825,-3.4942626953125,4.302978515625,-101.0284423828125
0.8499998999999999,5.099649429321289,-6.54574728012085,0.49320554733276367,-4.0283203125,3.0059814453125,-90.88134765625
0.8699998999999999,5.329493045806885,-6.430825710296631,0.35434186458587646,-2.838134765625,2.197265625,-82.061767578125
0.8899999,5.494692802429199,-6.327875137329102,0.21547815203666687,-0.274658203125,2.1209716796875,-76.171875
0.9099999,5.626373767852783,-6.222530364990234,0.08619125932455063,1.739501953125,-0.457763671875,-68.9849853515625
0.9299999,5.793968200683594,-6.098031520843506,0.016759412363171577,3.326416015625,-5.9967041015625,-59.08203125
0.9499999,5.983109951019287,-6.004657745361328,-0.033518824726343155,5.462646484375,-9.09423828125,-49.49951171875
0.9699998999999999,6.282385349273682,-5.942408561706543,0.004788403399288654,8.1787109375,-19.4244384765625,-35.186767578125
0.9899998999999999,6.691793918609619,-5.858611583709717,0.22744916379451752,6.8817138671875,-32.7301025390625,-10.8489990234375
1.0099999,7.184999465942383,-5.585672378540039,0.6536170840263367,-16.17431640625,-20.8587646484375,15.6707763671875
1.0299999,7.362170219421387,-5.492298603057861,0.9600749015808105,-52.642822265625,3.5552978515625,30.0140380859375
1.0499999,7.204153060913086,-5.305551052093506,1.0773907899856567,-64.849853515625,-15.1824951171875,36.0260009765625
1.0699999,6.57926607131958,-5.406107425689697,0.7350199222564697,-59.4940185546875,-37.9486083984375,28.3966064453125
1.0899999,5.805939197540283,-5.774814605712891,0.038307227194309235,-47.8363037109375,-38.3453369140625,8.544921875
1.1099999,5.274426460266113,-6.275202751159668,-0.7637503147125244,-33.8592529296875,-29.5257568359375,-6.683349609375
1.1299999,5.106832027435303,-6.919242858886719,-1.4867992401123047,-17.9901123046875,-21.2860107421875,-7.5836181640625
1.1499999,5.329493045806885,-7.486668586730957,-2.0614075660705566,-2.8228759765625,-10.5743408203125,-3.84521484375
1.1699998999999999,5.743690013885498,-8.10437297821045,-2.6360161304473877,14.1754150390625,-3.875732421875,-3.5858154296875
1.1899998999999999,6.174646377563477,-8.492233276367188,-2.999934673309326,49.3927001953125,-5.9661865234375,-1.8157958984375
1.2099999,6.677428722381592,-8.722076416015625,-3.1459810733795166,83.892822265625,-12.8936767578125,3.448486328125
1.2299999,7.141903877258301,-8.683769226074219,-2.846705913543701,90.7745361328125,0.823974609375,11.65771484375
1.2499999,7.513004779815674,-8.379706382751465,-2.099714994430542,78.55224609375,31.2957763671875,22.3541259765625
1.2699999,7.615955829620361,-7.908048152923584,-1.1037269830703735,58.2427978515625,48.7518310546875,29.1748046875
1.2899999,7.3669586181640625,-7.402871608734131,-0.14604631066322327,39.5355224609375,49.285888671875,26.0467529296875
1.3099999,6.885724067687988,-6.957550048828125,0.6009446382522583,26.4739990234375,30.3802490234375,16.4337158203125
1.3299999,6.40927791595459,-6.567295074462891,1.2234370708465576,12.664794921875,11.8560791015625,12.1002197265625
1.3499999,6.22731876373291,-6.287173748016357,1.9033904075622559,-18.5699462890625,33.355712890625,17.5018310546875
1.3699999,6.009446144104004,-6.1530985832214355,2.293645143508911,-71.4874267578125,60.028076171875,24.35302734375
1.3899999,5.746084213256836,-6.229712963104248,2.4468741416931152,-96.74072265625,22.5067138671875,28.1829833984375
1.4099999,5.281609058380127,-6.584054470062256,2.1045033931732178,-89.752197265625,-30.2734375,23.101806640625
1.4299998999999999,4.786009311676025,-7.177816867828369,1.235408067703247,-77.2552490234375,-38.4063720703125,6.866455078125
1.4499999,4.551377296447754,-7.9415669441223145,0.1843535304069519,-58.3343505859375,-15.3656005859375,-2.288818359375
1.4699999,4.680664539337158,-8.669404029846191,-0.8164227604866028,-30.8074951171875,-6.744384765625,2.74658203125
1.4899999,5.003881454467773,-9.279925346374512,-1.6974890232086182,-3.143310546875,-0.54931640625,9.5977783203125
1.5099999,5.341464042663574,-9.528923034667969,-2.2194249629974365,21.54541015625,-7.2174072265625,13.8397216796875
1.5299999,5.6670756340026855,-9.44991397857666,-2.3367409706115723,37.90283203125,-27.83203125,18.798828125
1.5499999,5.940014362335205,-9.016563415527344,-2.049436569213867,41.4886474609375,-30.364990234375,25.7415771484375
1.5699999,6.141127586364746,-8.425195693969727,-1.53707754611969,35.82763671875,-15.7623291015625,34.5611572265625
1.5899999,6.224924564361572,-7.826645374298096,-1.0103530883789062,29.1900634765625,-14.5263671875,41.1834716796875
1.6099999,6.1267619132995605,-7.527369976043701,-0.7996633648872375,32.7606201171875,-26.18408203125,47.9888916015625
1.6299999,5.942408561706543,-7.371747016906738,-0.6344634294509888,49.652099609375,-27.374267578125,55.3741455078125
1.6499999,5.69580602645874,-7.4316020011901855,-0.5650315880775452,53.3905029296875,-2.4871826171875,64.1937255859375
1.6699999,5.4228668212890625,-7.47230339050293,-0.2944868206977844,33.87451171875,25.4364013671875,66.162109375
1.6899998999999999,5.094861030578613,-7.438784599304199,0.14365209639072418,9.368896484375,37.53662109375,64.208984375
1.7099999,4.642356872558594,-7.378929615020752,0.5650315880775452,-11.749267578125,37.139892578125,60.211181640625
1.7299999,4.134786128997803,-7.359776020050049,0.8523358106613159,-28.289794921875,30.1055908203125,55.3131103515625
1.7499999,3.687070608139038,-7.424419403076172,0.9385270476341248,-39.8101806640625,22.0184326171875,51.7578125
1.7699999,3.3877954483032227,-7.5848307609558105,0.849941611289978,-46.9970703125,12.237548828125,52.2613525390625
1.7899999,3.2752678394317627,-7.819462776184082,0.6320692300796509,-52.276611328125,3.47900390625,57.7850341796875
1.8099999,3.318363666534424,-8.08282470703125,0.3495534360408783,-54.901123046875,0.54931640625,65.582275390625
1.8299999,3.428496837615967,-8.35336971282959,0.05746084079146385,-54.19921875,0.213623046875,73.486328125
1.8499999,3.485957622528076,-8.609549522399902,-0.2106897532939911,-52.3681640625,-0.6866455078125,82.6416015625
1.8699999,3.4165258407592773,-8.822632789611816,-0.45489832758903503,-50.78125,-5.7373046875,92.8802490234375
1.8899999,3.1675288677215576,-9.011775016784668,-0.6799532771110535,-47.2412109375,-13.73291015625,100.555419921875
1.9099999,2.801215887069702,-9.138668060302734,-0.8619126081466675,-40.52734375,-21.4996337890625,105.46875
1.9299998999999999,2.3942017555236816,-9.23443603515625,-0.9983820915222168,-33.63037109375,-27.1453857421875,110.2447509765625
1.9499999,1.9584569931030273,-9.289502143859863,-1.0869675874710083,-29.1595458984375,-34.60693359375,120.086669921875
1.9699999,1.6041151285171509,-9.282320022583008,-1.1085153818130493,-26.1688232421875,-39.5355224609375,131.072998046875
1.9899999,1.2832920551300049,-9.208099365234375,-1.1109095811843872,-22.0184326171875,-32.7606201171875,135.0555419921875
2.0099999,0.9002198576927185,-9.11233139038086,-1.1252747774124146,-16.2200927734375,-27.0233154296875,138.2598876953125
2.0299999,0.40462008118629456,-8.96389102935791,-1.2042834758758545,-10.6964111328125,-34.4085693359375,147.2320556640625
2.0499999,-0.21547815203666687,-8.827422142028809,-1.335964560508728,-3.2196044921875,-44.8760986328125,147.4151611328125
2.0699999,-0.8786720037460327,-8.7268648147583,-1.4844050407409668,8.60595703125,-41.229248046875,133.5906982421875
2.0899999,-1.5442601442337036,-8.695740699768066,-1.6208745241165161,20.0347900390625,-27.496337890625,125.640869140625
2.1099999,-2.1475989818573,-8.662221908569336,-1.6927006244659424,27.099609375,-27.2674560546875,129.69970703125
2.1299999,-2.695871114730835,-8.69095230102539,-1.6903064250946045,33.0657958984375,-36.62109375,125.18310546875
2.1499999,-3.184288263320923,-8.71489429473877,-1.625662922859192,38.9251708984375,-40.4815673828125,113.6474609375
2.1699999,-3.598485231399536,-8.7268648147583,-1.479616641998291,42.022705078125,-39.6575927734375,111.26708984375
2.1899999,-3.912125587463379,-8.710105895996094,-1.2473790645599365,40.8477783203125,-38.421630859375,113.3270263671875
2.2099999,-4.165910720825195,-8.655038833618164,-0.9768342971801758,36.8804931640625,-33.38623046875,108.0169677734375
2.2299999,-4.314351558685303,-8.554482460021973,-0.6799532771110535,33.1268310546875,-25.93994140625,100.5859375
2.2499999,-4.441244125366211,-8.470685958862305,-0.38307225704193115,28.7322998046875,-16.6015625,105.46875
2.2699999,-4.596867084503174,-8.339004516601562,-0.1388636976480484,20.8587646484375,-7.75146484375,119.4915771484375
2.2899999,-4.869806289672852,-8.20732307434082,0.035913024097681046,13.1072998046875,-5.279541015625,119.56787109375
2.3099999,-5.183446884155273,-8.032546997070312,0.1173158809542656,9.918212890625,-6.561279296875,108.7646484375
2.3299999,-5.578489780426025,-7.908048152923584,0.14365209639072418,9.4451904296875,-6.2103271484375,110.687255859375
2.3499999,-5.987898349761963,-7.759607791900635,0.12689268589019775,7.99560546875,-4.3182373046875,123.3367919921875
2.3699999,-6.931213855743408,-7.5417351722717285,0.1388636976480484,9.3231201171875,-5.615234375,108.6883544921875
2.3899999,-7.453149795532227,-7.376535415649414,0.16759411990642548,11.962890625,-17.15087890625,110.2752685546875
2.4099999,-7.860164165496826,-7.168240070343018,0.23942017555236816,10.3302001953125,-29.510498046875,117.1112060546875
2.4299999,-8.161833763122559,-6.9240312576293945,0.3663128614425659,6.3018798828125,-35.33935546875,112.457275390625
2.4499999,-8.406042098999023,-6.63433313369751,0.5410895943641663,2.4871826171875,-36.3006591796875,105.7586669921875
2.4699999,-8.647856712341309,-6.279991149902344,0.7422025203704834,-2.0294189453125,-39.0777587890625,109.0240478515625
2.4899999,-8.851364135742188,-5.904101371765137,0.9241618514060974,-8.5601806640625,-40.557861328125,109.5733642578125
2.5099999,-9.035717010498047,-5.52821159362793,1.0654197931289673,-14.068603515625,-34.4696044921875,98.69384765625
2.5299999,-9.215282440185547,-5.188235282897949,1.1276689767837524,-20.416259765625,-26.9622802734375,91.97998046875
2.5499999,-9.430760383605957,-4.891354084014893,1.1324573755264282,-26.611328125,-30.5938720703125,97.10693359375
2.5699999,-9.648633003234863,-4.644751071929932,1.1013327836990356,-31.7840576171875,-32.2723388671875,95.4132080078125
2.5899999,-9.8784761428833,-4.455609321594238,1.039083480834961,-36.4532470703125,-16.204833984375,76.7669677734375
2.6099999,-10.06043529510498,-4.323928356170654,0.9552865028381348,-36.041259765625,0.640869140625,63.690185546875
2.6299999,-10.096348762512207,-4.216189384460449,0.8044517636299133,-32.562255859375,4.4097900390625,65.5059814453125
2.6499999,-9.940725326538086,-4.163516521453857,0.6033388376235962,-27.3284912109375,-2.13623046875,71.014404296875
2.6699999,-9.696516990661621,-4.086902141571045,0.395043283700943,-21.1944580078125,-5.340576171875,77.8961181640625
2.6899999,-9.509769439697266,-3.93367338180542,0.21547815203666687,-16.387939453125,-6.7138671875,87.6312255859375
2.7099999,-9.493009567260742,-3.6798880100250244,0.1149216815829277,-13.092041015625,-13.458251953125,87.82958984375
2.7299999,-9.622296333312988,-3.3686418533325195,0.08619125932455063,-8.7127685546875,-20.3094482421875,70.8160400390625
2.7499999,-9.84256362915039,-3.066972494125366,0.12210428714752197,-2.838134765625,-20.2789306640625,54.1534423828125
2.7699999,-10.02452278137207,-2.786850690841675,0.24660277366638184,-0.1220703125,-16.1590576171875,51.0406494140625
2.7899999,-10.096348762512207,-2.5665841102600098,0.44532153010368347,-2.0599365234375,-6.500244140625,49.468994140625
2.8099999,-10.168174743652344,-2.3702597618103027,0.6847416758537292,-6.134033203125,8.453369140625,48.553466796875
2.8299999,-10.369287490844727,-2.1499931812286377,0.9097966551780701,-14.434814453125,13.9923095703125,48.5076904296875
2.8499999,-10.704475402832031,-1.8986018896102905,1.072602391242981,-22.674560546875,4.69970703125,43.1671142578125
2.8699999,-11.05642318725586,-1.6496049165725708,1.1444283723831177,-29.2205810546875,-3.173828125,30.6549072265625
2.8899999,-11.30302619934082,-1.4437036514282227,1.1204863786697388,-32.1502685546875,-0.1373291015625,22.1099853515625
2.9099999,-11.379640579223633,-1.2880805730819702,1.0103530883789062,-31.2652587890625,6.591796875,24.0936279296875
2.9299999,-11.276689529418945,-1.1851298809051514,0.8403648138046265,-26.458740234375,8.9569091796875,26.4434814453125
2.9499999,-11.104307174682617,-1.0965443849563599,0.6320692300796509,-19.5159912109375,7.5836181640625,24.871826171875
2.9699999,-10.951078414916992,-0.9911994934082031,0.45489832758903503,-14.404296875,0.9613037109375,25.1312255859375
2.9899999,-10.860098838806152,-0.8547300100326538,0.33997663855552673,-10.955810546875,-7.2174072265625,24.0631103515625
3.0099999,-10.735600471496582,-0.7326257228851318,0.3016694188117981,-5.950927734375,-12.7410888671875,16.5557861328125
3.0299999,-10.577583312988281,-0.6248866319656372,0.33758243918418884,-0.946044921875,-11.41357421875,11.3067626953125
3.0499999,-10.374075889587402,-0.5291185975074768,0.4141969084739685,1.6937255859375,-3.4942626953125,13.4124755859375
3.0699999,-10.110713958740234,-0.45250412821769714,0.5123591423034668,1.3275146484375,-0.30517578125,16.815185546875
3.0899999,-9.871294021606445,-0.38307225704193115,0.6177040338516235,-0.9918212890625,-3.72314453125,19.0277099609375
3.1099999,-9.744400978088379,-0.2992752194404602,0.6967126727104187,-3.60107421875,-4.180908203125,20.3857421875
3.1299999,-9.68933391571045,-0.24420857429504395,0.7469909191131592,-4.8980712890625,-0.8087158203125,16.9677734375
3.1499999,-9.744400978088379,-0.181959331035614,0.751779317855835,-5.462646484375,3.204345703125,10.5438232421875
3.1699999,-9.804255485534668,-0.14365209639072418,0.7374141216278076,-5.8441162109375,4.180908203125,4.08935546875
3.1899999,-9.864110946655273,-0.11013327538967133,0.7015010714530945,-6.072998046875,5.67626953125,3.387451171875
3.2099999,-9.864110946655273,-0.10055647045373917,0.6560112833976746,-5.6610107421875,5.37109375,8.453369140625
3.2299999,-9.804255485534668,-0.090979665517807,0.6200982332229614,-4.547119140625,-1.434326171875,14.1754150390625
3.2499999,-9.720458984375,-0.07182604819536209,0.5817909836769104,-3.387451171875,-3.41796875,16.7083740234375
3.2699999,-9.677363395690918,-0.040701430290937424,0.5650315880775452,-1.46484375,1.40380859375,18.0816650390625
3.2899999,-10.261548042297363,0.019153613597154617,0.5674257874488831,0.213623046875,0.946044921875,18.280029296875
3.3099999,-10.47702693939209,0.08379705995321274,0.5291185975074768,0.885009765625,-5.401611328125,-1.5411376953125
3.3299999000000002,-11.104307174682617,0.07422025501728058,0.49799394607543945,3.7078857421875,-7.8582763671875,4.669189453125
3.3499999,-11.070788383483887,0.0694318488240242,0.4429273009300232,7.080078125,-10.3759765625,8.880615234375
3.3699999,-10.788272857666016,0.038307227194309235,0.4405331015586853,9.8114013671875,-8.636474609375,6.3629150390625
3.3899999,-10.409989356994629,-0.011971008032560349,0.5219359993934631,11.7645263671875,-8.23974609375,7.904052734375
3.4099999,-9.96945571899414,-0.07182604819536209,0.6177040338516235,9.9029541015625,-14.0228271484375,6.8817138671875
3.4299999,-9.854534149169922,-0.16519992053508759,0.7469909191131592,6.2408447265625,-12.02392578125,7.659912109375
3.4499999,-9.739612579345703,-0.30885201692581177,0.8020575642585754,3.7689208984375,-12.6495361328125,11.53564453125
3.4699999,-9.81143856048584,-0.40701428055763245,0.8140285611152649,1.77001953125,-14.6331787109375,16.5557861328125
3.4899999,-9.885659217834473,-0.4692635238170624,0.7326257228851318,1.7242431640625,-17.9290771484375,17.0440673828125
3.5099999,-9.959878921508789,-0.42856210470199585,0.6368576288223267,5.5694580078125,-19.775390625,15.9149169921875
3.5299999,-9.998186111450195,-0.33518823981285095,0.608127236366272,7.7056884765625,-24.2462158203125,22.9644775390625
3.5499999,-9.964667320251465,-0.07661445438861847,0.706289529800415,3.2806396484375,-26.42822265625,28.4271240234375
3.5699999,-9.926360130310059,0.2537853717803955,0.950498104095459,-0.7781982421875,-23.5748291015625,25.32958984375
3.5899999,-9.818621635437012,0.667982280254364,1.338358759880066,-0.06103515625,-21.148681640625,21.392822265625
3.6099999,-9.715670585632324,1.1037269830703735,1.7094600200653076,-1.2359619140625,-17.5933837890625,17.4102783203125
3.6299999,-9.648633003234863,1.3982137441635132,2.0015525817871094,-4.913330078125,-13.4735107421875,11.7950439453125
3.6499999,-9.617507934570312,1.53707754611969,2.1475989818573,-8.8348388671875,-10.5438232421875,9.3536376953125
3.6699999,-9.617507934570312,1.5394717454910278,2.2170307636260986,-10.4522705078125,-8.9263916015625,8.6212158203125
3.6899999,-9.62947940826416,1.4389152526855469,2.3080103397369385,-9.307861328125,-5.67626953125,6.9122314453125
3.7099999,-9.624691009521484,1.290474772453308,2.4013843536376953,-8.514404296875,1.46484375,4.8828125
3.7299999,-9.612719535827637,1.170764684677124,2.5115175247192383,-7.87353515625,7.4615478515625,2.62451171875
3.7499999,-9.583989143371582,1.1276689767837524,2.650381326675415,-8.9569091796875,11.3677978515625,1.617431640625
3.7699999,-9.550470352172852,1.1540051698684692,2.7748796939849854,-16.632080078125,19.561767578125,0.8697509765625
3.7899999,-9.526528358459473,1.2210428714752197,2.8395233154296875,-26.2603759765625,31.3720703125,-1.2054443359375
3.8099999,-9.516951560974121,1.292868971824646,2.7964274883270264,-29.9530029296875,38.299560546875,-3.9825439453125
3.8299999000000002,-9.5408935546875,1.2880805730819702,2.537853717803955,-28.411865234375,39.4287109375,-5.0048828125
3.8499999,-9.617507934570312,1.213860273361206,2.0614075660705566,-22.7203369140625,38.6962890625,-5.9967041015625
3.8699999,-9.718064308166504,1.039083480834961,1.4963760375976562,-12.176513671875,36.31591796875,-8.331298828125
3.8899999,-9.828198432922363,0.8236053586006165,0.9672574996948242,-1.007080078125,32.257080078125,-9.3994140625
3.9099999,-9.926360130310059,0.6200982332229614,0.5339069962501526,7.2174072265625,27.52685546875,-8.6822509765625
3.9299999,-10.000580787658691,0.4644751250743866,0.21547815203666687,10.894775390625,23.37646484375,-8.4228515625
3.9499999,-10.053253173828125,0.43095630407333374,0.040701430290937424,11.6424560546875,19.378662109375,-8.819580078125
3.9699999,-10.067618370056152,0.49559974670410156,-0.038307227194309235,11.0931396484375,15.167236328125,-8.758544921875
3.9899999,-10.074800491333008,0.5889736413955688,-0.0454898327589035,8.23974609375,12.054443359375,-9.0789794921875
4.0099999,-10.072406768798828,0.6033388376235962,-0.05746084079146385,3.692626953125,8.880615234375,-8.7432861328125
4.029999900000001,-10.086771965026855,0.5434837937355042,-0.090979665517807,-0.457763671875,4.69970703125,-6.927490234375
4.0499999,-10.110713958740234,0.38307225704193115,-0.17238251864910126,-0.3814697265625,-0.9002685546875,-3.60107421875
4.069999900000001,-10.132261276245117,0.2082955539226532,-0.26096799969673157,6.1492919921875,-7.75146484375,-1.2969970703125
4.0899999000000005,-10.156203269958496,0.090979665517807,-0.2968810200691223,14.6331787109375,-14.1754150390625,-0.91552734375
4.1099999,-10.156203269958496,0.033518824726343155,-0.31842881441116333,19.8974609375,-18.9666748046875,0.274658203125
4.1299999000000005,-10.139444351196289,0.08858546614646912,-0.2082955539226532,24.6124267578125,-23.9715576171875,0.946044921875
4.1499999,-10.108319282531738,0.22026655077934265,0.17956513166427612,27.0843505859375,-26.153564453125,2.1514892578125
4.1699999000000005,-9.926360130310059,0.4596867263317108,0.8020575642585754,12.6953125,-17.76123046875,4.1961669921875
4.1899999,-9.821015357971191,0.706289529800415,1.45806884765625,-16.5863037109375,-0.335693359375,4.69970703125
4.209999900000001,-9.646238327026367,0.8619126081466675,2.0925323963165283,-31.9366455078125,6.04248046875,5.0811767578125
4.2299999,-9.579200744628906,0.9696516990661621,2.341529369354248,-34.3017578125,8.0718994140625,8.056640625
4.249999900000001,-9.591172218322754,0.7996633648872375,2.1978771686553955,-28.839111328125,10.986328125,7.1258544921875
4.2699999,-9.718064308166504,0.5410895943641663,1.6352397203445435,-12.176513671875,8.5906982421875,2.777099609375
4.289999900000001,-9.823410034179688,0.3447650372982025,0.9768342971801758,5.218505859375,1.6021728515625,2.1209716796875
4.3099999,-9.96945571899414,0.304063618183136,0.2801215946674347,10.2996826171875,-5.5999755859375,8.1329345703125
4.329999900000001,-10.096348762512207,0.4429273009300232,-0.20111294090747833,11.0321044921875,-9.3536376953125,6.9732666015625
4.3499999,-10.146626472473145,0.7541735172271729,-0.2513911724090576,12.6800537109375,-17.6544189453125,2.4261474609375
4.369999900000001,-10.091560363769531,1.0558429956436157,-0.009576806798577309,1.8463134765625,-25.421142578125,0.9918212890625
4.3899999,-10.031704902648926,1.2880805730819702,0.48602294921875,-10.711669921875,-18.3563232421875,-4.6844482421875
4.409999900000001,-9.8784761428833,1.3551181554794312,0.9624691009521484,-5.645751953125,-14.556884765625,-12.451171875
4.4299999,-9.751583099365234,1.259350061416626,1.4628572463989258,11.3525390625,-6.866455078125,-14.7705078125
4.449999900000001,-9.694122314453125,1.0223240852355957,1.7573440074920654,13.336181640625,-3.23486328125,-7.4615478515625
4.4699999,-9.607931137084961,0.6512228846549988,1.941697597503662,5.645751953125,4.0283203125,-3.72314453125
4.489999900000001,-9.730035781860352,0.45010992884635925,2.123656988143921,0.67138671875,4.302978515625,-0.3204345703125
4.5099999,-9.720458984375,0.26336219906806946,2.056619167327881,-12.664794921875,8.1024169921875,0.701904296875
4.529999900000001,-9.821015357971191,0.3016694188117981,2.032677173614502,-19.8822021484375,11.322021484375,-5.0506591796875
4.5499999,-9.821015357971191,0.4118026793003082,1.8411411046981812,-19.134521484375,19.4854736328125,-2.44140625
4.569999900000001,-9.801861763000488,0.545877993106842,1.4987702369689941,-18.6767578125,24.658203125,-2.8533935546875
4.5899999000000005,-9.837775230407715,0.6991068720817566,1.137245774269104,-12.6953125,16.78466796875,-4.9591064453125
4.609999900000001,-9.945513725280762,0.7469909191131592,0.6200982332229614,-1.5869140625,6.7138671875,-4.364013671875
4.6299999000000005,-10.038887977600098,0.6751648783683777,0.33039984107017517,4.547119140625,-2.5177001953125,-4.21142578125
4.6499999,-10.139444351196289,0.45010992884635925,0.0071826050989329815,2.9754638671875,-3.9215087890625,-6.16455078125
4.6699999000000005,-10.163386344909668,0.1604115068912506,-0.026336219161748886,7.6904296875,-7.6751708984375,-8.697509765625
4.6899999,-10.089165687561035,0.026336219161748886,0.17238251864910126,13.092041015625,-8.5296630859375,-3.23486328125
4.709999900000001,-10.036493301391602,0.004788403399288654,0.5051765441894531,5.0201416015625,-1.8768310546875,3.662109375
4.7299999,-9.885659217834473,0.26336219906806946,0.9648633003234863,-6.5765380859375,3.662109375,3.570556640625
4.749999900000001,-9.873687744140625,0.5793967843055725,1.3742717504501343,-12.237548828125,4.4097900390625,-0.06103515625
4.7699999,-9.804255485534668,0.8307880163192749,1.5418659448623657,-13.73291015625,1.983642578125,-2.044677734375
4.789999900000001,-9.835380554199219,0.8451532125473022,1.4197616577148438,-15.0299072265625,0.9613037109375,-6.0882568359375
4.8099999,-9.909601211547852,0.6775590777397156,1.0749965906143188,-8.2550048828125,-0.06103515625,-11.1846923828125
4.829999900000001,-9.976638793945312,0.4644751250743866,0.7015010714530945,1.6632080078125,-3.204345703125,-7.2021484375
4.8499999,-10.000580787658691,0.1843535304069519,0.3208230137825012,0.42724609375,-6.0882568359375,0.9002685546875
4.869999900000001,-10.000580787658691,0.07182604819536209,0.2968810200691223,-1.5716552734375,-8.575439453125,2.166748046875
4.8899999,-9.986215591430664,-0.019153613597154617,0.4357447028160095,1.15966796875,-10.162353515625,4.5013427734375
4.909999900000001,-9.864110946655273,0.011971008032560349,0.8475474119186401,-3.1585693359375,-12.9547119140625,3.96728515625
4.9299999,-9.828198432922363,0.09576806426048279,1.3072341680526733,-12.481689453125,-6.4239501953125,3.5247802734375
4.949999900000001,-9.737217903137207,0.4141969084739685,1.8746598958969116,-23.681640625,4.150390625,2.0751953125
4.9699999,-9.677363395690918,0.569819986820221,2.1499931812286377,-41.7938232421875,18.951416015625,5.035400390625
4.989999900000001,-9.68933391571045,0.8188169598579407,2.233790159225464,-46.9512939453125,21.728515625,0.152587890625
5.0099999,-9.758766174316406,0.7805097699165344,1.8531121015548706,-35.1409912109375,18.8751220703125,1.3275146484375
5.029999900000001,-9.979032516479492,0.5410895943641663,0.9816226959228516,-5.2032470703125,8.72802734375,2.288818359375
5.0499999,-10.196905136108398,0.2585737705230713,0.07182604819536209,35.5682373046875,-16.4947509765625,-3.265380859375
5.069999900000001,-10.376470565795898,-0.033518824726343155,-0.706289529800415,57.06787109375,-31.951904296875,-4.3792724609375
5.0899999000000005,-10.338163375854492,-0.16519992053508759,-0.912190854549408,57.7850341796875,-40.71044921875,-3.5552978515625
5.109999900000001,-10.225635528564453,-0.002394201699644327,-0.45010992884635925,41.93115234375,-27.923583984375,-4.7149658203125
5.1299999000000005,-9.86889934539795,0.38067805767059326,0.5746083855628967,12.3748779296875,-14.58740234375,-0.91552734375
5.1499999,-9.567230224609375,0.8403648138046265,1.647210717201233,-19.561767578125,-0.8697509765625,5.157470703125
5.1699999000000005,-9.459490776062012,1.216254472732544,2.7317841053009033,-41.56494140625,7.2174072265625,5.279541015625
5.1899999,-9.402029991149902,1.3072341680526733,3.050212860107422,-55.206298828125,15.6097412109375,-0.5340576171875
5.209999900000001,-9.619902610778809,0.9648633003234863,2.762908697128296,-38.4674072265625,13.763427734375,-3.265380859375
5.2299999,-9.837775230407715,0.4381389021873474,1.9129672050476074,2.777099609375,-3.570556640625,-1.617431640625
5.249999900000001,-10.074800491333008,-0.08858546614646912,0.9361328482627869,34.3475341796875,-15.5181884765625,-0.91552734375
5.2699999,-10.165780067443848,-0.4141969084739685,0.2513911724090576,37.78076171875,-15.960693359375,0.1373291015625
5.289999900000001,-10.177751541137695,-0.26096799969673157,0.2346317619085312,30.059814453125,-13.6566162109375,2.9754638671875
5.3099999,-10.103530883789062,0.10773907601833344,0.730231523513794,19.1192626953125,-13.9617919921875,5.3558349609375
5.329999900000001,-9.890447616577148,0.6655880808830261,1.4676456451416016,-2.593994140625,-2.8228759765625,1.4801025390625
5.3499999,-9.799467086791992,0.9744400978088379,2.013523578643799,-18.157958984375,4.364013671875,-2.685546875
5.369999900000001,-9.605537414550781,1.0271124839782715,2.3582887649536133,-15.899658203125,4.2572021484375,-7.3699951171875
5.3899999,-9.615114212036133,0.8762778043746948,2.3558945655822754,-9.307861328125,7.781982421875,-6.8817138671875
5.409999900000001,-9.59835433959961,0.5650315880775452,2.1475989818573,-11.65771484375,11.3372802734375,1.9378662109375
5.4299999,-9.737217903137207,0.3423708379268646,1.8914192914962769,-10.43701171875,12.786865234375,3.265380859375
5.449999900000001,-9.81143856048584,0.2537853717803955,1.580173134803772,-1.251220703125,3.570556640625,3.4942626953125
5.4699999,-9.940725326538086,0.24420857429504395,1.259350061416626,-0.9307861328125,2.25830078125,1.46484375
5.489999900000001,-9.952696800231934,0.31364041566848755,1.0127472877502441,-4.2266845703125,1.800537109375,1.007080078125
5.5099999,-9.998186111450195,0.5099649429321289,1.0247182846069336,-4.4403076171875,-1.3427734375,-3.47900390625
5.529999900000001,-9.849745750427246,0.7733271718025208,1.381454348564148,-15.7470703125,4.1656494140625,-5.2337646484375
5.5499999,-9.727641105651855,0.8978256583213806,1.8626888990402222,-42.877197265625,25.390625,-5.2337646484375
5.569999900000001,-9.617507934570312,0.8403648138046265,2.161964178085327,-54.5654296875,40.95458984375,-5.706787109375
5.5899999000000005,-9.583989143371582,0.5291185975074768,2.099714994430542,-30.670166015625,28.3355712890625,0
5.609999900000001,-9.792284965515137,0.08140286058187485,1.455674648284912,-2.7923583984375,12.786865234375,3.4027099609375
5.6299999000000005,-10.043676376342773,-0.17238251864910126,0.4429273009300232,20.2178955078125,4.486083984375,2.899169921875
5.6499999,-10.302249908447266,-0.24181437492370605,-0.45489832758903503,40.1153564453125,-20.721435546875,-2.685546875
5.6699999000000005,-10.369287490844727,-0.026336219161748886,-0.8738836050033569,51.605224609375,-33.4014892578125,-16.41845703125
5.6899999,-10.290278434753418,0.21308395266532898,-0.6009446382522583,43.670654296875,-24.7955322265625,-12.9241943359375
5.709999900000001,-10.034099578857422,0.47165772318840027,0.2322375625371933,19.1192626953125,-7.7056884765625,-4.8065185546875
5.7299999,-9.801861763000488,0.5578489899635315,1.3766659498214722,0.6561279296875,-1.5716552734375,-3.662109375
5.749999900000001,-9.5624418258667,0.6033388376235962,2.4612393379211426,-18.5546875,6.4239501953125,0.3509521484375
5.7699999,-9.481039047241211,0.4620809257030487,2.889801502227783,-37.6739501953125,20.3399658203125,2.227783203125
5.789999900000001,-9.48343276977539,0.4620809257030487,2.829946517944336,-36.2091064453125,23.5137939453125,3.72314453125
5.8099999,-9.66299819946289,0.40462008118629456,2.2002713680267334,-21.78955078125,12.359619140625,-0.8544921875
5.829999900000001,-9.84256362915039,0.3902548849582672,1.4269442558288574,-15.4876708984375,4.5166015625,-6.683349609375
5.8499999,-9.981427192687988,0.2753331959247589,0.828393816947937,-11.627197265625,8.1329345703125,-6.2103271484375
5.869999900000001,-10.213664054870605,0.05746084079146385,0.42377370595932007,-2.4871826171875,12.4664306640625,-1.373291015625
5.8899999,-10.134655952453613,-0.22026655077934265,0.2944868206977844,15.9454345703125,-6.40869140625,3.7689208984375
5.909999900000001,-10.359710693359375,-0.35434186458587646,-0.031124621629714966,24.1851806640625,-8.819580078125,2.593994140625
5.9299999,-10.254365921020508,-0.3926490843296051,-0.16759411990642548,29.0069580078125,-22.5830078125,4.241943359375
5.949999900000001,-10.232817649841309,-0.17477671802043915,-0.05746084079146385,33.2183837890625,-30.914306640625,-2.9144287109375
5.9699999,-10.046070098876953,0.12928688526153564,0.524330198764801,20.355224609375,-18.1427001953125,-4.1656494140625
5.989999900000001,-9.75397777557373,0.49320554733276367,1.4460978507995605,-5.1422119140625,0.518798828125,1.2359619140625
6.0099999,-9.583989143371582,0.7182605266571045,2.2888567447662354,-22.7508544921875,15.777587890625,1.46484375
6.029999900000001,-9.493009567260742,0.8236053586006165,2.7461493015289307,-22.8118896484375,16.5863037109375,0.946044921875
6.0499999,-9.57441234588623,0.7206547260284424,2.5258827209472656,-11.7034912109375,13.48876953125,-0.9765625
6.069999900000001,-9.806650161743164,0.47644615173339844,1.7932571172714233,7.6141357421875,3.8604736328125,-3.90625
6.0899999000000005,-10.02691650390625,0.1843535304069519,0.7230489253997803,19.34814453125,-4.638671875,-11.444091796875
6.109999900000001,-9.959878921508789,0.19153612852096558,0.7805097699165344,1.64794921875,5.5084228515625,-5.126953125
6.1299999000000005,-9.880870819091797,0.22266076505184174,1.2018892765045166,-17.303466796875,15.4571533203125,-2.471923828125
6.149999900000001,-9.768342971801758,0.14365209639072418,1.45806884765625,-27.3895263671875,14.7705078125,1.4190673828125
6.1699999000000005,-9.873687744140625,0.026336219161748886,1.3479355573654175,-25.177001953125,12.8173828125,1.28173828125
6.1899999,-9.964667320251465,-0.19632454216480255,0.8762778043746948,-6.195068359375,-1.3427734375,5.5999755859375
6.209999900000001,-10.137049674987793,-0.33279404044151306,0.42616790533065796,12.1917724609375,-17.0440673828125,2.6092529296875
6.2299999,-10.146626472473145,-0.2944868206977844,0.2968810200691223,9.5672607421875,-16.9830322265625,2.9144287109375
6.249999900000001,-10.096348762512207,-0.1173158809542656,0.6871358752250671,-11.5509033203125,0.152587890625,7.5836181640625
6.2699999,-9.909601211547852,0.1867477297782898,1.1827356815338135,-26.06201171875,12.9241943359375,5.5084228515625
6.289999900000001,-9.813833236694336,0.38307225704193115,1.6089035272598267,-21.636962890625,7.2174072265625,7.32421875
6.3099999,-9.832986831665039,0.43335050344467163,1.4724340438842773,-10.6658935546875,-0.7476806640625,3.8909912109375
6.329999900000001,-9.926360130310059,0.35673606395721436,1.0749965906143188,4.608154296875,-7.293701171875,1.4495849609375
6.3499999,-9.962273597717285,0.3280056416988373,0.8690952062606812,20.69091796875,-16.2506103515625,-2.0294189453125
6.369999900000001,-9.928754806518555,0.3902548849582672,1.1420341730117798,8.6669921875,-10.3302001953125,-1.77001953125
6.3899999,-9.715670585632324,0.47644615173339844,1.6184803247451782,-31.890869140625,16.357421875,2.0751953125
6.409999900000001,-9.66299819946289,0.5171475410461426,2.2026655673980713,-49.7589111328125,37.65869140625,1.8768310546875
6.4299999,-9.591172218322754,0.4381389021873474,2.2840683460235596,-31.1279296875,22.064208984375,7.0953369140625
6.449999900000001,-9.804255485534668,0.30885201692581177,1.6328455209732056,-11.749267578125,13.2293701171875,4.1656494140625
6.4699999,-10.053253173828125,0.12449848651885986,0.6009446382522583,9.09423828125,-0.79345703125,-2.7618408203125
6.489999900000001,-10.273519515991211,0.08379705995321274,-0.31603461503982544,32.77587890625,-21.78955078125,-5.5389404296875
6.5099999,-10.359710693359375,0.07422025501728058,-0.5554547905921936,34.0423583984375,-32.16552734375,-6.28662109375
6.529999900000001,-10.141838073730469,0.14844051003456116,0.033518824726343155,3.8909912109375,-14.8468017578125,-0.8087158203125
6.5499999,-9.95748519897461,0.09576806426048279,1.1324573755264282,-32.928466796875,16.78466796875,5.6610107421875
6.569999900000001,-9.658209800720215,0.090979665517807,2.2649147510528564,-44.281005859375,24.3377685546875,14.739990234375
6.5899999000000005,-9.560047149658203,0.05506663769483566,2.5665841102600098,-41.656494140625,22.735595703125,21.9879150390625
6.609999900000001,-9.715670585632324,0.11252748221158981,1.965639591217041,-25.45166015625,12.87841796875,16.082763671875
6.6299999000000005,-9.84495735168457,0.3998316824436188,1.036689281463623,5.7220458984375,-8.056640625,0.213623046875
6.649999900000001,-9.979032516479492,0.871489405632019,0.33997663855552673,19.8516845703125,-20.416259765625,-5.79833984375
6.6699999000000005,-9.861717224121094,1.3479355573654175,0.5267243981361389,-7.049560546875,-10.4522705078125,-6.8206787109375
6.6899999,-9.77791976928711,1.414973258972168,0.9696516990661621,-46.661376953125,25.4669189453125,-14.6636962890625
6.709999900000001,-9.674968719482422,1.1228805780410767,1.5059528350830078,-39.2608642578125,29.9072265625,-12.26806640625
6.7299999,-9.80904483795166,0.38307225704193115,1.2952631711959839,-4.8675537109375,7.293701171875,0.885009765625
6.749999900000001,-10.031704902648926,-0.47644615173339844,0.6057330369949341,24.993896484375,-14.5721435546875,4.9896240234375
6.7699999,-10.211270332336426,-0.912190854549408,-0.1843535304069519,46.9207763671875,-26.6876220703125,0.30517578125
6.789999900000001,-10.256759643554688,-0.706289529800415,-0.21547815203666687,52.6275634765625,-29.632568359375,-2.0294189453125
6.8099999,-9.96945571899414,0.0933738648891449,0.6320692300796509,11.7034912109375,-18.7530517578125,-0.54931640625
6.829999900000001,-9.679757118225098,0.8954314589500427,1.8794482946395874,-67.3828125,22.27783203125,-0.42724609375
6.8499999,-9.495404243469238,1.256955862045288,2.6431987285614014,-101.0589599609375,55.2520751953125,-3.0975341796875
6.869999900000001,-9.619902610778809,0.8810662031173706,2.3558945655822754,-52.2003173828125,30.1971435546875,3.0670166015625
6.8899999,-9.99100399017334,-0.040701430290937424,0.8834604024887085,22.9949951171875,-14.58740234375,10.6658935546875
6.909999900000001,-10.424354553222656,-0.8523358106613159,-0.8092401623725891,74.066162109375,-50.84228515625,10.589599609375
6.9299999,-10.57040023803711,-0.9241618514060974,-1.45806884765625,88.3026123046875,-61.1114501953125,7.75146484375
6.949999900000001,-10.232817649841309,-0.0933738648891449,-0.5434837937355042,51.81884765625,-39.459228515625,-1.678466796875
6.9699999,-9.703699111938477,1.115697979927063,1.4437036514282227,-26.580810546875,8.6822509765625,-6.8511962890625
6.989999900000001,-9.251194953918457,2.0661959648132324,3.294421434402466,-90.4541015625,47.54638671875,-8.636474609375
7.0099999,-9.028534889221191,2.205059766769409,4.003105163574219,-90.7440185546875,53.6346435546875,-7.720947265625
7.029999900000001,-9.351752281188965,1.4413094520568848,3.114856481552124,-40.1611328125,24.2156982421875,-2.3193359375
7.0499999,-9.806650161743164,0.19871874153614044,1.1563993692398071,16.7999267578125,-9.27734375,-0.42724609375
7.069999900000001,-10.27591323852539,-0.8068459630012512,-0.6584054827690125,63.201904296875,-38.4979248046875,3.23486328125
7.0899999000000005,-10.445901870727539,-1.161187767982483,-1.3527239561080933,78.1707763671875,-48.492431640625,1.6326904296875
7.109999900000001,-10.199298858642578,-0.629675030708313,-0.4692635238170624,38.26904296875,-25.0701904296875,0.8087158203125
7.1299999000000005,-9.761159896850586,0.31603461503982544,1.3000515699386597,-32.1044921875,17.8375244140625,0.9918212890625
7.149999900000001,-9.284713745117188,1.2473790645599365,3.1100680828094482,-81.1767578125,50.4913330078125,-0.030517578125
7.1699999000000005,-9.131484985351562,1.6112977266311646,3.648763418197632,-87.58544921875,58.9141845703125,0.8697509765625
7.1899999,-9.390059471130371,1.3048399686813354,2.6455929279327393,-49.1485595703125,32.7301025390625,0.8392333984375
7.209999900000001,-9.737217903137207,0.47405192255973816,0.7326257228851318,9.307861328125,-10.711669921875,-2.7618408203125
7.2299999,-9.813833236694336,-0.3471592366695404,-0.9672574996948242,50.9796142578125,-35.9954833984375,0.762939453125
7.249999900000001,-9.433155059814453,-0.8307880163192749,-1.381454348564148,48.187255859375,-38.6199951171875,7.5836181640625
7.2699999,-8.463502883911133,-0.9050082564353943,-0.35434186458587646,10.406494140625,-7.232666015625,10.2691650390625
7.289999900000001,-8.001421928405762,-0.4405331015586853,1.4437036514282227,-27.862548828125,29.083251953125,22.0184326171875
7.3099999,-8.518569946289062,0.31842881441116333,2.561795711517334,-54.779052734375,49.37744140625,18.12744140625
7.329999900000001,-9.50498104095459,1.0654197931289673,2.693476915359497,-47.8363037109375,30.487060546875,9.9334716796875
7.3499999,-10.656591415405273,1.5442601442337036,1.6328455209732056,-14.2974853515625,-1.434326171875,-6.744384765625
7.369999900000001,-11.24795913696289,1.3479355573654175,0.14604631066322327,26.18408203125,-15.716552734375,-8.1787109375
7.3899999,-10.8720703125,0.7015010714530945,-0.6512228846549988,48.3245849609375,-29.4036865234375,-5.3558349609375
7.409999900000001,-10.304644584655762,-0.1388636976480484,-0.5841852426528931,40.374755859375,-30.303955078125,5.6915283203125
7.4299999,-10.050858497619629,-0.48602294921875,0.26336219906806946,20.6146240234375,-9.8876953125,17.181396484375
7.449999900000001,-9.955090522766113,-0.2298433631658554,1.4963760375976562,2.2735595703125,11.505126953125,14.373779296875
7.4699999,-10.201693534851074,0.6440402865409851,2.363077163696289,-20.69091796875,25.20751953125,9.4451904296875
7.489999900000001,-10.647014617919922,1.2090718746185303,1.9967641830444336,-20.08056640625,31.18896484375,-4.94384765625
7.5099999,-10.879252433776855,1.5322890281677246,1.2761094570159912,30.2581787109375,-10.467529296875,-13.4429931640625
7.529999900000001,-11.001357078552246,1.115697979927063,0.1628057211637497,65.3076171875,-45.3643798828125,-16.7236328125
7.5499999,-10.764330863952637,0.5770025849342346,-0.19871874153614044,61.7218017578125,-34.85107421875,-5.615234375
7.569999900000001,-10.268731117248535,0.22026655077934265,0.4572925269603729,44.4793701171875,-16.66259765625,5.7830810546875
7.5899999000000005,-9.856928825378418,0.15562310814857483,1.5322890281677246,15.7623291015625,10.1318359375,6.805419921875
7.609999900000001,-9.435548782348633,0.3998316824436188,2.5067291259765625,-8.9874267578125,26.3519287109375,1.40380859375
7.6299999000000005,-9.342175483703613,0.7374141216278076,2.7102363109588623,-20.538330078125,30.8837890625,2.6702880859375
7.649999900000001,-9.469067573547363,0.9720458984375,2.051830768585205,-10.894775390625,21.0723876953125,-1.5869140625
7.6699999000000005,-9.670180320739746,1.0319008827209473,1.1180921792984009,16.693115234375,-6.16455078125,-10.80322265625
7.6899999,-10.072406768798828,0.9528923034667969,0.26336219906806946,31.036376953125,-18.1884765625,-14.251708984375
7.709999900000001,-10.319009780883789,0.7589619159698486,0.031124621629714966,27.9541015625,-10.528564453125,-11.4288330078125
7.7299999,-10.512939453125,0.6200982332229614,0.3758896589279175,18.3258056640625,-0.1678466796875,-6.28662109375
7.749999900000001,-10.493785858154297,0.5722141861915588,0.9552865028381348,6.805419921875,8.97216796875,-9.5672607421875
7.7699999,-10.429142951965332,0.5410895943641663,1.4700398445129395,-2.0904541015625,8.9569091796875,-6.622314453125
7.789999900000001,-10.228029251098633,0.6177040338516235,1.6735470294952393,-8.6517333984375,9.8419189453125,-3.0364990234375
7.8099999,-10.000580787658691,0.5817909836769104,1.4987702369689941,-10.07080078125,11.444091796875,-5.3863525390625
7.829999900000001,-9.646238327026367,0.3926490843296051,1.0869675874710083,-1.89208984375,3.2958984375,-6.683349609375
7.8499999,-9.50498104095459,0.090979665517807,0.5985504388809204,12.8021240234375,-5.9051513671875,-3.692626953125
7.869999900000001,-9.624691009521484,-0.3232172429561615,0.23942017555236816,26.6265869140625,-11.474609375,3.23486328125
7.8899999,-10.146626472473145,-0.5482721924781799,0.17477671802043915,33.7982177734375,-16.815185546875,9.8724365234375
7.909999900000001,-10.828974723815918,-0.4429273009300232,0.35913026332855225,31.890869140625,-18.5089111328125,10.8184814453125
7.9299999,-11.475408554077148,0.08140286058187485,0.7206547260284424,23.62060546875,-14.8773193359375,3.9520263671875
7.949999900000001,-11.446678161621094,0.8188169598579407,1.0893617868423462,16.66259765625,-8.72802734375,-6.591796875
7.9699999,-11.396400451660156,1.4532804489135742,1.4173674583435059,10.528564453125,-0.5950927734375,-1.77001953125
7.989999900000001,-10.797849655151367,1.8363527059555054,1.577778935432434,3.662109375,-1.6632080078125,-15.9759521484375
8.0099999,-10.69489860534668,1.7932571172714233,1.6927006244659424,2.3345947265625,1.800537109375,-17.08984375
8.0299999,-10.474632263183594,1.4628572463989258,1.680729627609253,6.256103515625,1.64794921875,-19.805908203125
8.049999900000001,-10.589553833007812,0.9241618514060974,1.6160861253738403,11.6119384765625,-0.335693359375,-12.359619140625
8.069999900000001,-10.445901870727539,0.45250412821769714,1.434126853942871,15.1214599609375,-1.64794921875,-12.542724609375
8.0899999,-10.228029251098633,0.090979665517807,1.2425906658172607,17.5628662109375,1.251220703125,-13.0157470703125
8.1099999,-9.84495735168457,-0.05746084079146385,1.0845733880996704,17.425537109375,7.0343017578125,-11.322021484375
8.129999900000001,-9.442731857299805,-0.05746084079146385,1.015141487121582,12.26806640625,8.2550048828125,-7.843017578125
8.149999900000001,-9.050082206726074,-0.040701430290937424,1.0103530883789062,4.7454833984375,3.173828125,-6.805419921875
8.1699999,-8.7268648147583,-0.07182604819536209,1.0342950820922852,0.6561279296875,10.2081298828125,-11.932373046875
8.1899999,-8.51138687133789,-0.16759411990642548,1.0271124839782715,1.0986328125,25.57373046875,-14.801025390625
8.2099999,-8.427590370178223,-0.2849099934101105,1.0079588890075684,2.3040771484375,21.78955078125,-9.002685546875
8.229999900000001,-8.465897560119629,-0.35673606395721436,0.9792284965515137,1.2054443359375,0.9002685546875,-0.42724609375
8.2499999,-8.573636054992676,-0.3711012601852417,0.9768342971801758,0.4730224609375,-7.781982421875,1.617431640625
8.2699999,-8.707711219787598,-0.3064578175544739,1.0295066833496094,1.8768310546875,-1.2969970703125,1.7242431640625
8.2899999,-8.887276649475098,-0.13168109953403473,1.1492167711257935,1.3885498046875,1.678466796875,4.486083984375
8.309999900000001,-9.100360870361328,0.12210428714752197,1.3048399686813354,-3.6468505859375,-1.373291015625,4.7760009765625
8.3299999,-9.351752281188965,0.4213795065879822,1.4508862495422363,-9.002685546875,2.349853515625,0.6103515625
8.3499999,-9.610325813293457,0.689530074596405,1.5298948287963867,-8.4228515625,13.397216796875,-1.8768310546875
8.3699999,-9.847352027893066,0.8643068075180054,1.5179238319396973,-3.9520263671875,13.2904052734375,0.3814697265625
8.389999900000001,-10.04846477508545,0.9217676520347595,1.4269442558288574,0.06103515625,-1.068115234375,2.7313232421875
8.4099999,-10.216058731079102,0.8858546018600464,1.290474772453308,3.387451171875,-13.0157470703125,2.899169921875
8.4299999,-10.287884712219238,0.7613561153411865,1.1635819673538208,7.4310302734375,-16.998291015625,4.0740966796875
8.4499999,-10.247182846069336,0.5841852426528931,1.0749965906143188,9.6435546875,-18.3258056640625,6.16455078125
8.469999900000001,-10.108319282531738,0.3663128614425659,1.036689281463623,8.60595703125,-13.2293701171875,3.2958984375
8.4899999,-9.914389610290527,0.13168109953403473,1.0558429956436157,6.4544677734375,-5.5694580078125,-1.739501953125
8.5099999,-9.744400978088379,-0.10055647045373917,1.1037269830703735,3.4332275390625,-3.23486328125,-1.40380859375
8.5299999,-9.617507934570312,-0.2753331959247589,1.161187767982483,-0.946044921875,-4.6539306640625,1.2359619140625
8.549999900000001,-9.524134635925293,-0.40701428055763245,1.192312479019165,-4.547119140625,-1.739501953125,-1.6326904296875
8.569999900000001,-9.473855972290039,-0.47165772318840027,1.1851298809051514,-4.8980712890625,1.89208984375,-3.0059814453125
8.5899999,-9.464279174804688,-0.47405192255973816,1.1444283723831177,-4.6539306640625,-4.57763671875,2.5177001953125
8.6099999,-9.502586364746094,-0.4165911078453064,1.0893617868423462,-4.241943359375,-10.31494140625,6.2255859375
8.629999900000001,-9.5624418258667,-0.31603461503982544,1.0462661981582642,-3.692626953125,-8.0108642578125,3.0059814453125
8.649999900000001,-9.610325813293457,-0.16759411990642548,1.0199298858642578,-4.9285888671875,-4.8980712890625,0.8392333984375
8.6699999,-9.622296333312988,0.0071826050989329815,0.993593692779541,-7.7667236328125,-1.7852783203125,4.5013427734375
8.6899999,-9.600749015808105,0.17238251864910126,0.9361328482627869,-9.27734375,2.2735595703125,8.6669921875
8.709999900000001,-9.607931137084961,0.3016694188117981,0.8571242094039917,-9.033203125,4.0130615234375,9.4146728515625
8.729999900000001,-9.730035781860352,0.3974374830722809,0.7613561153411865,-8.1634521484375,6.28662109375,6.683349609375
8.7499999,-9.93354320526123,0.42856210470199585,0.6631938815116882,-5.7525634765625,8.97216796875,-0.7171630859375
8.7699999,-10.125079154968262,0.38307225704193115,0.5889736413955688,-0.732421875,3.0059814453125,-6.7596435546875
8.7899999,-10.266336441040039,0.28969839215278625,0.569819986820221,5.523681640625,-4.302978515625,-5.1727294921875
8.809999900000001,-10.35252857208252,0.18914192914962769,0.629675030708313,11.1541748046875,-7.14111328125,1.3427734375
8.8299999,-10.335768699645996,0.10534487664699554,0.7709329724311829,13.12255859375,-16.1895751953125,5.889892578125
8.8499999,-10.311826705932617,0.10055647045373917,0.9911994934082031,13.153076171875,-22.15576171875,6.5155029296875
8.8699999,-10.307038307189941,0.15562310814857483,1.2425906658172607,13.519287109375,-12.115478515625,1.4190673828125
8.889999900000001,-10.247182846069336,0.2346317619085312,1.4915876388549805,11.2457275390625,-7.14111328125,-5.2490234375
8.9099999,-10.271124839782715,0.31364041566848755,1.721431016921997,4.39453125,-10.07080078125,-5.5999755859375
8.9299999,-10.194510459899902,0.35434186458587646,1.8626888990402222,-3.23486328125,-4.33349609375,-6.34765625
8.9499999,-10.192116737365723,0.3878606855869293,1.9081788063049316,-6.4544677734375,5.096435546875,-2.2430419921875
8.969999900000001,-10.074800491333008,0.38307225704193115,1.8315643072128296,-7.4005126953125,3.5247802734375,5.2032470703125
8.9899999,-10.000580787658691,0.42377370595932007,1.6759412288665771,-9.33837890625,2.1820068359375,3.8604736328125
9.0099999,-9.921571731567383,0.45489832758903503,1.4891934394836426,-8.636474609375,1.8157958984375,0.54931640625
9.0299999,-9.871294021606445,0.4572925269603729,1.3239935636520386,-5.2642822265625,-0.5950927734375,-0.42724609375
9.049999900000001,-9.847352027893066,0.4118026793003082,1.2282254695892334,-1.77001953125,-2.62451171875,-0.396728515625
9.069999900000001,-9.854534149169922,0.31603461503982544,1.158793568611145,1.3427734375,-3.9825439453125,-0.1678466796875
9.0899999,-9.871294021606445,0.2059013396501541,1.1204863786697388,5.1422119140625,-6.4239501953125,-0.06103515625
9.1099999,-9.890447616577148,0.16519992053508759,1.0821791887283325,9.307861328125,-9.7503662109375,0.0762939453125
9.129999900000001,-9.904812812805176,0.21787235140800476,1.1061211824417114,12.3443603515625,-12.63427734375,-1.6632080078125
9.149999900000001,-9.892841339111328,0.33279404044151306,1.2234370708465576,11.2762451171875,-12.9547119140625,-3.6468505859375
9.1699999,-9.854534149169922,0.4692635238170624,1.4197616577148438,5.4779052734375,-10.528564453125,-3.7994384765625
9.1899999,-9.799467086791992,0.5770025849342346,1.7190368175506592,-1.7852783203125,-7.659912109375,-4.180908203125
9.209999900000001,-9.734824180603027,0.6105214357376099,2.0446481704711914,-10.650634765625,-3.082275390625,-3.7841796875
9.229999900000001,-9.68933391571045,0.569819986820221,2.296039342880249,-19.9127197265625,3.60107421875,-2.3651123046875
9.2499999,-9.670180320739746,0.45489832758903503,2.4420857429504395,-24.5819091796875,8.0718994140625,-1.4495849609375
9.2699999,-9.694122314453125,0.304063618183136,2.4612393379211426,-24.444580078125,9.7503662109375,0.4119873046875
9.2899999,-9.734824180603027,0.16998831927776337,2.3942017555236816,-23.5137939453125,11.932373046875,3.5400390625
9.309999900000001,-9.787496566772461,0.016759412363171577,2.2361843585968018,-23.2696533203125,15.4876708984375,6.683349609375
9.3299999,-9.830592155456543,-0.12928688526153564,2.10210919380188,-22.64404296875,17.5018310546875,8.544921875
9.3499999,-9.84495735168457,-0.2106897532939911,1.9847931861877441,-24.2462158203125,18.85986328125,12.87841796875
9.3699999,-9.830592155456543,-0.19632454216480255,1.9057846069335938,-29.1748046875,23.37646484375,17.15087890625
9.389999900000001,-9.792284965515137,-0.05027823522686958,1.8746598958969116,-32.1044921875,28.2745361328125,15.5792236328125
9.4099999,-9.75397777557373,0.1843535304069519,1.8267759084701538,-30.2276611328125,30.33447265625,11.7645263671875
9.4299999,-9.77791976928711,0.40222588181495667,1.702277421951294,-27.1759033203125,30.517578125,11.29150390625
9.4499999,-9.926360130310059,0.5410895943641663,1.4748282432556152,-26.1077880859375,28.6712646484375,9.735107421875
9.469999900000001,-10.053253173828125,0.5889736413955688,1.1803414821624756,-26.06201171875,21.17919921875,4.3182373046875
9.4899999,-10.17296314239502,0.586579442024231,0.9074024558067322,-25.1312255859375,16.29638671875,4.3182373046875
9.5099999,-10.165780067443848,0.5482721924781799,0.6751648783683777,-24.688720703125,17.1966552734375,3.7384033203125
9.5299999,-9.90241813659668,0.47884035110473633,0.5315127968788147,-23.956298828125,17.08984375,-2.655029296875
9.549999900000001,-9.404424667358398,0.42616790533065796,0.47405192255973816,-20.99609375,14.6484375,-1.7547607421875
9.569999900000001,-9.35654067993164,0.5051765441894531,0.49320554733276367,-18.096923828125,9.6282958984375,7.6141357421875
9.5899999,-9.370905876159668,0.6344634294509888,0.45489832758903503,-16.5252685546875,18.402099609375,-4.9591064453125
9.6099999,-9.715670585632324,0.727837324142456,0.4141969084739685,-16.6168212890625,16.9219970703125,2.86865234375
9.629999900000001,-10.17296314239502,0.8164227604866028,0.304063618183136,-17.8680419921875,12.542724609375,7.598876953125
9.649999900000001,-10.371682167053223,0.706289529800415,0.1412578970193863,-12.9547119140625,8.8348388671875,-3.143310546875
9.6699999,-10.323798179626465,0.5602431893348694,0.05267243832349777,-1.9683837890625,3.173828125,-1.373291015625
9.6899999,-10.280701637268066,0.3208230137825012,-0.009576806798577309,6.011962890625,-0.6256103515625,-1.617431640625
9.709999900000001,-10.213664054870605,0.031124621629714966,-0.06224924325942993,11.322021484375,-2.960205078125,2.2430419921875
9.729999900000001,-10.127472877502441,-0.16998831927776337,-0.038307227194309235,23.834228515625,-8.30078125,7.1868896484375
9.7499999,-10.072406768798828,-0.2298433631658554,0.10773907601833344,35.8734130859375,-12.939453125,6.134033203125
9.7699999,-9.832986831665039,0.47405192255973816,0.8690952062606812,4.4097900390625,0.6561279296875,5.2490234375
9.7899999,-9.68694019317627,1.01753568649292,1.3862427473068237,-21.514892578125,10.4217529296875,-0.3662109375
9.809999900000001,-9.543288230895996,1.3862427473068237,1.8267759084701538,-36.834716796875,20.1568603515625,-2.0294189453125
9.8299999,-9.557653427124023,1.3958195447921753,1.86508309841156,-41.7633056640625,26.5655517578125,0.4425048828125
9.8499999,-9.59835433959961,1.259350061416626,1.656787633895874,-47.7142333984375,24.444580078125,2.0599365234375
9.8699999,-9.794678688049316,0.8882488012313843,1.0342950820922852,-45.7000732421875,22.430419921875,4.8828125
9.889999900000001,-10.000580787658691,0.40701428055763245,0.16998831927776337,-23.9105224609375,13.5650634765625,6.0882568359375
9.9099999,-10.273519515991211,0.09816227108240128,-0.7110779285430908,6.1798095703125,-5.0048828125,7.38525390625
9.9299999,-10.405200958251953,-0.2561795711517334,-1.4077905416488647,19.3634033203125,-21.66748046875,9.2315673828125
9.9499999,-10.47702693939209,-0.26336219906806946,-1.7956513166427612,30.76171875,-30.76171875,-0.946044921875
9.969999900000001,-10.374075889587402,0.0071826050989329815,-1.656787633895874,40.2984619140625,-32.5469970703125,0.5950927734375
9.9899999,-10.218452453613281,0.4596867263317108,-1.1324573755264282,34.820556640625,-34.454345703125,4.425048828125
10.0099999,-9.998186111450195,1.0749965906143188,-0.10055647045373917,21.484375,-32.6690673828125,-1.8157958984375
10.0299999,-9.797073364257812,1.4173674583435059,1.0103530883789062,-0.8697509765625,-24.2919921875,-4.425048828125
10.049999900000001,-9.588777542114258,1.6184803247451782,1.9512743949890137,-23.0560302734375,-5.9814453125,-9.4146728515625
10.069999900000001,-9.57441234588623,1.3646949529647827,2.518700122833252,-27.9541015625,8.30078125,-9.4451904296875
10.0899999,-9.569623947143555,0.9097966551780701,2.5953147411346436,-26.6876220703125,9.857177734375,1.6021728515625
10.1099999,-9.660603523254395,0.4572925269603729,2.360682964324951,-25.726318359375,5.6915283203125,8.392333984375
10.129999900000001,-9.837775230407715,-0.05746084079146385,1.8531121015548706,-18.6309814453125,7.4005126953125,11.444091796875
10.149999900000001,-9.749189376831055,-0.12689268589019775,1.235408067703247,-4.486083984375,2.9754638671875,7.8887939453125
10.1699999,-9.909601211547852,-0.040701430290937424,0.7374141216278076,4.5928955078125,1.0528564453125,-1.1138916015625
10.1899999,-9.84495735168457,0.3926490843296051,0.4141969084739685,-6.591796875,2.685546875,2.0904541015625
10.209999900000001,-9.981427192687988,0.7613561153411865,0.33997663855552673,-20.3094482421875,5.859375,6.256103515625
10.229999900000001,-10.002974510192871,1.173158884048462,0.47165772318840027,-18.7530517578125,1.953125,-0.0152587890625
10.2499999,-10.101137161254883,1.0965443849563599,0.4357447028160095,-7.6446533203125,-6.8206787109375,-2.4566650390625
10.2699999,-10.046070098876953,1.072602391242981,0.48602294921875,7.049560546875,-9.735107421875,-8.636474609375
10.2899999,-10.053253173828125,0.8020575642585754,0.4812345504760742,7.6904296875,-6.7901611328125,-6.6680908203125
10.309999900000001,-9.931148529052734,0.7015010714530945,0.545877993106842,-1.0223388671875,-6.1492919921875,1.434326171875
10.3299999,-9.890447616577148,0.5937620401382446,0.8523358106613159,-1.9683837890625,-12.51220703125,-1.5411376953125
10.3499999,-9.758766174316406,0.5195417404174805,1.1659762859344482,-12.237548828125,-4.1351318359375,-0.579833984375
10.3699999,-9.658209800720215,0.49799394607543945,1.5442601442337036,-24.4903564453125,6.011962890625,1.800537109375
10.389999900000001,-9.658209800720215,0.5578489899635315,1.9800047874450684,-32.0892333984375,14.862060546875,-2.0904541015625
10.4099999,-9.531316757202148,0.6129156351089478,2.123656988143921,-45.7916259765625,23.529052734375,4.1656494140625
10.4299999,-9.684545516967773,0.5793967843055725,2.006340980529785,-46.966552734375,28.74755859375,10.101318359375
10.4499999,-9.86650562286377,0.47165772318840027,1.400607943534851,-25.4974365234375,16.937255859375,7.2174072265625
10.469999900000001,-10.0580415725708,0.2322375625371933,0.45010992884635925,2.288818359375,1.4801025390625,7.5225830078125
10.4899999,-10.369287490844727,0.15322890877723694,-0.608127236366272,35.4766845703125,-16.9525146484375,-3.9825439453125
10.5099999,-10.441113471984863,0.33039984107017517,-1.3239935636520386,58.868408203125,-31.341552734375,-8.209228515625
10.5299999,-10.47942066192627,0.5626373887062073,-1.5155296325683594,59.99755859375,-37.4908447265625,-3.8909912109375
10.549999900000001,-10.17296314239502,1.05105459690094,-0.8140285611152649,48.0804443359375,-39.2303466796875,-7.9193115234375
10.569999900000001,-9.888052940368652,1.2952631711959839,0.31842881441116333,17.1661376953125,-27.16064453125,-10.650634765625
10.5899999,-9.366117477416992,1.5538369417190552,1.9536685943603516,-18.218994140625,-3.8909912109375,-9.490966796875
10.6099999,-9.167398452758789,1.5083470344543457,3.44765043258667,-60.9283447265625,26.8096923828125,-5.2337646484375
10.629999900000001,-9.083600997924805,1.2641384601593018,4.019864559173584,-87.40234375,50.750732421875,2.62451171875
10.649999900000001,-9.32541561126709,0.7158663272857666,3.8139634132385254,-63.7969970703125,41.32080078125,9.8114013671875
10.6699999,-9.763554573059082,0.12210428714752197,2.2625205516815186,-21.2860107421875,21.3165283203125,10.25390625
10.6899999,-10.220847129821777,-0.4118026793003082,0.37828385829925537,15.5029296875,-3.84521484375,7.9803466796875
10.709999900000001,-10.505757331848145,-0.4668693244457245,-1.1300631761550903,47.8363037109375,-29.47998046875,-3.0670166015625
10.729999900000001,-10.647014617919922,-0.18914192914962769,-1.9393033981323242,54.4281005859375,-30.0750732421875,-5.279541015625
10.7499999,-10.412383079528809,0.47165772318840027,-1.4245500564575195,44.3267822265625,-29.327392578125,-3.47900390625
10.7699999,-10.125079154968262,1.0797849893569946,-0.2825157940387726,14.404296875,-18.61572265625,-6.1187744140625
10.7899999,-9.737217903137207,1.4173674583435059,1.1635819673538208,-18.9971923828125,-0.48828125,-6.4697265625
10.809999900000001,-9.519346237182617,1.4221558570861816,2.363077163696289,-28.62548828125,11.9476318359375,-7.5225830078125
10.8299999,-9.466673851013184,1.1348515748977661,2.873042106628418,-30.4412841796875,19.04296875,-6.622314453125
10.8499999,-9.469067573547363,0.6536170840263367,2.7676970958709717,-29.144287109375,20.08056640625,3.41796875
10.8699999,-9.677363395690918,0.2992752194404602,2.1116859912872314,-17.0440673828125,12.0697021484375,5.645751953125
10.889999900000001,-9.830592155456543,-0.016759412363171577,1.1540051698684692,-1.5411376953125,3.9520263671875,3.4637451171875
10.9099999,-9.988609313964844,0.1173158809542656,0.4596867263317108,12.6495361328125,-8.7432861328125,1.1444091796875
10.9299999,-10.053253173828125,0.3758896589279175,0.22026655077934265,5.5389404296875,-14.373779296875,-4.7607421875
10.9499999,-9.955090522766113,0.7374141216278076,0.4381389021873474,-26.214599609375,10.9405517578125,-9.3231201171875
10.969999900000001,-9.931148529052734,0.8858546018600464,0.8307880163192749,-35.614013671875,22.1710205078125,-4.8370361328125
10.9899999,-9.904812812805176,0.5602431893348694,0.9552865028381348,-16.2200927734375,7.0037841796875,3.8909912109375
11.0099999,-10.103530883789062,0.10055647045373917,0.4668693244457245,9.918212890625,-7.3699951171875,8.270263671875
11.0299999,-10.18493366241455,-0.2777273952960968,0.08858546614646912,44.2352294921875,-31.8603515625,0.1373291015625
11.049999900000001,-10.261548042297363,-0.22026655077934265,-0.19393034279346466,55.1300048828125,-34.0423583984375,-0.91552734375
11.069999900000001,-10.122684478759766,0.20111294090747833,0.4141969084739685,29.96826171875,-16.998291015625,0.9307861328125
11.0899999,-9.837775230407715,0.871489405632019,1.3527239561080933,-3.1890869140625,0.5340576171875,-1.2664794921875
11.1099999,-9.703699111938477,1.2832920551300049,2.248155355453491,-33.172607421875,21.3470458984375,2.2125244140625
11.129999900000001,-9.567230224609375,1.4987702369689941,2.559401512145996,-38.7115478515625,18.463134765625,-3.84521484375
11.149999900000001,-9.634267807006836,1.3455413579940796,2.300827741622925,-20.9197998046875,6.9732666015625,-9.6435546875
11.1699999,-9.806650161743164,0.9816226959228516,1.5825673341751099,-1.89208984375,2.5482177734375,-11.749267578125
11.1899999,-10.007762908935547,0.5386953949928284,0.8571242094039917,9.94873046875,2.0599365234375,-9.246826171875
11.209999900000001,-10.04846477508545,0.1604115068912506,0.5099649429321289,17.1051025390625,-4.974365234375,-6.04248046875
11.229999900000001,-10.15141487121582,-0.16519992053508759,0.38067805767059326,17.7001953125,-8.60595703125,-0.640869140625
11.2499999,-10.02691650390625,-0.31842881441116333,0.47884035110473633,14.09912109375,-6.7901611328125,3.997802734375
11.2699999,-9.888052940368652,-0.19632454216480255,0.8978256583213806,14.0533447265625,-11.71875,1.46484375
11.2899999,-9.720458984375,0.16759411990642548,1.5490485429763794,0.7476806640625,-0.6103515625,-0.79345703125
11.309999900000001,-9.404424667358398,0.6775590777397156,2.434903144836426,-39.0625,24.6429443359375,2.25830078125
11.3299999,-9.332598686218262,1.0223240852355957,2.8993782997131348,-76.11083984375,57.1746826171875,1.556396484375
11.3499999,-9.437943458557129,1.1492167711257935,2.5713725090026855,-64.51416015625,49.9267578125,3.4942626953125
11.3699999,-9.782708168029785,0.7661445140838623,1.2952631711959839,-20.08056640625,15.56396484375,1.2969970703125
11.389999900000001,-10.314221382141113,0.27054479718208313,-0.5482721924781799,33.477783203125,-22.1710205078125,-7.1868896484375
11.4099999,-10.627861022949219,-0.1628057211637497,-1.821987509727478,78.7200927734375,-44.61669921875,-7.3394775390625
11.4299999,-10.63504409790039,-0.2801215946674347,-1.8842366933822632,87.3870849609375,-48.6602783203125,-10.6353759765625
11.4499999,-10.405200958251953,-0.10295066982507706,-0.7876923680305481,55.633544921875,-24.169921875,-8.72802734375
11.469999900000001,-9.856928825378418,0.2825157940387726,1.1276689767837524,14.7552490234375,0.213623046875,-0.5340576171875
11.4899999,-9.536105155944824,0.6703764796257019,2.760514497756958,-23.101806640625,25.9857177734375,5.8441162109375
11.5099999,-9.313444137573242,0.8690952062606812,3.4955344200134277,-43.6553955078125,35.064697265625,10.0250244140625
11.5299999,-9.41639518737793,0.9744400978088379,3.2130186557769775,-34.9578857421875,23.284912109375,5.2490234375
11.549999900000001,-9.691728591918945,0.828393816947937,2.166752576828003,-13.48876953125,10.92529296875,-3.631591796875
11.569999900000001,-9.952696800231934,0.5937620401382446,0.9744400978088379,5.7220458984375,4.3487548828125,-8.2244873046875
11.5899999,-10.232817649841309,0.24899697303771973,0.07900865375995636,21.30126953125,-0.1220703125,-2.7008056640625
11.6099999,-10.266336441040039,-0.08140286058187485,-0.3902548849582672,30.609130859375,-9.5367431640625,5.462646484375
11.629999900000001,-10.357316970825195,-0.2849099934101105,-0.4908113479614258,34.8358154296875,-10.406494140625,8.4228515625
11.649999900000001,-10.295066833496094,-0.24181437492370605,-0.26575639843940735,39.12353515625,-18.157958984375,7.26318359375
11.6699999,-10.170568466186523,0.11013327538967133,0.2968810200691223,37.7349853515625,-16.754150390625,2.7313232421875
11.6899999,-10.189722061157227,0.5770025849342346,1.0055646896362305,26.0162353515625,-8.514404296875,4.0435791015625
11.709999900000001,-10.261548042297363,1.070208191871643,1.6950948238372803,12.1002197265625,7.7972412109375,-10.25390625
11.729999900000001,-10.465055465698242,1.3646949529647827,2.075772762298584,6.2713623046875,9.3994140625,-18.0816650390625
11.7499999,-10.520122528076172,1.400607943534851,2.0231003761291504,5.4779052734375,12.2222900390625,-5.706787109375
11.7699999,-10.651803016662598,1.2018892765045166,1.644816517829895,8.72802734375,9.3536376953125,3.8299560546875
11.7899999,-10.577583312988281,0.9361328482627869,1.1563993692398071,14.617919921875,0.4730224609375,-17.63916015625
11.809999900000001,-10.649409294128418,0.6440402865409851,0.7445967197418213,19.0277099609375,-5.2032470703125,-17.4102783203125
11.8299999,-10.587160110473633,0.4692635238170624,0.5147533416748047,23.3001708984375,-2.1514892578125,-19.3634033203125
11.8499999,-10.426748275756836,0.4189853072166443,0.44532153010368347,27.130126953125,1.28173828125,-10.6353759765625
11.8699999,-10.093954086303711,0.3663128614425659,0.2537853717803955,30.5633544921875,1.068115234375,-0.0152587890625
11.889999900000001,-9.816226959228516,0.42377370595932007,0.28730419278144836,46.478271484375,-4.5928955078125,-3.4027099609375
11.9099999,-9.586383819580078,0.44532153010368347,0.3232172429561615,50.5523681640625,-14.4805908203125,-11.077880859375
11.9299999,-9.404424667358398,0.507570743560791,0.6751648783683777,30.792236328125,-12.7716064453125,-13.2598876953125
11.9499999,-9.210494041442871,0.5722141861915588,1.1659762859344482,6.3934326171875,13.2598876953125,-10.4217529296875
11.969999900000001,-8.978256225585938,0.586579442024231,1.5945383310317993,-10.7421875,31.768798828125,-6.2713623046875
11.9899999,-8.796297073364258,0.49320554733276367,1.7501614093780518,-19.4091796875,27.89306640625,-0.091552734375
12.0099999,-8.777143478393555,0.3208230137825012,1.580173134803772,-19.4549560546875,16.998291015625,7.843017578125
12.0299999,-8.927978515625,0.11013327538967133,1.1899182796478271,-12.176513671875,12.5885009765625,8.514404296875
12.049999900000001,-9.196128845214844,-0.0933738648891449,0.7326257228851318,-2.5177001953125,12.8021240234375,0.732421875
12.069999900000001,-9.53849983215332,-0.24899697303771973,0.35673606395721436,5.340576171875,7.3699951171875,-3.0670166015625
12.0899999,-9.895236015319824,-0.33997663855552673,0.14604631066322327,11.6119384765625,-4.8980712890625,0.946044921875
12.1099999,-10.168174743652344,-0.36152446269989014,0.1364694982767105,16.9830322265625,-13.7786865234375,3.082275390625
12.129999900000001,-10.326191902160645,-0.31842881441116333,0.31364041566848755,20.0958251953125,-13.0615234375,-0.946044921875
12.149999900000001,-10.374075889587402,-0.20111294090747833,0.6248866319656372,19.2413330078125,-12.6190185546875,-2.9296875
12.1699999,-10.26394271850586,-0.028730420395731926,0.993593692779541,15.380859375,-17.822265625,-1.2969970703125
12.1899999,-10.050858497619629,0.17238251864910126,1.3503297567367554,9.46044921875,-14.923095703125,-0.9765625
12.209999900000001,-9.770736694335938,0.35913026332855225,1.6136919260025024,2.0599365234375,-4.1656494140625,-0.8697509765625
12.229999900000001,-9.536105155944824,0.49559974670410156,1.7621324062347412,-5.4779052734375,-0.3662109375,3.326416015625
12.2499999,-9.399636268615723,0.5530605912208557,1.7621324062347412,-11.23046875,-2.716064453125,6.16455078125
12.2699999,-9.387664794921875,0.5267243981361389,1.6352397203445435,-12.87841796875,-2.471923828125,3.96728515625
12.289999900000002,-9.488221168518066,0.4405331015586853,1.4245500564575195,-10.101318359375,1.129150390625,2.044677734375
12.309999900000001,-9.62947940826416,0.3256114423274994,1.1827356815338135,-7.0037841796875,-1.678466796875,2.9754638671875
12.3299999,-9.744400978088379,0.2106897532939911,0.9648633003234863,-5.31005859375,-6.4239501953125,2.5482177734375
12.3499999,-9.821015357971191,0.13407529890537262,0.8044517636299133,-2.7618408203125,-4.180908203125,1.495361328125
12.3699999,-9.873687744140625,0.10295066982507706,0.7134721279144287,-1.3275146484375,-1.708984375,3.5247802734375
12.389999900000001,-9.928754806518555,0.1173158809542656,0.6799532771110535,-1.373291015625,-4.180908203125,4.08935546875
12.4099999,-9.976638793945312,0.14844051003456116,0.6967126727104187,-2.1514892578125,-4.3182373046875,-1.2969970703125
12.4299999,-10.014945983886719,0.16998831927776337,0.7398083209991455,-1.40380859375,-0.42724609375,-3.936767578125
12.4499999,-10.046070098876953,0.1867477297782898,0.7972691655158997,0.0762939453125,-1.7242431640625,2.197265625
12.469999900000001,-10.050858497619629,0.19871874153614044,0.8451532125473022,-0.67138671875,-5.8135986328125,6.04248046875
12.4899999,-10.043676376342773,0.21547815203666687,0.871489405632019,-1.3275146484375,-5.462646484375,1.6326904296875
12.5099999,-10.062829971313477,0.24181437492370605,0.8810662031173706,0.5340576171875,-3.2958984375,-1.28173828125
12.5299999,-10.077195167541504,0.26575639843940735,0.8738836050033569,2.1209716796875,-5.096435546875,0.213623046875
12.549999900000001,-10.036493301391602,0.272938996553421,0.8667010068893433,2.3040771484375,-7.0037841796875,-0.732421875
12.569999900000001,-10.11550235748291,0.304063618183136,0.8930372595787048,2.5177001953125,-1.8310546875,-2.3040771484375
12.5899999,-10.125079154968262,0.29209262132644653,0.9361328482627869,1.220703125,2.7313232421875,-6.6070556640625
12.6099999,-10.218452453613281,0.31364041566848755,0.9959878921508789,-2.166748046875,1.0223388671875,-5.0811767578125
12.629999900000001,-10.196905136108398,0.35673606395721436,1.0438719987869263,-2.9296875,1.7242431640625,3.448486328125
12.649999900000001,-10.177751541137695,0.3926490843296051,1.048660397529602,-0.4730224609375,0.9307861328125,0.3814697265625
12.6699999,-10.065223693847656,0.4405331015586853,1.0438719987869263,1.6326904296875,-1.190185546875,-2.655029296875
12.6899999,-9.962273597717285,0.49320554733276367,1.0654197931289673,1.3275146484375,-1.7547607421875,-2.3651123046875
12.709999900000001,-9.888052940368652,0.5578489899635315,1.1755530834197998,-1.739501953125,0.701904296875,-2.9449462890625
12.729999900000001,-9.804255485534668,0.6200982332229614,1.3623007535934448,-7.598876953125,6.6986083984375,-3.60107421875
12.7499999,-9.761159896850586,0.6177040338516235,1.5538369417190552,-12.8936767578125,12.237548828125,-3.753662109375
12.7699999,-9.75397777557373,0.5099649429321289,1.6711528301239014,-16.0675048828125,13.3819580078125,-4.150390625
12.789999900000002,-9.775525093078613,0.28730419278144836,1.6304513216018677,-15.13671875,13.3819580078125,-2.6397705078125
12.809999900000001,-9.847352027893066,0.023942016065120697,1.4413094520568848,-10.650634765625,12.725830078125,0.4730224609375
12.8299999,-9.923966407775879,-0.14604631066322327,1.158793568611145,-4.425048828125,10.68115234375,2.6702880859375
12.8499999,-9.99100399017334,-0.19632454216480255,0.8786720037460327,3.5552978515625,7.62939453125,2.227783203125
12.8699999,-10.02452278137207,-0.1149216815829277,0.6871358752250671,9.979248046875,5.55419921875,0.1068115234375
12.889999900000001,-10.022128105163574,0.033518824726343155,0.5817909836769104,11.23046875,4.8675537109375,-1.2359619140625
12.9099999,-9.99100399017334,0.24899697303771973,0.5482721924781799,11.4288330078125,2.5634765625,-3.2806396484375
12.9299999,-9.979032516479492,0.4692635238170624,0.5363011956214905,13.0462646484375,0.640869140625,-5.4779052734375
12.9499999,-9.959878921508789,0.6536170840263367,0.5147533416748047,14.09912109375,-0.8697509765625,-8.3770751953125
12.969999900000001,-9.983820915222168,0.7326257228851318,0.49799394607543945,14.8162841796875,-2.899169921875,-12.39013671875
12.9899999,-9.998186111450195,0.6967126727104187,0.5219359993934631,18.5699462890625,-5.0506591796875,-13.916015625
13.0099999,-10.010157585144043,0.49559974670410156,0.5937620401382446,23.9410400390625,-5.79833984375,-12.237548828125
13.0299999,-10.02691650390625,0.21308395266532898,0.6751648783683777,26.9012451171875,-7.171630859375,-10.6201171875
13.049999900000001,-10.012551307678223,-0.06703764945268631,0.7829039692878723,28.8543701171875,-9.0179443359375,-8.1787109375
13.069999900000001,-9.99339771270752,-0.304063618183136,0.9050082564353943,28.0609130859375,-8.0413818359375,-3.0975341796875
13.0899999,-9.95748519897461,-0.43095630407333374,1.0271124839782715,22.64404296875,-6.622314453125,-0.732421875
13.1099999,-9.916783332824707,-0.4381389021873474,1.173158884048462,16.7694091796875,-5.8441162109375,-0.8087158203125
13.129999900000001,-9.86650562286377,-0.31842881441116333,1.3215993642807007,12.3443603515625,-3.509521484375,0.54931640625
13.149999900000001,-9.830592155456543,-0.12449848651885986,1.4101848602294922,8.026123046875,0.5645751953125,2.593994140625
13.1699999,-9.81143856048584,0.11013327538967133,1.4053963422775269,4.08935546875,2.044677734375,1.2359619140625
13.1899999,-9.823410034179688,0.3471592366695404,1.3239935636520386,3.265380859375,1.3275146484375,-2.5482177734375
13.209999900000001,-9.849745750427246,0.49559974670410156,1.173158884048462,4.180908203125,0.5340576171875,-4.5318603515625
13.229999900000001,-9.90241813659668,0.5219359993934631,0.9816226959228516,5.6610107421875,-0.396728515625,-5.79833984375
13.2499999,-9.799467086791992,0.35913026332855225,0.7709329724311829,8.7738037109375,-3.84521484375,-6.6375732421875
13.2699999,-9.938331604003906,0.0933738648891449,0.6344634294509888,13.8702392578125,-8.48388671875,-2.593994140625
13.289999900000002,-9.921571731567383,-0.19871874153614044,0.5267243981361389,18.9666748046875,-13.97705078125,-5.2337646484375
13.309999900000001,-10.062829971313477,-0.507570743560791,0.5482721924781799,22.4456787109375,-15.106201171875,1.953125
13.3299999,-10.141838073730469,-0.6871358752250671,0.6584054827690125,24.7802734375,-16.1895751953125,9.521484375
13.3499999,-10.103530883789062,-0.6655880808830261,0.9385270476341248,23.101806640625,-16.05224609375,12.786865234375
13.3699999,-9.986215591430664,-0.4812345504760742,1.316810965538025,10.3912353515625,-11.41357421875,14.2669677734375
13.389999900000001,-9.84256362915039,-0.19153612852096558,1.7908629179000854,-9.735107421875,-1.40380859375,15.167236328125
13.4099999,-9.576807022094727,0.751779317855835,2.6599581241607666,-38.5894775390625,15.9912109375,15.2740478515625
13.4299999,-9.564835548400879,1.1300631761550903,2.7222073078155518,-43.0755615234375,20.6451416015625,8.3770751953125
13.4499999,-9.624691009521484,1.2737152576446533,2.3989901542663574,-32.40966796875,20.3704833984375,3.692626953125
13.469999900000001,-9.749189376831055,1.137245774269104,1.7549498081207275,-17.547607421875,12.8326416015625,4.8675537109375
13.4899999,-9.86889934539795,0.7398083209991455,1.1875240802764893,-6.4697265625,7.0648193359375,4.33349609375
13.5099999,-9.974244117736816,0.2777273952960968,0.6607996821403503,3.11279296875,5.706787109375,0.3509521484375
13.5299999,-9.986215591430664,-0.12210428714752197,0.42377370595932007,9.94873046875,5.7525634765625,4.119873046875
13.549999900000001,-10.038887977600098,-0.15322890877723694,0.3974374830722809,6.8817138671875,3.173828125,10.9405517578125
13.569999900000001,-9.971850395202637,0.033518824726343155,0.5793967843055725,-1.373291015625,1.46484375,10.80322265625
13.5899999,-9.983820915222168,0.4884171485900879,0.8164227604866028,-7.415771484375,5.37109375,5.157470703125
13.6099999,-9.876082420349121,0.9433154463768005,1.1204863786697388,-10.1165771484375,4.2572021484375,3.5247802734375
13.629999900000001,-9.821015357971191,1.3072341680526733,1.3287819623947144,-16.754150390625,8.4228515625,-3.7078857421875
13.649999900000001,-9.825803756713867,1.3838485479354858,1.4748282432556152,-23.0560302734375,13.5955810546875,-12.14599609375
13.6699999,-9.746794700622559,1.1683704853057861,1.3287819623947144,-22.27783203125,16.4794921875,-9.3231201171875
13.6899999,-9.804255485534668,0.8379706144332886,1.2401964664459229,-17.181396484375,14.6942138671875,-1.312255859375
13.709999900000001,-9.911994934082031,0.43095630407333374,0.9672574996948242,-13.2598876953125,11.3525390625,1.2969970703125
13.729999900000001,-9.95748519897461,0.09816227108240128,0.7541735172271729,-12.0391845703125,8.1329345703125,0.5340576171875
13.7499999,-10.120290756225586,-0.17717093229293823,0.47405192255973816,-5.3558349609375,1.6326904296875,1.556396484375
13.7699999,-10.1753568649292,-0.3256114423274994,0.22744916379451752,6.8817138671875,-3.4637451171875,1.4190673828125
13.789999900000002,-10.199298858642578,-0.27054479718208313,0.05027823522686958,10.6048583984375,-6.317138671875,2.1820068359375
13.809999900000001,-10.110713958740234,-0.038307227194309235,0.043095629662275314,3.3416748046875,-6.805419921875,1.556396484375
13.8299999,-9.988609313964844,0.42856210470199585,0.31842881441116333,-3.96728515625,-6.28662109375,2.2735595703125
13.8499999,-9.909601211547852,0.9888052940368652,0.7709329724311829,-9.70458984375,-4.57763671875,-0.9613037109375
13.8699999,-9.773131370544434,1.4077905416488647,1.2856862545013428,-23.01025390625,2.960205078125,-6.3018798828125
13.889999900000001,-9.720458984375,1.460463047027588,1.601720929145813,-33.7677001953125,7.7362060546875,-11.8408203125
13.9099999,-9.68933391571045,1.0965443849563599,1.8148049116134644,-27.9998779296875,12.4359130859375,-14.3890380859375
13.9299999,-9.68933391571045,0.4668693244457245,1.7836803197860718,-20.9808349609375,13.85498046875,-5.462646484375
13.9499999,-9.72285270690918,-0.17477671802043915,1.7932571172714233,-32.7911376953125,20.4315185546875,6.0272216796875
13.969999900000001,-9.72285270690918,-0.7350199222564697,1.5083470344543457,-42.6025390625,26.6876220703125,16.54052734375
13.9899999,-9.86650562286377,-0.8451532125473022,1.2617442607879639,-27.0843505859375,20.56884765625,19.1497802734375
14.0099999,-9.93593692779541,-0.6057330369949341,0.6009446382522583,-12.3138427734375,12.1917724609375,12.8326416015625
14.0299999,-10.11550235748291,-0.15801730751991272,-0.1388636976480484,0.79345703125,-2.3040771484375,6.011962890625
14.049999900000001,-10.311826705932617,0.45489832758903503,-0.8140285611152649,20.08056640625,-13.73291015625,-5.5389404296875
14.069999900000001,-10.414777755737305,1.0127472877502441,-1.278503656387329,37.933349609375,-22.705078125,-12.63427734375
14.0899999,-10.3549222946167,1.338358759880066,-1.2689268589019775,36.376953125,-29.78515625,-15.9454345703125
14.1099999,-10.290278434753418,1.3215993642807007,-0.7852981686592102,24.9786376953125,-31.7230224609375,-14.739990234375
14.129999900000001,-10.074800491333008,1.05105459690094,0.06703764945268631,12.63427734375,-22.9034423828125,-10.5133056640625
14.149999900000001,-9.9000244140625,0.5841852426528931,1.0295066833496094,1.52587890625,-13.00048828125,-3.387451171875
14.1699999,-9.739612579345703,-0.011971008032560349,1.845929503440857,-8.1939697265625,-13.580322265625,0.4730224609375
14.1899999,-9.569623947143555,-0.31124621629714966,2.3511061668395996,-13.1988525390625,-5.5389404296875,3.41796875
14.209999900000001,-9.581595420837402,-0.4644751250743866,2.513911724090576,-16.90673828125,9.1552734375,8.36181640625
14.229999900000001,-9.5408935546875,-0.27054479718208313,2.3367409706115723,-17.547607421875,12.6495361328125,8.6822509765625
14.2499999,-9.670180320739746,0.2059013396501541,2.1595699787139893,-17.303466796875,6.988525390625,7.659912109375
14.2699999,-9.725247383117676,0.7350199222564697,1.8770540952682495,-27.191162109375,11.474609375,-0.885009765625
14.289999900000002,-9.77791976928711,1.1228805780410767,1.5442601442337036,-32.89794921875,20.44677734375,-7.9498291015625
14.309999900000001,-9.832986831665039,1.2018892765045166,1.3096283674240112,-24.444580078125,15.7623291015625,-11.0931396484375
14.3299999,-9.890447616577148,0.9097966551780701,0.8978256583213806,-15.6402587890625,12.0697021484375,-11.8865966796875
14.3499999,-9.981427192687988,0.2944868206977844,0.4836287498474121,-9.5672607421875,11.5814208984375,-7.1868896484375
14.3699999,-10.105925559997559,-0.3902548849582672,0.07900865375995636,-1.9683837890625,9.9334716796875,2.5634765625
14.389999900000001,-10.199298858642578,-0.8475474119186401,-0.304063618183136,12.9852294921875,-4.4708251953125,8.758544921875
14.4099999,-10.254365921020508,-0.9576807022094727,-0.4620809257030487,34.3017578125,-20.4010009765625,9.94873046875
14.4299999,-10.311826705932617,-0.667982280254364,-0.3687070608139038,33.782958984375,-19.2108154296875,9.002685546875
14.4499999,-10.196905136108398,-0.038307227194309235,-0.06703764945268631,14.617919921875,-17.1356201171875,5.126953125
14.469999900000001,-10.036493301391602,0.6536170840263367,0.5267243981361389,1.312255859375,-18.798828125,-2.01416015625
14.4899999,-9.904812812805176,1.2018892765045166,1.194706678390503,-13.5955810546875,-9.7808837890625,-8.0413818359375
14.5099999,-9.658209800720215,1.359906554222107,1.745373010635376,-32.16552734375,6.5765380859375,-3.692626953125
14.5299999,-9.648633003234863,1.1037269830703735,2.0685901641845703,-38.238525390625,17.2882080078125,-0.5950927734375
14.549999900000001,-9.624691009521484,0.6392518281936646,1.9728221893310547,-21.0418701171875,3.7841796875,2.9296875
14.569999900000001,-9.797073364257812,0.05027823522686958,1.5131354331970215,-3.753662109375,-0.5950927734375,5.645751953125
14.5899999,-9.96945571899414,-0.33279404044151306,0.8164227604866028,12.75634765625,-8.270263671875,5.0201416015625
14.6099999,-10.0580415725708,-0.42856210470199585,0.33758243918418884,30.2276611328125,-19.439697265625,1.2664794921875
14.629999900000001,-10.091560363769531,-0.0933738648891449,0.4429273009300232,27.6947021484375,-19.9432373046875,-1.8310546875
14.649999900000001,-9.837775230407715,0.4596867263317108,1.1324573755264282,-10.5438232421875,0.8697509765625,-2.9144287109375
14.6699999,-9.622296333312988,0.993593692779541,1.9847931861877441,-55.1910400390625,36.041259765625,-4.364013671875
14.6899999,-9.442731857299805,1.2761094570159912,2.628833532333374,-57.525634765625,33.8897705078125,-1.983642578125
14.709999900000001,-9.493009567260742,1.161187767982483,2.5067291259765625,-44.219970703125,29.0374755859375,-1.8768310546875
14.729999900000001,-9.63187313079834,0.7948749661445618,1.8052281141281128,-28.7017822265625,19.71435546875,-2.777099609375
14.7499999,-9.962273597717285,0.27054479718208313,0.811634361743927,-17.02880859375,11.5966796875,-3.3721923828125
14.7699999,-10.17296314239502,-0.12689268589019775,-0.2059013396501541,4.0740966796875,0.8544921875,-6.8511962890625
14.789999900000002,-10.350133895874023,-0.5410895943641663,-0.7661445140838623,27.5421142578125,-14.3890380859375,-7.9193115234375
14.809999900000001,-10.505757331848145,-0.828393816947937,-1.137245774269104,33.4320068359375,-15.9454345703125,-3.9215087890625
14.8299999,-10.44350814819336,-0.9002198576927185,-0.9217676520347595,42.510986328125,-23.8037109375,8.23974609375
14.8499999,-10.357316970825195,-0.6943184733390808,-0.3495534360408783,46.142578125,-27.9388427734375,11.3372802734375
14.8699999,-10.108319282531738,-0.22744916379451752,0.4189853072166443,26.3214111328125,-19.95849609375,7.781982421875
14.889999900000001,-9.852140426635742,0.44771572947502136,1.2425906658172607,0.18310546875,-10.3302001953125,3.41796875
14.9099999,-9.660603523254395,1.1324573755264282,1.9728221893310547,-15.899658203125,-4.2877197265625,-1.3580322265625
14.9299999,-9.481039047241211,1.5729905366897583,2.408566951751709,-31.7840576171875,6.34765625,-9.765625
14.9499999,-9.485827445983887,1.599326729774475,2.6575639247894287,-42.449951171875,17.0745849609375,-12.7716064453125
14.969999900000001,-9.502586364746094,1.2042834758758545,2.403778553009033,-41.4886474609375,26.3519287109375,-4.82177734375
14.9899999,-9.708487510681152,0.4884171485900879,1.886630892753601,-20.599365234375,15.472412109375,0.5340576171875
15.0099999,-9.921571731567383,-0.33518823981285095,0.9576807022094727,8.453369140625,1.4495849609375,2.0599365234375
15.0299999,-10.26394271850586,-0.9457096457481384,-0.05746084079146385,35.491943359375,-13.4735107421875,4.8370361328125
15.049999900000001,-10.314221382141113,-1.0534487962722778,-0.6153098344802856,52.18505859375,-32.89794921875,4.638671875
15.069999900000001,-10.283096313476562,-0.6536170840263367,-0.4141969084739685,45.3948974609375,-29.754638671875,1.9378662109375
15.0899999,-9.940725326538086,0.20350714027881622,0.6727706789970398,5.3863525390625,-6.89697265625,-2.8076171875
15.1099999,-9.543288230895996,1.0534487962722778,2.1116859912872314,-53.4515380859375,30.6854248046875,-1.739501953125
15.129999900000001,-9.229647636413574,1.5849615335464478,3.1723172664642334,-80.6732177734375,49.4384765625,0.244140625
15.149999900000001,-9.258378028869629,1.5179238319396973,3.201047658920288,-65.5670166015625,39.7491455078125,-0.244140625
15.1699999,-9.528923034667969,0.9457096457481384,2.183511972427368,-31.9976806640625,21.8505859375,-2.716064453125
15.1899999,-9.99100399017334,0.14365209639072418,0.5027823448181152,10.833740234375,-1.922607421875,-4.4708251953125
15.209999900000001,-10.405200958251953,-0.5123591423034668,-0.8906430602073669,49.774169921875,-24.4903564453125,-4.5623779296875
15.229999900000001,-10.515334129333496,-0.7948749661445618,-1.414973258972168,65.73486328125,-35.6292724609375,-4.7149658203125
15.2499999,-10.438719749450684,-0.6655880808830261,-1.0127472877502441,44.677734375,-20.44677734375,-4.974365234375
15.2699999,-10.132261276245117,-0.24899697303771973,0.1604115068912506,17.3797607421875,-1.2969970703125,2.1514892578125
15.289999900000002,-9.818621635437012,0.2537853717803955,1.4317326545715332,0.946044921875,4.5928955078125,4.0130615234375
15.309999900000001,-9.66299819946289,0.6153098344802856,2.2409727573394775,-19.2108154296875,13.36669921875,1.77001953125
15.3299999,-9.569623947143555,0.7829039692878723,2.322375535964966,-29.2816162109375,18.310546875,1.77001953125
15.3499999,-9.799467086791992,0.6943184733390808,1.7118542194366455,-17.120361328125,7.8125,2.349853515625
15.3699999,-9.897629737854004,0.5386953949928284,0.9983820915222168,4.5318603515625,-14.129638671875,-5.3863525390625
15.389999900000001,-10.06043529510498,0.27054479718208313,0.5123591423034668,11.3677978515625,-15.3656005859375,-6.5460205078125
15.4099999,-10.031704902648926,0.07900865375995636,0.5578489899635315,1.6632080078125,1.28173828125,-0.823974609375
15.4299999,-9.943120002746582,0.002394201699644327,0.9026140570640564,-9.033203125,12.725830078125,3.7384033203125
15.4499999,-9.919178009033203,0,1.2018892765045166,-5.523681640625,8.9569091796875,2.8533935546875
15.469999900000001,-9.890447616577148,0.07422025501728058,1.158793568611145,3.143310546875,0.2288818359375,-0.823974609375
15.4899999,-9.979032516479492,0.1388636976480484,0.7805097699165344,12.26806640625,-4.7149658203125,-2.86865234375
15.5099999,-9.96945571899414,0.3447650372982025,0.6057330369949341,24.3377685546875,-15.6707763671875,-6.1798095703125
15.5299999,-9.888052940368652,0.5650315880775452,0.8738836050033569,15.4266357421875,-13.12255859375,-11.41357421875
15.549999900000001,-9.691728591918945,0.8092401623725891,1.5729905366897583,-22.918701171875,14.1143798828125,-13.4429931640625
15.569999900000001,-9.557653427124023,0.849941611289978,2.3032219409942627,-57.525634765625,43.7774658203125,-6.591796875
15.5899999,-9.521739959716797,0.586579442024231,2.360682964324951,-60.516357421875,45.6695556640625,-0.6561279296875
15.6099999,-9.828198432922363,0.0071826050989329815,1.4891934394836426,-33.3099365234375,18.4326171875,5.462646484375
15.629999900000001,-10.029311180114746,-0.586579442024231,0.19393034279346466,10.07080078125,-18.6767578125,4.3487548828125
15.649999900000001,-10.41956615447998,-0.9624691009521484,-1.1276689767837524,37.9180908203125,-26.6876220703125,-0.1373291015625
15.6699999,-10.512939453125,-0.8595184087753296,-1.5322890281677246,48.6297607421875,-32.04345703125,3.936767578125
15.6899999,-10.271124839782715,-0.36152446269989014,-0.768538773059845,29.72412109375,-39.2303466796875,-0.457763671875
15.709999900000001,-9.90241813659668,0.4213795065879822,0.8738836050033569,-22.216796875,-2.99072265625,-6.1187744140625
15.729999900000001,-9.502586364746094,0.9169792532920837,2.540247917175293,-72.7691650390625,45.0439453125,-4.8675537109375
15.7499999,-9.205705642700195,0.9672574996948242,3.3734302520751953,-72.5860595703125,51.025390625,-0.9613037109375
15.7699999,-9.516951560974121,0.38546648621559143,2.5737667083740234,-30.6549072265625,28.8848876953125,6.2255859375
15.789999900000002,-9.955090522766113,-0.38546648621559143,0.790086567401886,37.6434326171875,-15.3045654296875,11.138916015625
15.809999900000001,-10.378864288330078,-0.9217676520347595,-0.8667010068893433,77.7435302734375,-51.8035888671875,5.615234375
15.8299999,-10.584765434265137,-0.9720458984375,-1.5753847360610962,74.1119384765625,-46.722412109375,2.0751953125
15.8499999,-10.431536674499512,-0.5027823448181152,-1.1037269830703735,51.4373779296875,-25.5889892578125,4.3487548828125
15.869999900000002,-10.096348762512207,0.1628057211637497,0.20111294090747833,31.3262939453125,-12.20703125,3.2501220703125
15.889999900000001,-9.780313491821289,0.8212111592292786,1.5418659448623657,11.53564453125,-2.3193359375,0.2593994140625
15.9099999,-9.528923034667969,1.192312479019165,2.557007312774658,-10.2081298828125,12.4969482421875,-0.701904296875
15.9299999,-9.5624418258667,1.216254472732544,3.0119056701660156,-21.026611328125,20.3704833984375,-0.3814697265625
15.9499999,-9.545681953430176,0.8882488012313843,2.853888511657715,-19.34814453125,20.2178955078125,0.030517578125
15.969999900000001,-9.75637149810791,0.38307225704193115,2.2361843585968018,-7.3699951171875,14.4500732421875,6.622314453125
15.9899999,-9.86889934539795,-0.14604631066322327,1.4389152526855469,11.23046875,8.5296630859375,5.4168701171875
16.0099999,-9.945513725280762,-0.47644615173339844,0.7637503147125244,25.0244140625,2.5482177734375,6.1798095703125
16.0299999,-10.053253173828125,-0.5099649429321289,0.3687070608139038,28.8238525390625,0.4425048828125,8.0413818359375
16.0499999,-10.0580415725708,-0.3016694188117981,0.26096799969673157,30.853271484375,0.701904296875,5.5389404296875
16.0699999,-10.041281700134277,0.08379705995321274,0.3734954595565796,31.463623046875,1.2054443359375,2.7618408203125
16.089999900000002,-9.986215591430664,0.49320554733276367,0.5626373887062073,26.91650390625,1.5716552734375,-0.2899169921875
16.109999900000002,-10.089165687561035,0.8427590131759644,0.7852981686592102,20.111083984375,1.9989013671875,-3.9825439453125
16.1299999,-10.129867553710938,0.9840168952941895,0.9050082564353943,14.9688720703125,2.166748046875,-7.9345703125
16.1499999,-10.17296314239502,0.9409212470054626,0.9552865028381348,13.0767822265625,3.6163330078125,-4.0130615234375
16.1699999,-10.041281700134277,0.7086837291717529,0.8930372595787048,13.6871337890625,1.9073486328125,-1.0223388671875
16.1899999,-9.8784761428833,0.43095630407333374,0.7948749661445618,15.3045654296875,-1.678466796875,-2.9144287109375
16.2099999,-9.727641105651855,0.16759411990642548,0.7015010714530945,15.3350830078125,-2.838134765625,-1.8310546875
16.2299999,-9.775525093078613,0.031124621629714966,0.667982280254364,13.97705078125,-3.082275390625,3.47900390625
16.249999900000002,-9.981427192687988,-0.002394201699644327,0.6871358752250671,13.48876953125,-4.3792724609375,4.0740966796875
16.269999900000002,-10.699687004089355,0.17717093229293823,0.8212111592292786,11.65771484375,-5.218505859375,1.40380859375
16.2899999,-11.338939666748047,0.3998316824436188,0.8930372595787048,5.340576171875,-7.62939453125,-8.4228515625
16.3099999,-12.172121047973633,0.7733271718025208,0.9888052940368652,0.946044921875,-2.9296875,-6.866455078125
16.3299999,-12.588712692260742,1.0462661981582642,0.9433154463768005,1.89208984375,-7.1258544921875,-5.9051513671875
16.3499999,-12.516886711120605,1.2306196689605713,0.849941611289978,4.9896240234375,-8.209228515625,-19.59228515625
16.3699999,-12.00452709197998,1.2330138683319092,0.7158663272857666,7.476806640625,0.6866455078125,-31.768798828125
16.3899999,-11.17852783203125,1.072602391242981,0.6153098344802856,10.3302001953125,7.4310302734375,-31.402587890625
16.4099999,-10.259154319763184,0.8307880163192749,0.5482721924781799,12.8936767578125,12.0849609375,-18.2342529296875
16.429999900000002,-9.473855972290039,0.5985504388809204,0.5171475410461426,14.7857666015625,18.2037353515625,-7.01904296875
16.4499999,-8.990227699279785,0.4381389021873474,0.5219359993934631,14.495849609375,22.1099853515625,-6.04248046875
16.4699999,-8.853757858276367,0.38067805767059326,0.5410895943641663,13.36669921875,19.927978515625,-10.0555419921875
16.4899999,-8.944737434387207,0.3423708379268646,0.5554547905921936,14.7247314453125,15.7623291015625,-14.5111083984375
16.5099999,-9.150638580322266,0.2849099934101105,0.5410895943641663,18.890380859375,18.06640625,-17.5018310546875
16.5299999,-9.349357604980469,0.1628057211637497,0.49559974670410156,24.6734619140625,23.0255126953125,-18.85986328125
16.5499999,-9.526528358459473,-0.0071826050989329815,0.4381389021873474,30.6396484375,22.27783203125,-18.157958984375
16.5699999,-9.694122314453125,-0.20111294090747833,0.3878606855869293,35.46142578125,17.4713134765625,-16.11328125
16.589999900000002,-9.86889934539795,-0.38067805767059326,0.36152446269989014,38.9404296875,12.7716064453125,-16.6015625
16.609999900000002,-10.038887977600098,-0.5291185975074768,0.3711012601852417,41.839599609375,12.8173828125,-22.3541259765625
16.6299999,-10.182539939880371,-0.6320692300796509,0.40462008118629456,44.158935546875,16.9830322265625,-30.120849609375
16.6499999,-10.237606048583984,-0.7206547260284424,0.44771572947502136,44.8760986328125,20.4925537109375,-34.5306396484375
16.6699999,-10.218452453613281,-0.8044517636299133,0.4908113479614258,43.9300537109375,21.2249755859375,-34.149169921875
16.6899999,-10.153809547424316,-0.8954314589500427,0.5171475410461426,42.17529296875,20.5841064453125,-33.447265625
16.7099999,-10.067618370056152,-1.0007762908935547,0.5219359993934631,40.71044921875,20.6298828125,-36.285400390625
16.7299999,-10.019734382629395,-1.0989385843276978,0.5027823448181152,39.3218994140625,22.308349609375,-40.2679443359375
16.749999900000002,-10.012551307678223,-1.1899182796478271,0.45250412821769714,38.4979248046875,24.261474609375,-43.2891845703125
16.769999900000002,-10.019734382629395,-1.2880805730819702,0.3734954595565796,37.65869140625,21.9573974609375,-45.2117919921875
16.7899999,-10.029311180114746,-1.3886369466781616,0.27054479718208313,38.116455078125,15.4876708984375,-45.71533203125
16.8099999,-10.02691650390625,-1.4987702369689941,0.15083470940589905,39.4134521484375,12.75634765625,-46.0968017578125
16.8299999,-10.002974510192871,-1.6304513216018677,0.033518824726343155,40.1458740234375,13.5955810546875,-46.5087890625
16.8499999,-9.964667320251465,-1.7741034030914307,-0.06703764945268631,39.794921875,12.1917724609375,-47.0428466796875
16.8699999,-9.921571731567383,-1.941697597503662,-0.15083470940589905,39.031982421875,11.2457275390625,-49.5147705078125
16.8899999,-9.873687744140625,-2.1523873805999756,-0.21787235140800476,39.764404296875,11.53564453125,-52.642822265625
16.9099999,-9.835380554199219,-2.38462495803833,-0.26575639843940735,38.5589599609375,9.7808837890625,-53.1158447265625
16.929999900000002,-9.818621635437012,-2.6408045291900635,-0.304063618183136,35.5682373046875,7.476806640625,-54.0008544921875
16.9499999,-9.80904483795166,-2.911349296569824,-0.3256114423274994,34.0423583984375,7.62939453125,-57.830810546875
16.9699999,-9.813833236694336,-3.177105665206909,-0.3423708379268646,34.3780517578125,11.444091796875,-60.1043701171875
16.9899999,-9.821015357971191,-3.445256233215332,-0.35913026332855225,34.0576171875,12.2833251953125,-58.3953857421875
17.0099999,-9.828198432922363,-3.6846764087677,-0.3687070608139038,31.79931640625,5.767822265625,-56.1676025390625
17.0299999,-9.818621635437012,-3.9025487899780273,-0.38067805767059326,29.6783447265625,1.312255859375,-58.135986328125
17.0499999,-9.794678688049316,-4.079719543457031,-0.3758896589279175,30.181884765625,5.462646484375,-62.744140625
17.0699999,-9.765948295593262,-4.211400985717773,-0.36152446269989014,31.9366455078125,12.054443359375,-67.0166015625
17.089999900000002,-9.651026725769043,-4.3861775398254395,-0.2753331959247589,29.510498046875,6.6375732421875,-75.897216796875
17.109999900000002,-9.581595420837402,-4.458003520965576,-0.21547815203666687,26.85546875,5.2947998046875,-76.9195556640625
17.1299999,-9.485827445983887,-4.55616569519043,-0.14365209639072418,24.23095703125,7.7972412109375,-77.8961181640625
17.1499999,-9.38048267364502,-4.687847137451172,-0.08619125932455063,21.0418701171875,10.2386474609375,-79.5440673828125
17.1699999,-9.29189682006836,-4.850652694702148,-0.043095629662275314,17.852783203125,12.0086669921875,-81.6650390625
17.1899999,-9.20091724395752,-5.035006046295166,-0.043095629662275314,16.4642333984375,19.317626953125,-87.1734619140625
17.2099999,-9.078812599182129,-5.25527286529541,-0.07900865375995636,18.1121826171875,30.2734375,-94.54345703125
17.2299999,-8.937555313110352,-5.5114521980285645,-0.14365209639072418,21.697998046875,36.56005859375,-97.16796875
17.249999900000002,-8.789113998413086,-5.772420406341553,-0.21787235140800476,24.6429443359375,34.1339111328125,-95.245361328125
17.269999900000002,-8.640673637390137,-6.038176536560059,-0.2801215946674347,27.5421142578125,30.2734375,-97.503662109375
17.2899999,-8.506598472595215,-6.296750545501709,-0.3016694188117981,31.585693359375,30.9906005859375,-104.2327880859375
17.3099999,-8.370129585266113,-6.524199485778809,-0.26815059781074524,34.6832275390625,33.2183837890625,-109.80224609375
17.3299999,-8.188169479370117,-6.746860504150391,-0.1867477297782898,35.7513427734375,34.759521484375,-114.837646484375
17.3499999,-7.951143741607666,-6.9455790519714355,-0.047884032130241394,35.9039306640625,37.8875732421875,-120.9869384765625
17.3699999,-7.661445617675781,-7.129932880401611,0.11971008777618408,35.614013671875,46.295166015625,-126.2969970703125
17.3899999,-7.3454108238220215,-7.297526836395264,0.28730419278144836,33.355712890625,51.7425537109375,-128.2958984375
17.409999900000003,-7.029376029968262,-7.467514991760254,0.42377370595932007,29.296875,46.600341796875,-128.72314453125
17.429999900000002,-6.720524311065674,-7.625532627105713,0.5003881454467773,26.1077880859375,37.9486083984375,-131.805419921875
17.4499999,-6.399701118469238,-7.797914981842041,0.5171475410461426,25.238037109375,34.576416015625,-137.664794921875
17.4699999,-6.090848922729492,-7.987056732177734,0.5147533416748047,23.6663818359375,34.149169921875,-141.571044921875
17.4899999,-5.765237808227539,-8.154650688171387,0.49559974670410156,19.927978515625,38.7115478515625,-148.590087890625
17.5099999,-5.382165431976318,-8.348581314086914,0.4692635238170624,18.5089111328125,45.2423095703125,-163.5589599609375
17.5299999,-4.960785865783691,-8.559270858764648,0.42377370595932007,20.050048828125,42.78564453125,-171.234130859375
17.5499999,-4.378994941711426,-8.738836288452148,0.3471592366695404,21.2860107421875,33.843994140625,-168.8385009765625
17.5699999,-3.5697548389434814,-8.93037223815918,0.29209262132644653,22.247314453125,28.25927734375,-168.1671142578125
17.589999900000002,-2.650381326675415,-9.121908187866211,0.2801215946674347,22.3388671875,30.4107666015625,-161.163330078125
17.609999900000002,-1.678335428237915,-9.282320022583008,0.304063618183136,21.54541015625,30.181884765625,-144.287109375
17.6299999,-0.751779317855835,-9.409213066101074,0.38067805767059326,20.172119140625,18.218994140625,-128.814697265625
17.6499999,0.07422025501728058,-9.478644371032715,0.4668693244457245,16.9677734375,8.9569091796875,-116.3787841796875
17.6699999,0.7565677165985107,-9.452308654785156,0.5674257874488831,12.0391845703125,5.6304931640625,-98.0072021484375
17.6899999,1.3455413579940796,-9.301473617553711,0.6655880808830261,5.9814453125,6.591796875,-76.629638671875
17.7099999,1.7932571172714233,-9.095572471618652,0.7374141216278076,1.0986328125,9.8114013671875,-63.812255859375
17.7299999,2.008735179901123,-8.887276649475098,0.751779317855835,-2.8076171875,5.6610107421875,-51.4373779296875
17.749999900000002,2.0159177780151367,-8.664615631103516,0.7134721279144287,-6.53076171875,-5.645751953125,-35.614013671875
17.769999900000002,1.9033904075622559,-8.497021675109863,0.706289529800415,-10.162353515625,-6.683349609375,-32.1807861328125
17.7899999,1.7573440074920654,-8.401253700256348,0.6703764796257019,-15.960693359375,10.772705078125,-37.200927734375
17.8099999,1.623268723487854,-8.389283180236816,0.6560112833976746,-20.263671875,18.8140869140625,-34.48486328125
17.8299999,1.53707754611969,-8.470685958862305,0.6033388376235962,-22.39990234375,6.500244140625,-25.238037109375
17.8499999,1.479616641998291,-8.62630844116211,0.5123591423034668,-22.7813720703125,1.190185546875,-26.3824462890625
17.8699999,1.5203180313110352,-8.815450668334961,0.37828385829925537,-22.796630859375,8.7432861328125,-32.7606201171875
17.8899999,1.5705963373184204,-9.047688484191895,0.24660277366638184,-22.125244140625,6.6986083984375,-29.052734375
17.909999900000003,1.7381904125213623,-9.232041358947754,0.1149216815829277,-19.805908203125,-4.1961669921875,-19.3023681640625
17.929999900000002,1.886630892753601,-9.406818389892578,-0.004788403399288654,-15.2587890625,0,-19.7296142578125
17.9499999,2.0446481704711914,-9.495404243469238,-0.09576806426048279,-9.857177734375,8.7738037109375,-24.7650146484375
17.9699999,2.1930887699127197,-9.521739959716797,-0.17477671802043915,-6.1492919921875,8.4075927734375,-22.5677490234375
17.9899999,2.319981336593628,-9.50737476348877,-0.23702596127986908,-2.2125244140625,7.75146484375,-17.8375244140625
18.0099999,2.3989901542663574,-9.493009567260742,-0.2825157940387726,3.3111572265625,6.103515625,-17.2119140625
18.0299999,2.4612393379211426,-9.476250648498535,-0.27054479718208313,7.5836181640625,0.6103515625,-17.76123046875
18.0499999,2.5306711196899414,-9.433155059814453,-0.17238251864910126,8.48388671875,-3.4027099609375,-14.0838623046875
18.0699999,2.6144683361053467,-9.378087997436523,-0.0694318488240242,6.6375732421875,3.662109375,-8.392333984375
18.089999900000002,2.6623523235321045,-9.320627212524414,0.06464344263076782,6.28662109375,5.340576171875,-6.04248046875
18.109999900000002,2.6647465229034424,-9.232041358947754,0.15083470940589905,7.0648193359375,-5.4931640625,-5.645751953125
18.1299999,2.63362193107605,-9.186552047729492,0.22505496442317963,5.5389404296875,-10.986328125,-5.8441162109375
18.1499999,2.6647465229034424,-9.133879661560059,0.26815059781074524,2.0294189453125,-0.54931640625,-6.16455078125
18.1699999,2.717418909072876,-9.100360870361328,0.2944868206977844,-0.48828125,11.505126953125,-4.3792724609375
18.1899999,2.75812029838562,-9.11233139038086,0.2513911724090576,-0.9613037109375,6.6070556640625,0.54931640625
18.2099999,2.717418909072876,-9.14585018157959,0.20111294090747833,-0.7476806640625,-6.561279296875,2.960205078125
18.2299999,2.63362193107605,-9.155426979064941,0.1364694982767105,-1.4495849609375,-6.683349609375,-0.7476806640625
18.249999900000002,2.564189910888672,-9.248801231384277,0.11971008777618408,-3.0059814453125,6.28662109375,-4.8828125
18.269999900000002,2.5474305152893066,-9.277531623840332,0.10534487664699554,-3.96728515625,8.453369140625,-2.4261474609375
18.2899999,2.557007312774658,-9.337387084960938,0.10295066982507706,-3.5552978515625,-3.7841796875,5.157470703125
18.3099999,2.564189910888672,-9.373299598693848,0.10773907601833344,-4.608154296875,-7.6446533203125,7.0343017578125
18.3299999,2.564189910888672,-9.39245319366455,0.12449848651885986,-6.8359375,1.556396484375,2.716064453125
18.3499999,2.537853717803955,-9.440337181091309,0.11971008777618408,-7.9193115234375,5.92041015625,1.129150390625
18.3699999,2.5330653190612793,-9.461885452270508,0.12689268589019775,-5.79833984375,-3.1890869140625,5.67626953125
18.3899999,2.4851813316345215,-9.564835548400879,0.06703764945268631,-3.9825439453125,-7.5225830078125,7.5225830078125
18.409999900000003,2.47560453414917,-9.607931137084961,0.014365210197865963,-3.47900390625,-0.5950927734375,3.5247802734375
18.429999900000002,2.43011474609375,-9.655815124511719,-0.06703764945268631,-2.6092529296875,3.8299560546875,1.8310546875
18.4499999,2.4133553504943848,-9.6989107131958,-0.12449848651885986,0.1678466796875,-1.9073486328125,4.7454833984375
18.4699999,2.4013843536376953,-9.72285270690918,-0.16519992053508759,2.86865234375,-8.9263916015625,5.6610107421875
18.4899999,2.425326347351074,-9.710882186889648,-0.1388636976480484,2.5787353515625,-7.537841796875,3.0059814453125
18.5099999,2.4636335372924805,-9.68694019317627,-0.08619125932455063,0.2288818359375,-4.180908203125,3.0517578125
18.5299999,2.5043349266052246,-9.619902610778809,-0.040701430290937424,-1.373291015625,-4.5623779296875,5.859375
18.5499999,2.5115175247192383,-9.557653427124023,-0.028730420395731926,-1.89208984375,-5.6915283203125,6.3323974609375
18.5699999,2.4803929328918457,-9.519346237182617,-0.10295066982507706,-2.4261474609375,-3.814697265625,4.4097900390625
18.589999900000002,2.410961151123047,-9.516951560974121,-0.17477671802043915,-3.936767578125,-4.2572021484375,4.8980712890625
18.609999900000002,2.38462495803833,-9.48343276977539,-0.2298433631658554,-5.92041015625,-7.4005126953125,7.32421875
18.6299999,2.3726539611816406,-9.437943458557129,-0.2298433631658554,-8.3160400390625,-3.9825439453125,7.26318359375
18.6499999,2.363077163696289,-9.39245319366455,-0.26815059781074524,-8.97216796875,1.40380859375,6.1187744140625
18.6699999,2.3271639347076416,-9.397241592407227,-0.3471592366695404,-8.209228515625,0.9002685546875,6.4544677734375
18.6899999,2.2816741466522217,-9.433155059814453,-0.44771572947502136,-8.4991455078125,-1.617431640625,7.415771484375
18.7099999,2.205059766769409,-9.516951560974121,-0.5674257874488831,-11.0321044921875,-0.701904296875,8.0413818359375
18.7299999,2.121262788772583,-9.641449928283691,-0.689530074596405,-12.603759765625,0.7171630859375,9.0484619140625
18.749999900000002,2.0590133666992188,-9.691728591918945,-0.7757213711738586,-12.664794921875,1.89208984375,9.5977783203125
18.769999900000002,1.9512743949890137,-9.773131370544434,-0.8738836050033569,-11.474609375,5.7220458984375,7.2021484375
18.7899999,1.900996208190918,-9.81143856048584,-1.015141487121582,-9.796142578125,9.521484375,3.8604736328125
18.8099999,1.8914192914962769,-9.773131370544434,-1.0247182846069336,-8.331298828125,10.1165771484375,3.90625
18.8299999,1.9177556037902832,-9.763554573059082,-1.048660397529602,-8.331298828125,10.3607177734375,6.3934326171875
18.8499999,1.9943699836730957,-9.68694019317627,-0.9744400978088379,-8.4228515625,14.09912109375,6.9732666015625
18.8699999,2.0590133666992188,-9.701305389404297,-0.8810662031173706,-8.11767578125,19.1802978515625,4.974365234375
18.8899999,2.1140801906585693,-9.68694019317627,-0.7661445140838623,-7.354736328125,22.5067138671875,4.5928955078125
18.909999900000003,2.1068975925445557,-9.739612579345703,-0.6943184733390808,-7.1868896484375,23.468017578125,7.62939453125
18.929999900000002,2.070984363555908,-9.742006301879883,-0.629675030708313,-5.9814453125,18.829345703125,9.8724365234375
18.9499999,1.9752163887023926,-9.746794700622559,-0.6033388376235962,-5.4779052734375,14.373779296875,7.843017578125
18.9699999,1.886630892753601,-9.703699111938477,-0.6057330369949341,-4.7760009765625,16.693115234375,3.662109375
18.9899999,1.8483237028121948,-9.684545516967773,-0.6248866319656372,-5.2947998046875,19.7906494140625,1.15966796875
19.0099999,1.889025092124939,-9.660603523254395,-0.6368576288223267,-6.6375732421875,20.99609375,1.861572265625
19.0299999,1.987187385559082,-9.66539192199707,-0.6655880808830261,-8.056640625,20.782470703125,4.7149658203125
19.0499999,2.0614075660705566,-9.679757118225098,-0.6823474764823914,-8.8043212890625,20.3094482421875,9.0484619140625
19.0699999,2.075772762298584,-9.694122314453125,-0.6943184733390808,-9.3536376953125,18.7835693359375,11.3067626953125
19.089999900000002,2.0039467811584473,-9.718064308166504,-0.6943184733390808,-8.941650390625,19.53125,9.552001953125
19.109999900000002,1.8962076902389526,-9.744400978088379,-0.6799532771110535,-8.636474609375,19.744873046875,6.561279296875
19.1299999,1.7884687185287476,-9.78989028930664,-0.6655880808830261,-9.552001953125,18.9056396484375,6.7291259765625
19.1499999,1.702277421951294,-9.84495735168457,-0.6368576288223267,-9.27734375,15.3961181640625,9.1552734375
19.1699999,1.647210717201233,-9.914389610290527,-0.6320692300796509,-7.87353515625,10.7574462890625,10.406494140625
19.1899999,1.6304513216018677,-9.96945571899414,-0.5985504388809204,-7.110595703125,9.8876953125,9.8724365234375
19.2099999,1.5969325304031372,-10.010157585144043,-0.5793967843055725,-7.232666015625,12.3443603515625,9.1705322265625
19.2299999,1.5490485429763794,-10.029311180114746,-0.5530605912208557,-6.439208984375,14.007568359375,8.8958740234375
19.249999900000002,1.4676456451416016,-10.007762908935547,-0.5506663918495178,-4.08935546875,10.3607177734375,6.28662109375
19.269999900000002,1.3934253454208374,-9.962273597717285,-0.5530605912208557,-2.5482177734375,6.8817138671875,1.40380859375
19.2899999,1.3407529592514038,-9.892841339111328,-0.5746083855628967,-2.3651123046875,9.307861328125,-2.74658203125
19.3099999,1.3910311460494995,-9.80904483795166,-0.5913678407669067,-2.227783203125,14.2974853515625,-3.692626953125
19.3299999,1.4700398445129395,-9.746794700622559,-0.6057330369949341,-0.9002685546875,14.1448974609375,-2.349853515625
19.3499999,1.5921441316604614,-9.694122314453125,-0.6153098344802856,-0.0152587890625,6.683349609375,-0.79345703125
19.3699999,1.7070658206939697,-9.658209800720215,-0.6105214357376099,-0.6103515625,1.800537109375,-0.457763671875
19.3899999,1.7908629179000854,-9.634267807006836,-0.5961562395095825,-1.800537109375,4.8370361328125,0.274658203125
19.409999900000003,1.843535304069519,-9.605537414550781,-0.5913678407669067,-2.6092529296875,7.476806640625,2.8839111328125
19.429999900000002,1.8291701078414917,-9.57441234588623,-0.6009446382522583,-3.11279296875,4.5318603515625,4.913330078125
19.4499999,1.7717092037200928,-9.53849983215332,-0.6344634294509888,-2.9754638671875,1.8768310546875,2.6092529296875
19.4699999,1.7046716213226318,-9.531316757202148,-0.6775590777397156,-1.739501953125,5.06591796875,-2.1514892578125
19.4899999,1.6855180263519287,-9.543288230895996,-0.7230489253997803,-0.6256103515625,7.415771484375,-3.2806396484375
19.5099999,1.6735470294952393,-9.610325813293457,-0.7422025203704834,-0.274658203125,6.2255859375,0.5950927734375
19.5299999,1.6687586307525635,-9.682151794433594,-0.7637503147125244,0.67138671875,3.5858154296875,4.45556640625
19.5499999,1.6519991159439087,-9.75637149810791,-0.7709329724311829,1.7242431640625,1.1444091796875,4.7149658203125
19.5699999,1.5897499322891235,-9.804255485534668,-0.7637503147125244,1.983642578125,-0.213623046875,3.90625
19.589999900000002,1.5394717454910278,-9.797073364257812,-0.7661445140838623,2.0751953125,0.7476806640625,3.9215087890625
19.609999900000002,1.4891934394836426,-9.773131370544434,-0.7541735172271729,3.570556640625,2.8076171875,2.6702880859375
19.6299999,1.4700398445129395,-9.72285270690918,-0.7493851184844971,4.669189453125,3.509521484375,0
19.6499999,1.4844050407409668,-9.667786598205566,-0.7469909191131592,4.1046142578125,1.190185546875,0.3662109375
19.6699999,1.53707754611969,-9.634267807006836,-0.7398083209991455,2.7618408203125,-1.617431640625,4.0435791015625
19.6899999,1.5969325304031372,-9.607931137084961,-0.7350199222564697,1.7852783203125,1.7547607421875,5.7830810546875
19.7099999,1.644816517829895,-9.588777542114258,-0.7350199222564697,1.7547607421875,5.9356689453125,5.0811767578125
19.7299999,1.6208745241165161,-9.591172218322754,-0.7541735172271729,2.5177001953125,2.7008056640625,4.6234130859375
19.749999900000002,1.5825673341751099,-9.593565940856934,-0.7829039692878723,3.021240234375,-2.4566650390625,4.6539306640625
19.769999900000002,1.5179238319396973,-9.624691009521484,-0.7996633648872375,1.9683837890625,-3.1890869140625,4.45556640625
19.7899999,1.4772224426269531,-9.658209800720215,-0.7972691655158997,0.152587890625,0.6103515625,4.791259765625
19.8099999,1.414973258972168,-9.734824180603027,-0.790086567401886,-1.1444091796875,2.3345947265625,6.439208984375
19.8299999,1.335964560508728,-9.81143856048584,-0.7709329724311829,-1.8310546875,-2.13623046875,7.7362060546875
19.8499999,1.2330138683319092,-9.880870819091797,-0.7493851184844971,-2.7923583984375,-2.3193359375,6.5155029296875
19.8699999,1.1348515748977661,-9.919178009033203,-0.7469909191131592,-4.547119140625,6.0882568359375,3.509521484375
19.8899999,1.0606313943862915,-9.911994934082031,-0.7110779285430908,-7.0037841796875,7.99560546875,1.5411376953125
19.909999900000003,1.0821791887283325,-9.864110946655273,-0.7015010714530945,-9.246826171875,0,2.349853515625
19.929999900000002,1.0749965906143188,-9.837775230407715,-0.6943184733390808,-12.542724609375,-0.732421875,4.2877197265625
19.9499999,1.1635819673538208,-9.797073364257812,-0.7038952708244324,-15.56396484375,7.6446533203125,3.7994384765625
19.9699999,1.2186486721038818,-9.77791976928711,-0.730231523513794,-19.256591796875,12.39013671875,2.0751953125
19.9899999,1.2856862545013428,-9.751583099365234,-0.7781155705451965,-24.078369140625,13.4429931640625,2.2125244140625
