# Time (seconds),Accel_X,Accel_Y,Accel_Z,Gyro_X,Gyro_Y,Gyro_Z
0.0099999,-0.4572925269603729,-9.265560150146484,2.425326347351074,-22.6593017578125,-67.7032470703125,-24.23095703125
0.029999900000000003,-0.26815059781074524,-9.107542991638184,2.22660756111145,-23.2391357421875,-70.831298828125,-26.4892578125
0.0499999,-0.08858546614646912,-8.937555313110352,2.0039467811584473,-22.2930908203125,-62.713623046875,-31.707763671875
0.0699999,0.17956513166427612,-8.796297073364258,1.8100165128707886,-22.125244140625,-55.877685546875,-31.3262939453125
0.08999990000000001,0.47644615173339844,-8.734047889709473,1.6280571222305298,-23.101806640625,-51.3763427734375,-28.1524658203125
0.10999990000000001,0.8068459630012512,-8.774748802185059,1.4748282432556152,-22.39990234375,-41.44287109375,-28.13720703125
0.1299999,1.1348515748977661,-8.942343711853027,1.2665326595306396,-17.2271728515625,-27.069091796875,-29.4952392578125
0.14999990000000002,1.479616641998291,-9.141061782836914,1.0295066833496094,-10.498046875,-32.806396484375,-24.10888671875
0.1699999,1.8195933103561401,-9.35654067993164,0.7948749661445618,-3.2806396484375,-41.80908203125,-18.1121826171875
0.1899999,2.190694570541382,-9.502586364746094,0.5889736413955688,5.5999755859375,-29.0985107421875,-13.97705078125
0.20999990000000002,2.5306711196899414,-9.53849983215332,0.5099649429321289,11.4593505859375,-9.979248046875,-5.7373046875
0.2299999,2.7461493015289307,-9.48343276977539,0.4836287498474121,14.129638671875,-0.0762939453125,2.960205078125
0.2499999,2.7700912952423096,-9.397241592407227,0.47644615173339844,18.49365234375,-3.875732421875,7.293701171875
0.2699999,2.5905263423919678,-9.287108421325684,0.45010992884635925,22.88818359375,-15.4266357421875,7.2479248046875
0.28999990000000003,2.3343467712402344,-9.229647636413574,0.45250412821769714,25.08544921875,-25.4058837890625,8.148193359375
0.3099999,2.0805611610412598,-9.215282440185547,0.48602294921875,26.0162353515625,-31.982421875,11.6119384765625
0.3299999,1.944091796875,-9.248801231384277,0.5793967843055725,24.96337890625,-47.79052734375,18.9361572265625
0.34999990000000003,1.9273324012756348,-9.258378028869629,0.727837324142456,19.8974609375,-70.404052734375,28.4423828125
0.3699999,1.9512743949890137,-9.2033109664917,0.9217676520347595,15.5181884765625,-82.1990966796875,33.5235595703125
0.3899999,2.013523578643799,-9.081207275390625,1.1803414821624756,8.5906982421875,-81.1309814453125,34.3017578125
0.40999990000000003,2.1116859912872314,-8.944737434387207,1.522712230682373,-1.068115234375,-68.2220458984375,31.25
0.4299999,2.188300371170044,-8.844181060791016,1.8770540952682495,-11.3983154296875,-40.863037109375,24.7650146484375
0.4499999,2.2170307636260986,-8.813055992126465,2.1763293743133545,-22.52197265625,-9.70458984375,18.341064453125
0.4699999,2.1523873805999756,-8.832210540771484,2.3535003662109375,-31.8756103515625,18.1732177734375,11.2762451171875
0.4899999,1.9393033981323242,-8.89445972442627,2.346317768096924,-36.1328125,45.6695556640625,1.6326904296875
0.5099999,1.5298948287963867,-8.927978515625,2.075772762298584,-36.1175537109375,67.4285888671875,-5.18798828125
0.5299999,1.01753568649292,-8.968679428100586,1.678335428237915,-33.0810546875,67.44384765625,-9.0484619140625
0.5499999,0.5147533416748047,-9.023746490478516,1.2473790645599365,-31.3568115234375,57.891845703125,-18.280029296875
0.5699999,0.08858546614646912,-9.184157371520996,0.7805097699165344,-21.1334228515625,46.1273193359375,-26.6571044921875
0.5899998999999999,-0.08858546614646912,-9.490615844726562,0.4908113479614258,-16.0369873046875,5.279541015625,-27.2064208984375
0.6099998999999999,-0.0454898327589035,-9.86889934539795,0.2825157940387726,-12.63427734375,-41.015625,-18.00537109375
0.6299999,0.2801215946674347,-10.244789123535156,0.2585737705230713,-4.4708251953125,-60.6231689453125,-14.34326171875
0.6499999,0.8092401623725891,-10.508151054382324,0.3663128614425659,4.5166015625,-40.985107421875,-18.2647705078125
0.6699999,1.3239935636520386,-10.649409294128418,0.49799394607543945,16.17431640625,-4.3792724609375,-25.8636474609375
0.6899999,1.764526605606079,-10.654197692871094,0.6440402865409851,25.4974365234375,9.6435546875,-32.867431640625
0.7099999,2.03507137298584,-10.651803016662598,0.667982280254364,30.609130859375,6.378173828125,-37.9180908203125
0.7299998999999999,2.1930887699127197,-10.565611839294434,0.6631938815116882,31.6009521484375,-3.8604736328125,-32.3028564453125
0.7499998999999999,2.3942017555236816,-10.412383079528809,0.7350199222564697,27.52685546875,-14.0533447265625,-23.6663818359375
0.7699999,2.6431987285614014,-10.187328338623047,0.9074024558067322,20.9808349609375,-8.5601806640625,-25.45166015625
0.7899999,2.808398485183716,-9.847352027893066,1.1827356815338135,12.847900390625,9.1705322265625,-32.8826904296875
0.8099999,2.9233202934265137,-9.581595420837402,1.4748282432556152,4.8370361328125,21.942138671875,-37.0025634765625
0.8299999,2.8850131034851074,-9.404424667358398,1.6903064250946045,-1.15966796875,23.345947265625,-32.318115234375
0.8499998999999999,2.736572504043579,-9.368511199951172,1.745373010635376,-4.8065185546875,9.4146728515625,-27.2216796875
0.8699998999999999,2.5522189140319824,-9.454702377319336,1.7142484188079834,-4.0130615234375,-12.054443359375,-27.374267578125
0.8899999,2.322375535964966,-9.5408935546875,1.6208745241165161,1.373291015625,-22.8118896484375,-27.4658203125
0.9099999,2.1763293743133545,-9.583989143371582,1.6184803247451782,7.6904296875,-17.669677734375,-28.5797119140625
0.9299999,2.1308395862579346,-9.576807022094727,1.647210717201233,14.190673828125,2.3956298828125,-33.599853515625
0.9499999,2.2146365642547607,-9.533711433410645,1.7381904125213623,16.41845703125,14.6026611328125,-36.4227294921875
0.9699998999999999,2.382230758666992,-9.423578262329102,1.8076223134994507,16.3421630859375,13.427734375,-34.8663330078125
0.9899998999999999,2.5905263423919678,-9.277531623840332,1.8986018896102905,15.6402587890625,13.4429931640625,-34.7442626953125
1.0099999,2.829946517944336,-9.124302864074707,1.9297266006469727,13.5650634765625,15.777587890625,-40.52734375
1.0299999,3.047818660736084,-8.937555313110352,1.9704279899597168,11.53564453125,7.32421875,-47.119140625
1.0499999,3.3016040325164795,-8.793902397155762,2.030282974243164,2.8533935546875,-2.6397705078125,-46.3104248046875
1.0699999,3.555389642715454,-8.69095230102539,2.0805611610412598,-6.6986083984375,0.3509521484375,-42.0074462890625
1.0899999,3.8067808151245117,-8.621520042419434,2.140416383743286,-16.937255859375,2.7008056640625,-36.7279052734375
1.1099999,4.120420932769775,-8.621520042419434,2.1930887699127197,-26.885986328125,-3.47900390625,-27.4658203125
1.1299999,4.405331134796143,-8.647856712341309,2.2002713680267334,-34.66796875,-8.11767578125,-13.2904052734375
1.1499999,4.580107688903809,-8.69095230102539,2.10210919380188,-40.4205322265625,-2.838134765625,0.79345703125
1.1699998999999999,4.584896087646484,-8.712499618530273,1.946485996246338,-42.90771484375,-2.288818359375,7.14111328125
1.1899998999999999,4.369418144226074,-8.698134422302246,1.7190368175506592,-42.0989990234375,-9.1705322265625,4.57763671875
1.2099999,4.048594951629639,-8.667010307312012,1.45806884765625,-40.46630859375,-11.3067626953125,-1.312255859375
1.2299999,3.7253777980804443,-8.628703117370605,1.1875240802764893,-38.26904296875,-7.32421875,-7.1868896484375
1.2499999,3.5482068061828613,-8.628703117370605,0.9217676520347595,-35.125732421875,-4.4097900390625,-12.87841796875
1.2699999,3.5649664402008057,-8.698134422302246,0.6272808313369751,-28.594970703125,-8.72802734375,-15.07568359375
1.2899999,3.801992416381836,-8.877699851989746,0.2968810200691223,-26.42822265625,-16.998291015625,-6.3323974609375
1.3099999,4.182670593261719,-9.105149269104004,-0.019153613597154617,-13.61083984375,-16.3116455078125,9.6435546875
1.3299999,4.570530891418457,-9.294290542602539,-0.2801215946674347,7.3699951171875,-8.4075927734375,22.430419921875
1.3499999,4.709394931793213,-9.318233489990234,-0.4381389021873474,18.9666748046875,-1.3427734375,25.543212890625
1.3699999,4.32871675491333,-9.129091262817383,-0.3519476354122162,4.241943359375,-5.462646484375,19.1192626953125
1.3899999,3.9671921730041504,-8.69334602355957,-0.2585737705230713,-128.4942626953125,-20.5230712890625,0.5950927734375
1.4099999,3.5482068061828613,-8.322244644165039,0.15801730751991272,21.1334228515625,-41.0308837890625,-30.4412841796875
1.4299998999999999,3.581725835800171,-8.070854187011719,0.4165911078453064,21.0418701171875,9.246826171875,-34.088134765625
1.4499999,3.8953661918640137,-8.10437297821045,0.6320692300796509,-7.99560546875,30.45654296875,-18.5394287109375
1.4699999,4.323928356170654,-8.377311706542969,0.6248866319656372,-16.571044921875,9.8724365234375,-0.823974609375
1.4899999,4.568136692047119,-8.683769226074219,0.43335050344467163,-18.49365234375,2.716064453125,7.171630859375
1.5099999,4.5825018882751465,-8.908824920654297,0.15801730751991272,-15.2130126953125,32.4859619140625,-0.030517578125
1.5299999,4.338293552398682,-9.023746490478516,-0.07182604819536209,-6.500244140625,47.6837158203125,-17.2576904296875
1.5499999,4.015076160430908,-9.071630477905273,-0.20350714027881622,3.9825439453125,24.200439453125,-31.4178466796875
1.5699999,3.7277719974517822,-9.093177795410156,-0.17477671802043915,19.9737548828125,6.7291259765625,-37.078857421875
1.5899999,3.737348794937134,-9.205705642700195,-0.014365210197865963,30.181884765625,32.562255859375,-37.6129150390625
1.6099999,3.971980571746826,-9.294290542602539,0.20350714027881622,35.125732421875,81.6802978515625,-42.78564453125
1.6299999,4.352658748626709,-9.275136947631836,0.45489832758903503,47.3480224609375,108.551025390625,-50.4913330078125
1.6499999,4.730942726135254,-9.155426979064941,0.6727706789970398,53.2379150390625,123.199462890625,-62.31689453125
1.6699999,5.104437828063965,-9.023746490478516,0.8762778043746948,60.546875,137.4969482421875,-67.9931640625
1.6899998999999999,5.327098846435547,-8.923190116882324,1.0582371950149536,61.7828369140625,142.3797607421875,-54.5654296875
1.7099999,5.322310447692871,-8.860940933227539,1.1683704853057861,58.8836669921875,96.7559814453125,-21.9268798828125
1.7299999,5.07570743560791,-8.791508674621582,1.235408067703247,58.197021484375,-1.312255859375,12.2222900390625
1.7499999,4.642356872558594,-8.523358345031738,1.3910311460494995,47.6837158203125,-87.2344970703125,35.5224609375
1.7699999,4.220977783203125,-8.10437297821045,1.7501614093780518,41.4276123046875,-119.903564453125,41.1224365234375
1.7899999,3.9863457679748535,-7.618350028991699,2.274491548538208,35.6903076171875,-108.306884765625,33.050537109375
1.8099999,3.9408559799194336,-7.206547260284424,2.846705913543701,25.5126953125,-97.0001220703125,18.1884765625
1.8299999,4.0294413566589355,-6.936002254486084,3.335123062133789,14.739990234375,-92.193603515625,2.86865234375
1.8499999,4.146757125854492,-6.912060260772705,3.663128614425659,6.805419921875,-71.563720703125,-9.490966796875
1.8699999,4.302380561828613,-7.134721279144287,3.7493197917938232,1.4495849609375,-40.1458740234375,-11.3525390625
1.8899999,4.431667327880859,-7.568071365356445,3.691859006881714,-11.7034912109375,-29.7393798828125,-7.38525390625
1.9099999,4.501099109649658,-8.10437297821045,3.428496837615967,-16.90673828125,-27.191162109375,1.2359619140625
1.9299998999999999,4.5609540939331055,-8.578424453735352,3.0142998695373535,-18.310546875,-27.1453857421875,12.6800537109375
1.9499999,4.6734819412231445,-8.853757858276367,2.5689783096313477,-16.3421630859375,-42.54150390625,13.85498046875
1.9699999,4.843470096588135,-8.877699851989746,2.169146776199341,-15.7623291015625,-51.81884765625,6.1187744140625
1.9899999,5.188235282897949,-8.772355079650879,1.8579005002975464,-15.0146484375,-42.5567626953125,-2.5634765625
2.0099999,5.523423194885254,-8.56884765625,1.659181833267212,-11.932373046875,-17.547607421875,-11.505126953125
2.0299999,5.765237808227539,-8.44195556640625,1.5418659448623657,-9.002685546875,9.063720703125,-22.216796875
2.0499999,5.808333396911621,-8.389283180236816,1.4197616577148438,-7.8887939453125,23.223876953125,-31.524658203125
2.0699999,5.621585369110107,-8.396465301513672,1.2641384601593018,-7.537841796875,17.1966552734375,-36.8194580078125
2.0899999,5.353435039520264,-8.453926086425781,1.1228805780410767,-5.462646484375,1.9989013671875,-39.61181640625
2.1099999,5.157110691070557,-8.506598472595215,0.9959878921508789,-3.5400390625,-6.6986083984375,-39.3524169921875
2.1299999,5.197812080383301,-8.520963668823242,0.9576807022094727,-3.41796875,-10.894775390625,-34.6221923828125
2.1499999,5.535394191741943,-8.473079681396484,1.0558429956436157,-4.852294921875,-7.7362060546875,-26.7333984375
2.1699999,5.9735331535339355,-8.33182144165039,1.1683704853057861,-6.1492919921875,14.801025390625,-21.4996337890625
2.1899999,6.354211330413818,-8.154650688171387,1.237802267074585,-4.241943359375,33.69140625,-19.1650390625
2.2099999,6.481103897094727,-7.953537940979004,1.194706678390503,-0.3814697265625,23.895263671875,-13.8702392578125
2.2299999,6.358999729156494,-7.7643961906433105,1.039083480834961,3.23486328125,2.50244140625,-7.14111328125
2.2499999,6.078877925872803,-7.627926826477051,0.8690952062606812,6.4544677734375,-6.988525390625,-3.84521484375
2.2699999,5.822698593139648,-7.527369976043701,0.7733271718025208,8.056640625,-8.4686279296875,-1.8768310546875
2.2899999,5.6455278396606445,-7.474697589874268,0.7876923680305481,9.979248046875,-9.2926025390625,-0.9307861328125
2.3099999,5.547365188598633,-7.445967197418213,0.8978256583213806,10.6201171875,-6.53076171875,-0.79345703125
2.3299999,5.492298603057861,-7.448361396789551,1.0199298858642578,10.955810546875,5.6304931640625,-3.72314453125
2.3499999,5.430049419403076,-7.539340972900391,0.9911994934082031,13.0157470703125,12.786865234375,-7.9498291015625
2.3699999,5.403713226318359,-7.692570209503174,0.8547300100326538,29.72412109375,0.3662109375,-13.61083984375
2.3899999,5.5114521980285645,-7.833827972412109,0.7493851184844971,51.33056640625,-11.4898681640625,-20.01953125
2.4099999,5.710171222686768,-7.960720539093018,0.7398083209991455,60.028076171875,0.9002685546875,-20.294189453125
2.4299999,6.04775333404541,-7.927201747894287,1.0462661981582642,53.03955078125,16.2200927734375,-13.092041015625
2.4499999,6.347028732299805,-7.769184589385986,1.525106430053711,38.238525390625,16.6473388671875,-2.3193359375
2.4699999,6.57926607131958,-7.565677165985107,2.049436569213867,23.223876953125,9.552001953125,4.9896240234375
2.4899999,6.643909931182861,-7.299921035766602,2.477998733520508,8.1634521484375,7.75146484375,9.4757080078125
2.5099999,6.557718276977539,-7.053318023681641,2.7772738933563232,-6.011962890625,5.7830810546875,12.2833251953125
2.5299999,6.327875137329102,-6.876147270202637,2.918531894683838,-18.06640625,-1.220703125,13.3819580078125
2.5499999,6.021417140960693,-6.768408298492432,2.937685489654541,-26.9927978515625,-6.0882568359375,12.4359130859375
2.5699999,5.774814605712891,-6.797138690948486,2.8395233154296875,-34.6221923828125,-5.5389404296875,9.5977783203125
2.5899999,5.585672378540039,-6.89530086517334,2.671929121017456,-40.5120849609375,-0.5035400390625,7.0037841796875
2.6099999,5.530605792999268,-7.122750282287598,2.4612393379211426,-42.327880859375,1.5869140625,7.110595703125
2.6299999,5.547365188598633,-7.331045627593994,2.2146365642547607,-40.4815673828125,2.4566650390625,6.988525390625
2.6499999,5.595249176025391,-7.615955829620361,1.965639591217041,-36.3006591796875,6.5460205078125,5.55419921875
2.6699999,5.659893035888672,-7.819462776184082,1.721431016921997,-31.036376953125,4.21142578125,5.7373046875
2.6899999,5.724536418914795,-8.037335395812988,1.4939818382263184,-24.7802734375,-0.4119873046875,6.4849853515625
2.7099999,5.714959621429443,-8.149862289428711,1.3120225667953491,-18.3868408203125,-1.03759765625,5.462646484375
2.7299999,5.683835029602051,-8.224082946777344,1.1851298809051514,-12.176513671875,0.579833984375,1.9378662109375
2.7499999,5.549759387969971,-8.226476669311523,1.0606313943862915,-1.40380859375,-13.0157470703125,-2.410888671875
2.7699999,5.578489780426025,-8.154650688171387,1.1037269830703735,2.838134765625,-15.6707763671875,-3.8604736328125
2.7899999,5.6455278396606445,-7.979874134063721,1.3742717504501343,-0.8392333984375,-4.1046142578125,-6.256103515625
2.8099999,5.69580602645874,-7.773972988128662,1.6160861253738403,-23.13232421875,11.3677978515625,-7.9345703125
2.8299999,5.6455278396606445,-7.544129371643066,1.821987509727478,-42.7093505859375,6.500244140625,-11.810302734375
2.8499999,5.547365188598633,-7.433996200561523,1.7717092037200928,-41.8701171875,-10.345458984375,-19.6075439453125
2.8699999,5.473145008087158,-7.4770917892456055,1.4460978507995605,-31.55517578125,-18.6920166015625,-27.03857421875
2.8899999,5.51624059677124,-7.663839817047119,1.0223240852355957,-19.775390625,-21.1944580078125,-30.181884765625
2.9099999,5.693411827087402,-7.905653953552246,0.6392518281936646,-9.5062255859375,-21.42333984375,-29.0069580078125
2.9299999,5.942408561706543,-8.125920295715332,0.38307225704193115,-0.457763671875,-18.06640625,-24.71923828125
2.9499999,6.189011573791504,-8.26478385925293,0.2513911724090576,6.9122314453125,-13.9007568359375,-18.4326171875
2.9699999,6.414066314697266,-8.291120529174805,0.2322375625371933,12.603759765625,-11.1541748046875,-12.5274658203125
2.9899999,6.600813865661621,-8.209717750549316,0.2825157940387726,17.27294921875,-9.09423828125,-9.3994140625
3.0099999,6.746860504150391,-8.042123794555664,0.3711012601852417,20.8587646484375,-4.3487548828125,-8.3770751953125
3.0299999,6.847416877746582,-7.8314337730407715,0.47165772318840027,23.406982421875,2.5787353515625,-7.537841796875
3.0499999,6.878541469573975,-7.632715225219727,0.5602431893348694,25.4058837890625,8.3770751953125,-6.2103271484375
3.0699999,6.806715488433838,-7.47230339050293,0.6248866319656372,27.7252197265625,11.1236572265625,-5.584716796875
3.0899999,6.63433313369751,-7.352593421936035,0.6392518281936646,30.8990478515625,10.2691650390625,-6.6070556640625
3.1099999,6.404489517211914,-7.271190643310547,0.6177040338516235,34.6527099609375,3.4027099609375,-8.85009765625
3.1299999,6.203376770019531,-7.206547260284424,0.6009446382522583,37.8875732421875,-9.9334716796875,-9.6282958984375
3.1499999,6.121973514556885,-7.15387487411499,0.6248866319656372,39.7796630859375,-21.5301513671875,-7.080078125
3.1699999,6.167463779449463,-7.132327079772949,0.7326257228851318,41.107177734375,-23.9715576171875,-1.5106201171875
3.1899999,6.268020153045654,-7.127538681030273,0.8810662031173706,41.3665771484375,-22.4456787109375,5.5694580078125
3.2099999,6.3733649253845215,-7.134721279144287,1.0558429956436157,42.572021484375,-27.89306640625,13.00048828125
3.2299999,6.414066314697266,-7.139509677886963,1.2210428714752197,45.7916259765625,-35.5682373046875,20.5535888671875
3.2499999,6.378153324127197,-7.115567684173584,1.3431471586227417,46.966552734375,-40.252685546875,26.397705078125
3.2699999,6.327875137329102,-7.046135425567627,1.4748282432556152,45.0592041015625,-44.9676513671875,28.7322998046875
3.2899999,6.291962146759033,-6.933608055114746,1.6089035272598267,39.9932861328125,-47.271728515625,26.7486572265625
3.3099999,6.315904140472412,-6.8043212890625,1.7741034030914307,31.25,-44.6624755859375,22.94921875
3.3299999000000002,6.406883716583252,-6.703764915466309,1.9823989868164062,18.6004638671875,-35.5072021484375,19.927978515625
3.3499999,6.502651691436768,-6.653486728668213,2.185906171798706,4.669189453125,-21.66748046875,16.7083740234375
3.3699999,6.560112476348877,-6.670246124267578,2.33913516998291,-9.063720703125,-8.1787109375,11.0321044921875
3.3899999,6.538564682006836,-6.75883150100708,2.389413356781006,-21.9573974609375,1.2359619140625,4.1961669921875
3.4099999,6.45476770401001,-6.904877662658691,2.3032219409942627,-32.5469970703125,6.0882568359375,0.457763671875
3.4299999,6.366182327270508,-7.0988078117370605,2.1164743900299072,-40.4205322265625,6.04248046875,0.701904296875
3.4499999,6.296750545501709,-7.311892032623291,1.867477297782898,-45.7000732421875,6.744384765625,2.197265625
3.4699999,6.256049156188965,-7.510610580444336,1.5897499322891235,-48.03466796875,10.0860595703125,2.86865234375
3.4899999,6.212953567504883,-7.668628215789795,1.3048399686813354,-48.004150390625,11.5966796875,2.7008056640625
3.5099999,6.160281181335449,-7.773972988128662,1.0271124839782715,-46.4630126953125,10.009765625,2.471923828125
3.5299999,6.098031520843506,-7.841010570526123,0.7661445140838623,-43.45703125,7.7362060546875,2.7313232421875
3.5499999,6.033388137817383,-7.876923561096191,0.5410895943641663,-39.2913818359375,7.5225830078125,3.2196044921875
3.5699999,5.985504150390625,-7.8960771560668945,0.35673606395721436,-34.1644287109375,8.819580078125,3.0975341796875
3.5899999,5.937620162963867,-7.908048152923584,0.21547815203666687,-28.778076171875,8.9111328125,1.617431640625
3.6099999,5.892130374908447,-7.920019149780273,0.0933738648891449,-22.88818359375,7.0037841796875,0.030517578125
3.6299999,5.853823184967041,-7.931990146636963,-0.0071826050989329815,-16.54052734375,3.2806396484375,-0.9307861328125
3.6499999,5.834669589996338,-7.94635534286499,-0.08619125932455063,-10.894775390625,-0.640869140625,-1.922607421875
3.6699999,5.8442463874816895,-7.95832633972168,-0.13168109953403473,-5.523681640625,-2.1514892578125,-3.7384033203125
3.6899999,5.892130374908447,-7.9631147384643555,-0.1412578970193863,-0.5950927734375,-0.6256103515625,-6.04248046875
3.7099999,5.96874475479126,-7.95832633972168,-0.1149216815829277,3.4942626953125,2.2735595703125,-8.148193359375
3.7299999,6.04775333404541,-7.939172744750977,-0.06703764945268631,6.8359375,4.425048828125,-9.6588134765625
3.7499999,6.129156112670898,-7.90086555480957,-0.002394201699644327,9.521484375,5.37109375,-10.3759765625
3.7699999,6.196194171905518,-7.848193168640137,0.06703764945268631,11.6424560546875,7.4310302734375,-10.9710693359375
3.7899999,6.253654956817627,-7.778761386871338,0.14365209639072418,13.0615234375,9.8724365234375,-11.077880859375
3.8099999,6.289567947387695,-7.6997528076171875,0.22266076505184174,13.85498046875,11.53564453125,-10.6201171875
3.8299999000000002,6.303933143615723,-7.613561630249023,0.2992752194404602,14.373779296875,12.26806640625,-10.009765625
3.8499999,6.325480937957764,-7.522581577301025,0.3878606855869293,14.2974853515625,12.8631591796875,-9.429931640625
3.8699999,6.378153324127197,-7.436390399932861,0.4836287498474121,13.61083984375,15.106201171875,-9.124755859375
3.8899999,6.466738700866699,-7.343016624450684,0.6129156351089478,12.8631591796875,19.1650390625,-8.30078125
3.9099999,6.550535678863525,-7.254431247711182,0.7110779285430908,11.962890625,23.1475830078125,-6.6070556640625
3.9299999,6.619967937469482,-7.1706342697143555,0.8403648138046265,9.033203125,18.798828125,-2.9144287109375
3.9499999,6.653486728668213,-7.096413612365723,0.9792284965515137,5.035400390625,18.0816650390625,1.190185546875
3.9699999,6.610390663146973,-7.101202011108398,1.0654197931289673,-0.6256103515625,30.6854248046875,3.35693359375
3.9899999,6.48828649520874,-7.208941459655762,0.9074024558067322,2.7923583984375,38.8336181640625,3.47900390625
4.0099999,6.299144744873047,-7.347805023193359,0.811634361743927,26.4892578125,29.144287109375,0.518798828125
4.029999900000001,6.071695327758789,-7.524975776672363,0.5961562395095825,41.6412353515625,21.7742919921875,-4.6844482421875
4.0499999,5.9304375648498535,-7.572859764099121,0.6847416758537292,41.2139892578125,17.7154541015625,-5.3253173828125
4.069999900000001,5.913678169250488,-7.5201873779296875,1.036689281463623,30.975341796875,11.3372802734375,-1.77001953125
4.0899999000000005,6.021417140960693,-7.321468830108643,1.534683346748352,17.2119140625,10.7879638671875,2.7618408203125
4.1099999,6.1770405769348145,-7.146692276000977,2.0661959648132324,2.1514892578125,14.2974853515625,5.2032470703125
4.1299999000000005,6.287173748016357,-6.988674640655518,2.4444799423217773,-11.749267578125,21.4996337890625,3.631591796875
4.1499999,6.313509941101074,-6.9240312576293945,2.652775526046753,-22.0947265625,22.7203369140625,2.6702880859375
4.1699999000000005,6.253654956817627,-6.959944248199463,2.6647465229034424,-29.4952392578125,11.41357421875,5.615234375
4.1899999,6.18182897567749,-7.038952827453613,2.5282769203186035,-35.0341796875,0.4425048828125,9.4757080078125
4.209999900000001,6.119579315185547,-7.180211067199707,2.31758713722229,-37.8570556640625,-0.4119873046875,11.4898681640625
4.2299999,6.086060523986816,-7.350199222564697,2.0614075660705566,-37.841796875,5.3863525390625,11.260986328125
4.249999900000001,6.050147533416748,-7.539340972900391,1.7980455160140991,-35.2020263671875,8.453369140625,9.7503662109375
4.2699999,5.966350555419922,-7.7213006019592285,1.5442601442337036,-31.005859375,5.0811767578125,8.3770751953125
4.289999900000001,5.8873419761657715,-7.86734676361084,1.2976573705673218,-25.3753662109375,1.4801025390625,6.1798095703125
4.3099999,5.793968200683594,-7.967903137207031,1.0893617868423462,-18.2647705078125,2.5787353515625,2.960205078125
4.329999900000001,5.760449409484863,-8.022970199584961,0.9313444495201111,-9.9639892578125,5.06591796875,0.0152587890625
4.3499999,5.765237808227539,-8.037335395812988,0.8212111592292786,-1.6632080078125,2.410888671875,-1.708984375
4.369999900000001,5.805939197540283,-8.008605003356934,0.7757213711738586,5.0201416015625,-4.7149658203125,-1.1444091796875
4.3899999,5.894524574279785,-7.934384346008301,0.8140285611152649,9.8419189453125,-7.8277587890625,0.1983642578125
4.409999900000001,5.961562156677246,-7.845798969268799,0.871489405632019,13.671875,-3.11279296875,-0.48828125
4.4299999,6.035782337188721,-7.740454196929932,0.9816226959228516,16.571044921875,-0.9307861328125,-1.2359619140625
4.449999900000001,6.052541732788086,-7.661445617675781,1.091755986213684,17.5933837890625,-3.90625,-1.0223388671875
4.4699999,6.064512729644775,-7.601590633392334,1.213860273361206,16.11328125,-9.0789794921875,1.2359619140625
4.489999900000001,6.074089527130127,-7.558494567871094,1.3479355573654175,12.786865234375,-8.087158203125,2.9144287109375
4.5099999,6.081272125244141,-7.522581577301025,1.4652514457702637,8.941650390625,1.3580322265625,1.2359619140625
4.529999900000001,6.078877925872803,-7.513004779815674,1.5634137392044067,4.7760009765625,6.683349609375,-0.6103515625
4.5499999,6.052541732788086,-7.515398979187012,1.6065093278884888,1.068115234375,3.082275390625,-0.67138671875
4.569999900000001,6.023811340332031,-7.544129371643066,1.6112977266311646,-2.685546875,-1.7547607421875,0.54931640625
4.5899999000000005,5.987898349761963,-7.5632829666137695,1.580173134803772,-6.134033203125,-0.457763671875,0.8544921875
4.609999900000001,5.96874475479126,-7.589619159698486,1.522712230682373,-8.5296630859375,4.1656494140625,-0.8392333984375
4.6299999000000005,5.975927352905273,-7.592013359069824,1.4413094520568848,-9.0789794921875,5.9356689453125,-2.4871826171875
4.6499999,5.980715751647949,-7.623138427734375,1.3455413579940796,-8.0413818359375,4.0283203125,-1.739501953125
4.6699999000000005,6.004657745361328,-7.65186882019043,1.2713210582733154,-6.683349609375,0.0762939453125,1.556396484375
4.6899999,6.021417140960693,-7.675810813903809,1.2066776752471924,-5.584716796875,-0.3814697265625,3.448486328125
4.709999900000001,6.033388137817383,-7.690176010131836,1.192312479019165,-3.9520263671875,1.5106201171875,2.777099609375
4.7299999,6.009446144104004,-7.6782050132751465,1.1827356815338135,-1.9989013671875,2.593994140625,1.2969970703125
4.749999900000001,5.961562156677246,-7.6782050132751465,1.2066776752471924,-0.152587890625,2.685546875,-0.54931640625
4.7699999,5.925649166107178,-7.68538761138916,1.2282254695892334,1.068115234375,1.6632080078125,-2.0599365234375
4.789999900000001,5.8873419761657715,-7.714118003845215,1.2689268589019775,1.861572265625,0.79345703125,-3.021240234375
4.8099999,5.896918773651123,-7.740454196929932,1.3024457693099976,2.716064453125,0.244140625,-2.9144287109375
4.829999900000001,5.942408561706543,-7.773972988128662,1.3479355573654175,2.8076171875,-0.274658203125,-2.3345947265625
4.8499999,5.990292549133301,-7.7763671875,1.37906014919281,1.89208984375,0.67138671875,-2.6702880859375
4.869999900000001,6.052541732788086,-7.754819393157959,1.3958195447921753,0.5950927734375,0.2593994140625,-2.685546875
4.8899999,6.09324312210083,-7.733271598815918,1.4077905416488647,-0.6561279296875,-0.48828125,-0.946044921875
4.909999900000001,6.098031520843506,-7.690176010131836,1.400607943534851,-1.5106201171875,-0.152587890625,0.8087158203125
4.9299999,6.054935932159424,-7.649474620819092,1.3742717504501343,-2.0904541015625,-0.091552734375,1.1138916015625
4.949999900000001,5.983109951019287,-7.613561630249023,1.3551181554794312,-1.9989013671875,-3.5552978515625,0.2593994140625
4.9699999,5.9304375648498535,-7.5848307609558105,1.3479355573654175,-2.13623046875,-10.07080078125,1.0986328125
4.989999900000001,5.975927352905273,-7.580042362213135,1.3263877630233765,-3.021240234375,-14.09912109375,4.6844482421875
5.0099999,6.157886981964111,-7.5848307609558105,1.4915876388549805,-5.950927734375,-12.02392578125,10.6201171875
5.029999900000001,6.411672115325928,-7.503427982330322,1.723825216293335,-25.6500244140625,11.1541748046875,15.3656005859375
5.0499999,6.574477672576904,-7.479485988616943,1.922544002532959,-46.7071533203125,36.5142822265625,21.1181640625
5.069999900000001,6.557718276977539,-7.417236804962158,1.9345149993896484,-56.854248046875,29.0374755859375,26.18408203125
5.0899999000000005,6.282385349273682,-7.491456985473633,1.601720929145813,-48.27880859375,5.828857421875,28.564453125
5.109999900000001,5.868188381195068,-7.649474620819092,1.015141487121582,-31.06689453125,-19.71435546875,27.2064208984375
5.1299999000000005,5.415684223175049,-7.864952564239502,0.3926490843296051,-12.603759765625,-37.7044677734375,24.444580078125
5.1499999,5.092466831207275,-8.044517517089844,-0.07900865375995636,4.2266845703125,-43.6248779296875,20.4620361328125
5.1699999000000005,4.924872875213623,-8.188169479370117,-0.304063618183136,18.24951171875,-37.506103515625,12.3291015625
5.1899999,4.920084476470947,-8.286332130432129,-0.3280056416988373,30.120849609375,-23.37646484375,3.4027099609375
5.209999900000001,5.051765441894531,-8.35097599029541,-0.20111294090747833,39.3829345703125,-10.3302001953125,-1.3275146484375
5.2299999,5.276820659637451,-8.394071578979492,0.011971008032560349,46.1578369140625,1.0528564453125,-4.425048828125
5.249999900000001,5.518634796142578,-8.398859977722168,0.2585737705230713,52.5665283203125,11.71875,-6.4697265625
5.2699999,5.705382823944092,-8.355764389038086,0.4908113479614258,57.2509765625,14.5721435546875,-6.4544677734375
5.289999900000001,5.791574001312256,-8.238448143005371,0.7134721279144287,48.3856201171875,6.4849853515625,-4.1046142578125
5.3099999,5.750872611999512,-8.078036308288574,0.9145850539207458,41.0614013671875,-5.9051513671875,-2.1820068359375
5.329999900000001,5.635950565338135,-7.886500358581543,1.1109095811843872,32.04345703125,-15.9912109375,-1.922607421875
5.3499999,5.513846397399902,-7.68538761138916,1.3503297567367554,22.064208984375,-19.500732421875,0.1068115234375
5.369999900000001,5.439626216888428,-7.553706169128418,1.5275006294250488,10.772705078125,-10.5133056640625,-0.54931640625
5.3899999,5.456385612487793,-7.422025203704834,1.821987509727478,-2.899169921875,9.21630859375,-5.3863525390625
5.409999900000001,5.497087001800537,-7.422025203704834,1.8914192914962769,-9.429931640625,26.1993408203125,-8.60595703125
5.4299999,5.600037574768066,-7.412448406219482,2.008735179901123,-12.51220703125,25.5889892578125,-4.69970703125
5.449999900000001,5.595249176025391,-7.50582218170166,1.9249382019042969,-14.923095703125,31.25,-4.1961669921875
5.4699999,5.585672378540039,-7.649474620819092,1.7836803197860718,-16.937255859375,27.8472900390625,-5.0506591796875
5.489999900000001,5.499481201171875,-7.843404769897461,1.6065093278884888,-16.357421875,25.970458984375,-4.57763671875
5.5099999,5.418078422546387,-8.061277389526367,1.4269442558288574,-12.2528076171875,27.587890625,-2.0751953125
5.529999900000001,5.377377033233643,-8.26239013671875,1.3024457693099976,-6.7901611328125,26.85546875,0.8392333984375
5.5499999,5.363011837005615,-8.370129585266113,1.2713210582733154,-1.3275146484375,20.5841064453125,4.1656494140625
5.569999900000001,5.322310447692871,-8.398859977722168,1.292868971824646,2.532958984375,16.6168212890625,5.889892578125
5.5899999000000005,5.284003257751465,-8.312667846679688,1.4077905416488647,4.2266845703125,10.4217529296875,5.9814453125
5.609999900000001,5.2265424728393555,-8.183381080627441,1.5418659448623657,2.62451171875,4.8675537109375,3.2501220703125
5.6299999000000005,5.188235282897949,-8.044517517089844,1.680729627609253,3.021240234375,-0.9307861328125,-2.3193359375
5.6499999,5.207388877868652,-7.9415669441223145,1.8148049116134644,6.9732666015625,-7.0037841796875,-4.7760009765625
5.6699999000000005,5.295974254608154,-7.905653953552246,1.922544002532959,7.50732421875,-7.4920654296875,-5.18798828125
5.6899999,5.434837818145752,-7.910442352294922,2.0207061767578125,8.514404296875,-6.16455078125,-4.241943359375
5.709999900000001,5.5976433753967285,-7.936778545379639,2.0901381969451904,8.7127685546875,-4.6234130859375,-2.86865234375
5.7299999,5.74129581451416,-7.94635534286499,2.121262788772583,8.1634521484375,-4.8828125,-0.6866455078125
5.749999900000001,5.822698593139648,-7.931990146636963,2.1164743900299072,7.6904296875,-7.6446533203125,2.0751953125
5.7699999,5.832275390625,-7.898471355438232,2.0853497982025146,6.744384765625,-11.4593505859375,3.997802734375
5.789999900000001,5.774814605712891,-7.848193168640137,2.049436569213867,6.0577392578125,-13.8702392578125,4.45556640625
5.8099999,5.669469833374023,-7.793126583099365,2.0207061767578125,5.5999755859375,-14.0228271484375,3.692626953125
5.829999900000001,5.530605792999268,-7.726089000701904,2.0039467811584473,4.33349609375,-13.1988525390625,1.46484375
5.8499999,5.386953830718994,-7.668628215789795,1.9776105880737305,2.532958984375,-12.6953125,-3.326416015625
5.869999900000001,5.284003257751465,-7.632715225219727,1.9321208000183105,1.6326904296875,-12.26806640625,-8.5296630859375
5.8899999,5.252878665924072,-7.663839817047119,1.8698714971542358,1.6937255859375,-12.5885009765625,-10.5743408203125
5.909999900000001,5.310339450836182,-7.747636795043945,1.7764976024627686,2.01416015625,-15.106201171875,-9.46044921875
5.9299999,5.430049419403076,-7.879317760467529,1.7070658206939697,1.7852783203125,-19.989013671875,-6.7138671875
5.949999900000001,5.580883979797363,-7.996633529663086,1.6400281190872192,2.9296875,-24.9176025390625,-3.96728515625
5.9699999,5.750872611999512,-8.075642585754395,1.6184803247451782,3.204345703125,-26.30615234375,-1.5411376953125
5.989999900000001,5.899312973022461,-8.094796180725098,1.6184803247451782,2.899169921875,-22.674560546875,0.946044921875
6.0099999,6.023811340332031,-8.058882713317871,1.6328455209732056,1.4801025390625,-17.8985595703125,3.2806396484375
6.029999900000001,6.071695327758789,-7.982268333435059,1.647210717201233,-1.2359619140625,-14.6026611328125,3.8604736328125
6.0499999,6.035782337188721,-7.8745293617248535,1.6424223184585571,-5.18798828125,-11.8408203125,2.6092529296875
6.069999900000001,5.9519853591918945,-7.766790390014648,1.6112977266311646,-8.60595703125,-8.270263671875,-0.5950927734375
6.0899999000000005,5.8657941818237305,-7.692570209503174,1.5418659448623657,-10.650634765625,-3.8909912109375,-3.3416748046875
6.109999900000001,5.810727596282959,-7.675810813903809,1.4437036514282227,-11.077880859375,-0.0152587890625,-2.4261474609375
6.1299999000000005,5.7772088050842285,-7.704541206359863,1.314416766166687,-10.7269287109375,1.953125,0.762939453125
6.149999900000001,5.746084213256836,-7.754819393157959,1.1827356815338135,-10.162353515625,1.007080078125,1.922607421875
6.1699999000000005,5.698200225830078,-7.790732383728027,1.0630255937576294,-9.002685546875,-0.6561279296875,-0.1373291015625
6.1899999,5.657498836517334,-7.812280178070068,0.9720458984375,-6.4239501953125,-1.556396484375,-2.8839111328125
6.209999900000001,5.614402770996094,-7.836222171783447,0.9193734526634216,-3.753662109375,-1.4495849609375,-4.180908203125
6.2299999,5.578489780426025,-7.862558364868164,0.8906430602073669,-1.251220703125,-1.3427734375,-4.9896240234375
6.249999900000001,5.566518783569336,-7.90086555480957,0.8906430602073669,3.2958984375,-3.0517578125,-7.8582763671875
6.2699999,5.571307182312012,-7.9415669441223145,0.912190854549408,7.3089599609375,-5.67626953125,-10.0555419921875
6.289999900000001,5.628767967224121,-7.972691535949707,0.9552865028381348,9.70458984375,-6.4239501953125,-9.033203125
6.3099999,5.729324817657471,-8.001421928405762,1.01753568649292,11.8408203125,-4.852294921875,-7.26318359375
6.329999900000001,5.851428985595703,-8.010998725891113,1.0869675874710083,12.14599609375,-3.082275390625,-5.5999755859375
6.3499999,5.947196960449219,-7.994239330291748,1.1468225717544556,11.3067626953125,-2.838134765625,-3.997802734375
6.369999900000001,5.992686748504639,-7.943961143493652,1.1851298809051514,9.1400146484375,-2.655029296875,-3.2806396484375
6.3899999,5.963956356048584,-7.86734676361084,1.2042834758758545,8.697509765625,-1.03759765625,-6.16455078125
6.409999900000001,5.884947776794434,-7.790732383728027,1.1971008777618408,7.2021484375,-0.1220703125,-11.7950439453125
6.4299999,5.825092792510986,-7.738059997558594,1.1827356815338135,7.99560546875,-3.662109375,-14.95361328125
6.449999900000001,5.8442463874816895,-7.706935405731201,1.192312479019165,11.65771484375,-6.744384765625,-13.031005859375
6.4699999,5.971138954162598,-7.692570209503174,1.2306196689605713,13.0462646484375,-3.47900390625,-8.8348388671875
6.489999900000001,6.141127586364746,-7.63989782333374,1.3024457693099976,11.0931396484375,2.105712890625,-3.8604736328125
6.5099999,6.282385349273682,-7.527369976043701,1.3910311460494995,4.69970703125,3.021240234375,-0.0457763671875
6.529999900000001,6.339846134185791,-7.383718013763428,1.479616641998291,-0.946044921875,2.5634765625,0.1678466796875
6.5499999,6.301538944244385,-7.242460250854492,1.5466543436050415,-3.204345703125,3.9520263671875,-0.823974609375
6.569999900000001,6.282385349273682,-7.156269073486328,1.6112977266311646,-7.293701171875,3.4942626953125,0.457763671875
6.5899999000000005,6.256049156188965,-7.144298076629639,1.6424223184585571,-12.603759765625,10.4522705078125,3.1585693359375
6.609999900000001,6.217741966247559,-7.189787864685059,1.6136919260025024,-15.1824951171875,21.91162109375,5.37109375
6.6299999000000005,6.110002517700195,-7.280767440795898,1.5298948287963867,-13.824462890625,21.6827392578125,5.1727294921875
6.649999900000001,5.9304375648498535,-7.398083209991455,1.3862427473068237,-9.490966796875,11.7340087890625,1.8157958984375
6.6699999000000005,5.810727596282959,-7.534552574157715,1.2617442607879639,-3.4942626953125,1.3275146484375,-1.2969970703125
6.6899999,5.904101371765137,-7.671022415161133,1.2042834758758545,0.8087158203125,8.36181640625,0.0762939453125
6.709999900000001,5.975927352905273,-7.869740962982178,0.9911994934082031,-78.2318115234375,35.4156494140625,14.7857666015625
6.7299999,5.9088897705078125,-7.91283655166626,0.7541735172271729,7.4005126953125,-11.0015869140625,0.2593994140625
6.749999900000001,5.530605792999268,-7.908048152923584,1.1635819673538208,30.8380126953125,-14.2822265625,-15.411376953125
6.7699999,5.434837818145752,-7.90086555480957,1.4915876388549805,14.9078369140625,9.21630859375,-13.36669921875
6.789999900000001,5.647922039031982,-7.977479934692383,1.742978811264038,12.1002197265625,26.3671875,-8.1329345703125
6.8099999,5.966350555419922,-8.001421928405762,1.8722656965255737,9.185791015625,21.4080810546875,-1.40380859375
6.829999900000001,6.232107162475586,-7.922413349151611,1.8794482946395874,11.566162109375,11.138916015625,3.936767578125
6.8499999,6.361393928527832,-7.7763671875,1.867477297782898,19.4549560546875,3.7841796875,6.3018798828125
6.869999900000001,6.327875137329102,-7.556100368499756,1.889025092124939,17.1966552734375,3.570556640625,10.2386474609375
6.8899999,6.210559368133545,-7.390900611877441,1.9105730056762695,7.5531005859375,9.4451904296875,10.19287109375
6.909999900000001,5.9974751472473145,-7.275979042053223,1.9512743949890137,-4.6844482421875,12.420654296875,5.9661865234375
6.9299999,5.793968200683594,-7.268796443939209,1.9321208000183105,-7.8582763671875,11.1236572265625,4.1046142578125
6.949999900000001,5.616796970367432,-7.328651428222656,1.8938134908676147,-5.1422119140625,7.080078125,4.669189453125
6.9699999,5.523423194885254,-7.429207801818848,1.8555063009262085,-4.0435791015625,3.1280517578125,4.8828125
6.989999900000001,5.494692802429199,-7.529764175415039,1.821987509727478,-2.50244140625,2.0751953125,3.5858154296875
7.0099999,5.5329999923706055,-7.630321025848389,1.800439715385437,0.030517578125,1.190185546875,1.8157958984375
7.029999900000001,5.588066577911377,-7.7213006019592285,1.7812861204147339,3.1280517578125,-1.40380859375,1.6021728515625
7.0499999,5.659893035888672,-7.802703380584717,1.7741034030914307,6.4544677734375,-5.1727294921875,2.105712890625
7.069999900000001,5.731719017028809,-7.864952564239502,1.7812861204147339,8.819580078125,-8.1939697265625,2.7313232421875
7.0899999000000005,5.7772088050842285,-7.898471355438232,1.8076223134994507,9.490966796875,-9.9639892578125,4.0740966796875
7.109999900000001,5.779603004455566,-7.893682956695557,1.8291701078414917,9.0484619140625,-14.007568359375,6.2255859375
7.1299999000000005,5.7341132164001465,-7.862558364868164,1.845929503440857,5.0506591796875,-21.8353271484375,6.9580078125
7.149999900000001,5.671864032745361,-7.812280178070068,1.8698714971542358,-1.922607421875,-28.3660888671875,5.5084228515625
7.1699999000000005,5.640739440917969,-7.7643961906433105,1.8962076902389526,-3.0364990234375,-25.9552001953125,3.204345703125
7.1899999,5.681440830230713,-7.733271598815918,1.9393033981323242,-8.514404296875,-16.9830322265625,2.3651123046875
7.209999900000001,5.767632007598877,-7.73087739944458,1.9608511924743652,-8.209228515625,-11.3067626953125,1.373291015625
7.2299999,5.851428985595703,-7.7428483963012695,1.9273324012756348,-8.331298828125,-9.063720703125,2.01416015625
7.249999900000001,5.91128396987915,-7.766790390014648,1.8483237028121948,-16.66259765625,-6.6680908203125,3.143310546875
7.2699999,5.940014362335205,-7.7883381843566895,1.7190368175506592,-17.242431640625,-4.4097900390625,2.0294189453125
7.289999900000001,5.9304375648498535,-7.8098859786987305,1.5658079385757446,-13.00048828125,-2.532958984375,0.5340576171875
7.3099999,5.918466567993164,-7.826645374298096,1.414973258972168,-13.885498046875,-0.946044921875,0.152587890625
7.329999900000001,5.896918773651123,-7.848193168640137,1.2737152576446533,-14.4195556640625,1.434326171875,-0.030517578125
7.3499999,5.880159378051758,-7.876923561096191,1.158793568611145,-9.8724365234375,3.631591796875,-0.7171630859375
7.369999900000001,5.849034786224365,-7.90086555480957,1.070208191871643,-8.1024169921875,4.608154296875,-0.3814697265625
7.3899999,5.793968200683594,-7.910442352294922,1.015141487121582,-11.260986328125,5.06591796875,-0.213623046875
7.409999900000001,5.736507415771484,-7.908048152923584,0.9840168952941895,-9.2315673828125,5.645751953125,-1.7852783203125
7.4299999,5.669469833374023,-7.884106159210205,0.9744400978088379,-1.8310546875,6.2408447265625,-3.41796875
7.449999900000001,5.659893035888672,-7.864952564239502,1.0031704902648926,4.82177734375,3.0364990234375,-3.753662109375
7.4699999,5.693411827087402,-7.848193168640137,1.0582371950149536,8.270263671875,0.6561279296875,-1.0986328125
7.489999900000001,5.765237808227539,-7.82185697555542,1.1516109704971313,6.6680908203125,2.288818359375,3.2196044921875
7.5099999,5.834669589996338,-7.785943984985352,1.2737152576446533,0.7476806640625,6.3629150390625,4.058837890625
7.529999900000001,5.858611583709717,-7.738059997558594,1.381454348564148,-3.1890869140625,12.7105712890625,1.2359619140625
7.5499999,5.815515995025635,-7.711723804473877,1.455674648284912,-1.373291015625,11.260986328125,-1.5869140625
7.569999900000001,5.738901615142822,-7.7213006019592285,1.501164436340332,1.8463134765625,0.8697509765625,-0.7171630859375
7.5899999000000005,5.70777702331543,-7.759607791900635,1.5514427423477173,2.3956298828125,-7.354736328125,1.495361328125
7.609999900000001,5.760449409484863,-7.805097579956055,1.6376339197158813,2.5634765625,-2.716064453125,2.105712890625
7.6299999000000005,5.851428985595703,-7.824251174926758,1.7381904125213623,-2.01416015625,9.490966796875,4.119873046875
7.649999900000001,5.91128396987915,-7.812280178070068,1.8052281141281128,-9.613037109375,14.739990234375,7.75146484375
7.6699999000000005,5.851428985595703,-7.766790390014648,1.7980455160140991,-12.9547119140625,7.568359375,8.4075927734375
7.6899999,5.681440830230713,-7.718906402587891,1.7142484188079834,-10.284423828125,-2.2430419921875,5.523681640625
7.709999900000001,5.456385612487793,-7.671022415161133,1.601720929145813,-8.1329345703125,-6.2103271484375,3.662109375
7.7299999,5.284003257751465,-7.642292022705078,1.5179238319396973,-2.0751953125,-9.8876953125,1.434326171875
7.749999900000001,5.214571475982666,-7.647080421447754,1.4628572463989258,-5.096435546875,-8.30078125,-2.86865234375
7.7699999,5.276820659637451,-7.682993412017822,1.4245500564575195,-9.4451904296875,2.0904541015625,-7.2479248046875
7.789999900000001,5.461174011230469,-7.7643961906433105,1.37906014919281,-15.777587890625,12.298583984375,-10.6658935546875
7.8099999,5.70777702331543,-7.876923561096191,1.3048399686813354,-21.7437744140625,21.1334228515625,-10.040283203125
7.829999900000001,5.925649166107178,-7.999027729034424,1.1755530834197998,-18.3868408203125,26.275634765625,-7.4310302734375
7.8499999,6.071695327758789,-8.099584579467773,1.039083480834961,-15.9149169921875,22.9644775390625,-4.0130615234375
7.869999900000001,6.066906929016113,-8.233659744262695,0.7876923680305481,-10.92529296875,18.829345703125,-0.4425048828125
7.8899999,5.9519853591918945,-8.310274124145508,0.5195417404174805,4.852294921875,7.7056884765625,3.60107421875
7.909999900000001,5.74129581451416,-8.377311706542969,0.28730419278144836,22.4609375,-8.3465576171875,6.0272216796875
7.9299999,5.525817394256592,-8.35097599029541,0.16998831927776337,29.6630859375,-18.096923828125,4.0283203125
7.949999900000001,5.384559631347656,-8.221688270568848,0.2825157940387726,34.3017578125,-16.4794921875,0.1068115234375
7.9699999,5.367800235748291,-8.109161376953125,0.5770025849342346,39.1082763671875,-9.7503662109375,-2.1209716796875
7.989999900000001,5.456385612487793,-7.922413349151611,1.0103530883789062,34.1949462890625,-3.753662109375,-2.4871826171875
8.0099999,5.612008571624756,-7.771578788757324,1.482010841369629,23.590087890625,0.3204345703125,-0.91552734375
8.0299999,5.767632007598877,-7.5848307609558105,1.9033904075622559,8.7127685546875,5.7525634765625,-0.9918212890625
8.049999900000001,5.868188381195068,-7.419631004333496,2.2601263523101807,-6.53076171875,11.1083984375,-1.220703125
8.069999900000001,5.920860767364502,-7.340622425079346,2.4612393379211426,-19.0887451171875,12.6190185546875,0.091552734375
8.0899999,5.875370979309082,-7.326257228851318,2.4899697303771973,-27.587890625,9.58251953125,2.5787353515625
8.1099999,5.7987565994262695,-7.407660007476807,2.382230758666992,-33.02001953125,4.7760009765625,5.06591796875
8.129999900000001,5.676652431488037,-7.496245384216309,2.1595699787139893,-35.64453125,4.7454833984375,4.669189453125
8.149999900000001,5.542576789855957,-7.618350028991699,1.867477297782898,-34.6832275390625,8.9111328125,1.983642578125
8.1699999,5.446808815002441,-7.778761386871338,1.5969325304031372,-31.4788818359375,7.2479248046875,0.9918212890625
8.1899999,5.39174222946167,-7.95832633972168,1.335964560508728,-26.4739990234375,2.3193359375,2.044677734375
8.2099999,5.382165431976318,-8.142680168151855,1.1037269830703735,-19.2718505859375,1.46484375,2.62451171875
8.229999900000001,5.430049419403076,-8.286332130432129,0.9050082564353943,-10.498046875,1.434326171875,1.9989013671875
8.2499999,5.475539207458496,-8.367734909057617,0.7469909191131592,-1.6021728515625,-2.166748046875,0.7171630859375
8.2699999,5.535394191741943,-8.38688850402832,0.6536170840263367,5.92041015625,-8.97216796875,0.701904296875
8.2899999,5.590460777282715,-8.346187591552734,0.6584054827690125,10.43701171875,-11.7340087890625,1.4801025390625
8.309999900000001,5.66228723526001,-8.2312650680542,0.7254431247711182,12.6953125,-6.3323974609375,1.251220703125
8.3299999,5.688623428344727,-8.10437297821045,0.8451532125473022,13.48876953125,0.1373291015625,-0.0457763671875
8.3499999,5.700594425201416,-7.95832633972168,0.9624691009521484,13.73291015625,-1.220703125,-0.06103515625
8.3699999,5.664681434631348,-7.843404769897461,1.070208191871643,12.481689453125,-6.9427490234375,0.885009765625
8.389999900000001,5.633556365966797,-7.757213592529297,1.1635819673538208,9.7198486328125,-6.805419921875,0.3204345703125
8.4099999,5.616796970367432,-7.747636795043945,1.2497732639312744,6.683349609375,-0.2593994140625,-1.373291015625
8.4299999,5.635950565338135,-7.7763671875,1.3024457693099976,3.8604736328125,1.64794921875,-0.8697509765625
8.4499999,5.638344764709473,-7.862558364868164,1.3263877630233765,0.9613037109375,-2.0904541015625,1.77001953125
8.469999900000001,5.652710437774658,-7.948749542236328,1.3335703611373901,-1.77001953125,-3.326416015625,2.593994140625
8.4899999,5.643133640289307,-8.010998725891113,1.3215993642807007,-4.4708251953125,-1.1749267578125,1.5869140625
8.5099999,5.647922039031982,-8.032546997070312,1.280897855758667,-6.7291259765625,2.471923828125,0.762939453125
8.5299999,5.633556365966797,-8.04691219329834,1.2210428714752197,-7.3699951171875,4.0435791015625,1.3275146484375
8.549999900000001,5.595249176025391,-8.058882713317871,1.1324573755264282,-6.28662109375,2.593994140625,1.28173828125
8.569999900000001,5.5545477867126465,-8.063671112060547,1.0414776802062988,-4.5623779296875,0.457763671875,-0.152587890625
8.5899999,5.525817394256592,-8.058882713317871,0.9983820915222168,-3.021240234375,-1.0223388671875,-0.7781982421875
8.6099999,5.525817394256592,-8.039729118347168,0.9840168952941895,-1.5869140625,0.274658203125,-0.1983642578125
8.629999900000001,5.556941986083984,-7.99184513092041,1.0079588890075684,-0.3662109375,2.6702880859375,0.1373291015625
8.649999900000001,5.56173038482666,-7.9631147384643555,1.048660397529602,1.068115234375,4.4097900390625,-1.0833740234375
8.6699999,5.566518783569336,-7.948749542236328,1.0893617868423462,2.3193359375,1.6937255859375,-1.800537109375
8.6899999,5.578489780426025,-7.951143741607666,1.1516109704971313,2.716064453125,-3.9520263671875,-0.457763671875
8.709999900000001,5.604825973510742,-7.972691535949707,1.2042834758758545,2.1820068359375,-1.3427734375,0.0457763671875
8.729999900000001,5.635950565338135,-7.996633529663086,1.2449848651885986,1.5716552734375,5.706787109375,-0.885009765625
8.7499999,5.664681434631348,-8.027758598327637,1.2641384601593018,1.64794921875,5.9967041015625,-1.495361328125
8.7699999,5.643133640289307,-8.044517517089844,1.2521674633026123,2.288818359375,0.0762939453125,-0.396728515625
8.7899999,5.635950565338135,-8.054094314575195,1.2330138683319092,2.105712890625,-5.37109375,1.4190673828125
8.809999900000001,5.614402770996094,-8.037335395812988,1.2306196689605713,1.190185546875,-3.204345703125,1.4801025390625
8.8299999,5.580883979797363,-7.987056732177734,1.2258312702178955,-0.1068115234375,-0.4730224609375,0.9765625
8.8499999,5.544970989227295,-7.929595947265625,1.2330138683319092,-1.495361328125,-2.6702880859375,0.7476806640625
8.8699999,5.497087001800537,-7.884106159210205,1.2425906658172607,-3.3416748046875,-7.110595703125,0.579833984375
8.889999900000001,5.504269599914551,-7.850587368011475,1.2689268589019775,-5.5999755859375,-8.8653564453125,1.5106201171875
8.9099999,5.556941986083984,-7.848193168640137,1.3000515699386597,-7.8582763671875,-3.0975341796875,2.288818359375
8.9299999,5.60722017288208,-7.86734676361084,1.290474772453308,-9.0789794921875,5.7830810546875,1.0833740234375
8.9499999,5.638344764709473,-7.934384346008301,1.2425906658172607,-8.056640625,6.4544677734375,-0.67138671875
8.969999900000001,5.600037574768066,-8.008605003356934,1.1228805780410767,-5.8441162109375,0.9307861328125,-1.373291015625
8.9899999,5.559336185455322,-8.097189903259277,1.0079588890075684,-3.2806396484375,-3.753662109375,-0.732421875
9.0099999,5.537788391113281,-8.164227485656738,0.9145850539207458,-0.823974609375,-2.74658203125,-0.3814697265625
9.0299999,5.544970989227295,-8.200140953063965,0.8571242094039917,1.800537109375,0.3204345703125,-0.9613037109375
9.049999900000001,5.5760955810546875,-8.2312650680542,0.8379706144332886,4.608154296875,1.6632080078125,-1.3885498046875
9.069999900000001,5.580883979797363,-8.22887134552002,0.8331822156906128,6.77490234375,0.5035400390625,-1.0986328125
9.0899999,5.578489780426025,-8.17141056060791,0.8595184087753296,7.476806640625,-2.716064453125,0.1068115234375
9.1099999,5.60722017288208,-8.11634349822998,1.015141487121582,8.1787109375,-0.8087158203125,-0.2899169921875
9.129999900000001,5.679046630859375,-7.860164165496826,1.3527239561080933,-1.4801025390625,12.8631591796875,-3.1890869140625
9.149999900000001,5.726930618286133,-7.750030994415283,1.5538369417190552,-25.115966796875,30.8837890625,-3.2501220703125
9.1699999,5.717353820800781,-7.618350028991699,1.7046716213226318,-41.7327880859375,25.4364013671875,-0.885009765625
9.1899999,5.602431774139404,-7.682993412017822,1.482010841369629,-39.4439697265625,3.0517578125,1.922607421875
9.209999900000001,5.430049419403076,-7.884106159210205,1.0462661981582642,-25.93994140625,-15.0604248046875,4.1961669921875
9.229999900000001,5.319916248321533,-8.133103370666504,0.5889736413955688,-10.711669921875,-21.7132568359375,5.1727294921875
9.2499999,5.310339450836182,-8.341399192810059,0.24899697303771973,4.3792724609375,-16.66259765625,3.4027099609375
9.2699999,5.39174222946167,-8.458714485168457,0.07900865375995636,15.9912109375,-5.0506591796875,0.06103515625
9.2899999,5.492298603057861,-8.47547435760498,0.05746084079146385,25.0091552734375,3.2958984375,-2.38037109375
9.309999900000001,5.559336185455322,-8.415618896484375,0.1364694982767105,31.79931640625,3.6468505859375,-4.119873046875
9.3299999,5.578489780426025,-8.317456245422363,0.26575639843940735,36.468505859375,0.7781982421875,-5.279541015625
9.3499999,5.5760955810546875,-8.200140953063965,0.43095630407333374,38.9251708984375,-1.6326904296875,-5.3558349609375
9.3699999,5.580883979797363,-8.08282470703125,0.6272808313369751,39.5660400390625,-2.5787353515625,-5.035400390625
9.389999900000001,5.609614372253418,-7.967903137207031,0.8475474119186401,38.726806640625,-1.8463134765625,-5.035400390625
9.4099999,5.657498836517334,-7.864952564239502,1.070208191871643,36.163330078125,0.9002685546875,-4.486083984375
9.4299999,5.705382823944092,-7.781155586242676,1.2856862545013428,32.2265625,2.899169921875,-2.74658203125
9.4499999,5.726930618286133,-7.7213006019592285,1.4844050407409668,27.7557373046875,2.4871826171875,-0.5950927734375
9.469999900000001,5.731719017028809,-7.680599212646484,1.656787633895874,22.5982666015625,2.777099609375,1.220703125
9.4899999,5.710171222686768,-7.65186882019043,1.7980455160140991,17.333984375,4.6234130859375,2.2125244140625
9.5099999,5.676652431488037,-7.63989782333374,1.9129672050476074,12.054443359375,6.04248046875,3.021240234375
9.5299999,5.640739440917969,-7.63989782333374,1.9943699836730957,7.0953369140625,6.9580078125,4.2266845703125
9.549999900000001,5.592854976654053,-7.647080421447754,2.0422539710998535,2.7923583984375,7.354736328125,4.425048828125
9.569999900000001,5.544970989227295,-7.671022415161133,2.0638017654418945,-0.701904296875,6.6070556640625,3.1890869140625
9.5899999,5.499481201171875,-7.702147006988525,2.0638017654418945,-3.021240234375,6.2103271484375,1.6326904296875
9.6099999,5.480327606201172,-7.747636795043945,2.056619167327881,-4.9591064453125,6.4697265625,0.6256103515625
9.629999900000001,5.485116004943848,-7.800309181213379,2.032677173614502,-6.2713623046875,7.0037841796875,-0.213623046875
9.649999900000001,5.51624059677124,-7.860164165496826,2.0039467811584473,-6.195068359375,7.080078125,-0.885009765625
9.6699999,5.559336185455322,-7.915230751037598,1.968033790588379,-5.1116943359375,6.7138671875,-0.701904296875
9.6899999,5.600037574768066,-7.9631147384643555,1.922544002532959,-3.3721923828125,6.378173828125,0
9.709999900000001,5.614402770996094,-7.996633529663086,1.886630892753601,-1.40380859375,4.82177734375,0.79345703125
9.729999900000001,5.602431774139404,-8.010998725891113,1.8579005002975464,0.5645751953125,2.8533935546875,0.8544921875
9.7499999,5.56173038482666,-8.001421928405762,1.845929503440857,2.716064453125,1.8157958984375,-0.0152587890625
9.7699999,5.506663799285889,-7.977479934692383,1.8507179021835327,4.547119140625,1.28173828125,-0.91552734375
9.7899999,5.463568210601807,-7.943961143493652,1.86508309841156,5.9051513671875,0.3509521484375,-0.91552734375
9.809999900000001,5.439626216888428,-7.905653953552246,1.8914192914962769,6.7291259765625,-0.274658203125,-0.8392333984375
9.8299999,5.449203014373779,-7.869740962982178,1.922544002532959,7.0953369140625,0.1678466796875,-1.129150390625
9.8499999,5.477933406829834,-7.845798969268799,1.9560627937316895,6.77490234375,0.4425048828125,-1.0986328125
9.8699999,5.523423194885254,-7.8314337730407715,1.9847931861877441,5.8746337890625,-0.6256103515625,-0.091552734375
9.889999900000001,5.568912982940674,-7.8314337730407715,2.013523578643799,4.82177734375,-1.953125,1.129150390625
9.9099999,5.609614372253418,-7.836222171783447,2.0374655723571777,3.631591796875,-2.166748046875,2.044677734375
9.9299999,5.635950565338135,-7.845798969268799,2.0590133666992188,1.922607421875,-1.6021728515625,3.0517578125
9.9499999,5.643133640289307,-7.843404769897461,2.078166961669922,-0.274658203125,-0.9307861328125,3.8299560546875
9.969999900000001,5.6191911697387695,-7.841010570526123,2.0925323963165283,-2.2735595703125,0.4119873046875,3.3721923828125
9.9899999,5.580883979797363,-7.833827972412109,2.0901381969451904,-3.84521484375,2.044677734375,1.7852783203125
10.0099999,5.525817394256592,-7.838616371154785,2.073378562927246,-4.8675537109375,1.6632080078125,0.5950927734375
10.0299999,5.480327606201172,-7.85537576675415,2.0398597717285156,-5.2337646484375,-0.0762939453125,0.7781982421875
10.049999900000001,5.451597213745117,-7.881711959838867,2.0015525817871094,-5.157470703125,-0.213623046875,0.8544921875
10.069999900000001,5.439626216888428,-7.910442352294922,1.9584569931030273,-4.6844482421875,0.9002685546875,0.4119873046875
10.0899999,5.434837818145752,-7.934384346008301,1.9177556037902832,-3.814697265625,0.6561279296875,0.06103515625
10.1099999,5.43723201751709,-7.943961143493652,1.8770540952682495,-2.685546875,-1.0986328125,-0.3509521484375
10.129999900000001,5.442020416259766,-7.94635534286499,1.8507179021835327,-1.3275146484375,-1.861572265625,-1.4801025390625
10.149999900000001,5.451597213745117,-7.934384346008301,1.8387469053268433,-0.48828125,-1.0528564453125,-2.0294189453125
10.1699999,5.468356609344482,-7.920019149780273,1.8507179021835327,-0.4730224609375,-0.5645751953125,-1.8157958984375
10.1899999,5.477933406829834,-7.90086555480957,1.8842366933822632,-0.9613037109375,-0.762939453125,-1.7547607421875
10.209999900000001,5.477933406829834,-7.8745293617248535,1.922544002532959,-1.9378662109375,-0.7781982421875,-2.5787353515625
10.229999900000001,5.480327606201172,-7.857769966125488,1.9608511924743652,-3.662109375,-0.8544921875,-3.6773681640625
10.2499999,5.468356609344482,-7.843404769897461,1.987187385559082,-5.096435546875,-0.518798828125,-3.2501220703125
10.2699999,5.453991413116455,-7.829039573669434,2.0039467811584473,-6.317138671875,-1.4495849609375,-2.6092529296875
10.2899999,5.439626216888428,-7.817068576812744,2.008735179901123,-8.514404296875,-2.899169921875,-3.814697265625
10.309999900000001,5.434837818145752,-7.807491779327393,1.9967641830444336,-10.8795166015625,-3.0670166015625,-5.615234375
10.3299999,5.406107425689697,-7.876923561096191,1.8746598958969116,-11.9781494140625,-4.1961669921875,-5.462646484375
10.3499999,5.4252610206604,-7.965508937835693,1.7118542194366455,-2.13623046875,-14.5416259765625,-2.8076171875
10.3699999,5.453991413116455,-8.101978302001953,1.5298948287963867,11.077880859375,-23.406982421875,0.06103515625
10.389999900000001,5.5545477867126465,-8.149862289428711,1.4724340438842773,11.749267578125,-19.0582275390625,1.617431640625
10.4099999,5.669469833374023,-8.101978302001953,1.5298948287963867,5.1727294921875,-1.46484375,-0.5035400390625
10.4299999,5.765237808227539,-7.9415669441223145,1.702277421951294,-1.800537109375,10.5133056640625,-3.96728515625
10.4499999,5.78678560256958,-7.795520782470703,1.821987509727478,-6.7138671875,11.04736328125,-6.0272216796875
10.469999900000001,5.7556610107421875,-7.673416614532471,1.8531121015548706,-9.490966796875,3.2501220703125,-4.8370361328125
10.4899999,5.774814605712891,-7.558494567871094,1.9297266006469727,-18.7530517578125,3.143310546875,0.823974609375
10.5099999,5.822698593139648,-7.510610580444336,1.9153614044189453,-36.6668701171875,21.0723876953125,1.953125
10.5299999,5.808333396911621,-7.5417351722717285,1.9081788063049316,-43.853759765625,19.1650390625,3.4942626953125
10.549999900000001,5.731719017028809,-7.642292022705078,1.699883222579956,-36.865234375,4.21142578125,5.5084228515625
10.569999900000001,5.595249176025391,-7.82185697555542,1.3455413579940796,-25.9552001953125,-6.6375732421875,7.2174072265625
10.5899999,5.489904403686523,-8.030152320861816,0.9888052940368652,-14.2059326171875,-8.758544921875,7.5836181640625
10.6099999,5.439626216888428,-8.216899871826172,0.727837324142456,-2.5177001953125,-3.448486328125,6.28662109375
10.629999900000001,5.4228668212890625,-8.35336971282959,0.5722141861915588,8.1329345703125,3.11279296875,4.82177734375
10.649999900000001,5.406107425689697,-8.418013572692871,0.5315127968788147,17.1661376953125,3.448486328125,3.997802734375
10.6699999,5.370194435119629,-8.42040729522705,0.5674257874488831,23.8800048828125,-1.28173828125,2.6702880859375
10.6899999,5.322310447692871,-8.365341186523438,0.6751648783683777,28.472900390625,-5.1116943359375,-0.1678466796875
10.709999900000001,5.30076265335083,-8.279149055480957,0.8379706144332886,30.9600830078125,-4.7454833984375,-2.7923583984375
10.729999900000001,5.317522048950195,-8.185775756835938,1.0438719987869263,32.7301025390625,-1.5411376953125,-3.7841796875
10.7499999,5.372588634490967,-8.090007781982422,1.2617442607879639,32.8369140625,1.8768310546875,-4.0740966796875
10.7699999,5.442020416259766,-8.003816604614258,1.4652514457702637,30.1361083984375,3.662109375,-4.3487548828125
10.7899999,5.509057998657227,-7.922413349151611,1.6424223184585571,26.8402099609375,4.1961669921875,-3.4942626953125
10.809999900000001,5.544970989227295,-7.843404769897461,1.7860745191574097,22.7203369140625,4.3792724609375,-2.62451171875
10.8299999,5.56173038482666,-7.773972988128662,1.9105730056762695,18.0511474609375,4.4403076171875,-2.2735595703125
10.8499999,5.566518783569336,-7.711723804473877,2.013523578643799,13.2293701171875,4.8828125,-2.1209716796875
10.8699999,5.5545477867126465,-7.666234016418457,2.097320795059204,8.4686279296875,6.1798095703125,-2.410888671875
10.889999900000001,5.552153587341309,-7.637503623962402,2.169146776199341,3.72314453125,7.01904296875,-1.8310546875
10.9099999,5.5545477867126465,-7.630321025848389,2.2170307636260986,0.0762939453125,7.720947265625,-0.9002685546875
10.9299999,5.556941986083984,-7.647080421447754,2.2433669567108154,-2.838134765625,7.7667236328125,0.0152587890625
10.9499999,5.564124584197998,-7.675810813903809,2.2457611560821533,-4.8675537109375,7.4462890625,1.312255859375
10.969999900000001,5.566518783569336,-7.716512203216553,2.22660756111145,-5.6304931640625,6.89697265625,2.2125244140625
10.9899999,5.56173038482666,-7.757213592529297,2.1954829692840576,-5.6610107421875,6.3934326171875,2.44140625
11.0099999,5.552153587341309,-7.790732383728027,2.1571757793426514,-4.730224609375,6.103515625,2.4871826171875
11.0299999,5.530605792999268,-7.826645374298096,2.118868589401245,-3.3111572265625,4.974365234375,2.6702880859375
11.049999900000001,5.506663799285889,-7.8529815673828125,2.0877439975738525,-1.4495849609375,3.1280517578125,2.838134765625
11.069999900000001,5.48272180557251,-7.8745293617248535,2.073378562927246,0.5035400390625,2.0904541015625,2.2430419921875
11.0899999,5.463568210601807,-7.8960771560668945,2.073378562927246,2.227783203125,2.0294189453125,1.2054443359375
11.1099999,5.456385612487793,-7.910442352294922,2.0901381969451904,3.72314453125,1.556396484375,0.91552734375
11.129999900000001,5.453991413116455,-7.922413349151611,2.1116859912872314,4.8828125,0.8087158203125,1.1444091796875
11.149999900000001,5.456385612487793,-7.927201747894287,2.1380221843719482,5.67626953125,0.1373291015625,1.007080078125
11.1699999,5.456385612487793,-7.9176249504089355,2.164358377456665,5.9051513671875,-0.5645751953125,0.54931640625
11.1899999,5.453991413116455,-7.898471355438232,2.1954829692840576,5.1727294921875,-1.2054443359375,-0.06103515625
11.209999900000001,5.446808815002441,-7.872135162353516,2.2194249629974365,4.150390625,-2.197265625,-0.5645751953125
11.229999900000001,5.4252610206604,-7.843404769897461,2.250549554824829,2.4566650390625,-5.523681640625,-0.1678466796875
11.2499999,5.415684223175049,-7.805097579956055,2.293645143508911,-0.8392333984375,-8.8348388671875,0.213623046875
11.2699999,5.389348030090332,-7.757213592529297,2.343923568725586,-5.218505859375,-8.3465576171875,-0.518798828125
11.2899999,5.384559631347656,-7.723694801330566,2.387019157409668,-10.6964111328125,-7.2174072265625,-1.4495849609375
11.309999900000001,5.317522048950195,-7.812280178070068,2.2385785579681396,-14.739990234375,-9.1400146484375,-1.953125
11.3299999,5.336675643920898,-7.876923561096191,2.1116859912872314,-3.875732421875,-17.8680419921875,-2.38037109375
11.3499999,5.34625244140625,-8.04691219329834,1.8411411046981812,13.0767822265625,-21.91162109375,-3.875732421875
11.3699999,5.463568210601807,-8.106766700744629,1.721431016921997,22.186279296875,-16.7999267578125,-5.279541015625
11.389999900000001,5.633556365966797,-8.101978302001953,1.7836803197860718,18.5394287109375,0.7781982421875,-6.8359375
11.4099999,5.758055210113525,-7.9415669441223145,1.9488801956176758,7.7362060546875,12.14599609375,-6.8511962890625
11.4299999,5.839457988739014,-7.783549785614014,2.1930887699127197,-3.814697265625,3.7078857421875,-2.716064453125
11.4499999,5.841852188110352,-7.50582218170166,2.4205379486083984,-15.289306640625,-9.7503662109375,2.7313232421875
11.469999900000001,5.839457988739014,-7.374141216278076,2.5689783096313477,-26.214599609375,-9.2315673828125,5.4473876953125
11.4899999,5.805939197540283,-7.285555839538574,2.5905263423919678,-34.48486328125,3.23486328125,4.9285888671875
11.5099999,5.774814605712891,-7.321468830108643,2.5115175247192383,-39.1693115234375,9.368896484375,4.364013671875
11.5299999,5.69580602645874,-7.457938194274902,2.2888567447662354,-41.107177734375,5.55419921875,5.645751953125
11.549999900000001,5.592854976654053,-7.60637903213501,1.9943699836730957,-39.459228515625,1.9683837890625,6.9427490234375
11.569999900000001,5.485116004943848,-7.8314337730407715,1.6615760326385498,-34.36279296875,0.701904296875,6.6986083984375
11.5899999,5.410895824432373,-8.056488990783691,1.3646949529647827,-27.313232421875,-0.7476806640625,5.6610107421875
11.6099999,5.355829238891602,-8.286332130432129,1.0989385843276978,-19.34814453125,-3.11279296875,4.8675537109375
11.629999900000001,5.341464042663574,-8.473079681396484,0.8906430602073669,-11.138916015625,-5.7373046875,4.119873046875
11.649999900000001,5.329493045806885,-8.564059257507324,0.7422025203704834,-3.2501220703125,-6.9427490234375,2.8839111328125
11.6699999,5.336675643920898,-8.56645393371582,0.6775590777397156,3.1280517578125,-10.0860595703125,2.0751953125
11.6899999,5.365406036376953,-8.47786808013916,0.6655880808830261,7.1868896484375,-11.53564453125,0.9307861328125
11.709999900000001,5.377377033233643,-8.348581314086914,0.7445967197418213,9.307861328125,-6.3018798828125,-1.8310546875
11.729999900000001,5.403713226318359,-8.192957878112793,0.8547300100326538,9.796142578125,-2.0904541015625,-3.4637451171875
11.7499999,5.439626216888428,-8.058882713317871,0.9911994934082031,8.9111328125,-4.6844482421875,-2.105712890625
11.7699999,5.4659624099731445,-7.951143741607666,1.1109095811843872,7.0953369140625,-5.8746337890625,0.0762939453125
11.7899999,5.51624059677124,-7.91283655166626,1.2090718746185303,4.82177734375,-1.953125,0.6256103515625
11.809999900000001,5.556941986083984,-7.886500358581543,1.278503656387329,2.5634765625,2.166748046875,-0.3509521484375
11.8299999,5.564124584197998,-7.927201747894287,1.316810965538025,0.4119873046875,3.35693359375,0.1678466796875
11.8499999,5.542576789855957,-7.987056732177734,1.3024457693099976,-0.9002685546875,2.105712890625,2.0294189453125
11.8699999,5.513846397399902,-8.037335395812988,1.2713210582733154,-2.01416015625,0.2593994140625,3.23486328125
11.889999900000001,5.451597213745117,-8.020575523376465,1.235408067703247,-2.899169921875,1.800537109375,2.105712890625
11.9099999,5.427655220031738,-8.094796180725098,1.1875240802764893,-3.1280517578125,4.241943359375,-0.030517578125
11.9299999,5.403713226318359,-8.003816604614258,1.192312479019165,-2.9449462890625,4.4403076171875,-0.579833984375
11.9499999,5.4228668212890625,-8.130708694458008,1.170764684677124,-1.617431640625,5.340576171875,0.06103515625
11.969999900000001,5.415684223175049,-8.133103370666504,1.1659762859344482,0.579833984375,5.3558349609375,0.5645751953125
11.9899999,5.434837818145752,-8.202534675598145,1.1635819673538208,2.8228759765625,3.997802734375,0.3509521484375
12.0099999,5.403713226318359,-8.221688270568848,1.1420341730117798,4.7607421875,3.23486328125,-0.0457763671875
12.0299999,5.415684223175049,-8.145073890686035,1.1803414821624756,6.805419921875,0.457763671875,0.1983642578125
12.049999900000001,5.485116004943848,-7.951143741607666,1.5442601442337036,0.3814697265625,3.3416748046875,-0.030517578125
12.069999900000001,5.564124584197998,-7.805097579956055,1.721431016921997,-22.94921875,22.6287841796875,-0.457763671875
12.0899999,5.631162166595459,-7.65186882019043,2.008735179901123,-37.3077392578125,32.684326171875,1.2664794921875
12.1099999,5.592854976654053,-7.711723804473877,1.8914192914962769,-35.0799560546875,21.240234375,3.570556640625
12.129999900000001,5.456385612487793,-7.9176249504089355,1.4987702369689941,-21.9268798828125,2.2430419921875,5.9967041015625
12.149999900000001,5.281609058380127,-8.197746276855469,0.9983820915222168,-5.828857421875,-11.3067626953125,7.0037841796875
12.1699999,5.154716491699219,-8.451532363891602,0.5770025849342346,9.7198486328125,-15.3045654296875,7.0037841796875
12.1899999,5.102043628692627,-8.604761123657227,0.3495534360408783,22.247314453125,-11.322021484375,5.06591796875
12.209999900000001,5.116408824920654,-8.643068313598633,0.3232172429561615,31.2957763671875,-4.4097900390625,1.220703125
12.229999900000001,5.161899089813232,-8.588001251220703,0.45010992884635925,37.53662109375,-0.274658203125,-2.2125244140625
12.2499999,5.224148273468018,-8.47547435760498,0.6584054827690125,41.6412353515625,-0.335693359375,-4.058837890625
12.2699999,5.286397457122803,-8.343792915344238,0.9074024558067322,43.670654296875,-1.9989013671875,-4.94384765625
12.289999900000002,5.351040840148926,-8.212111473083496,1.1659762859344482,43.27392578125,-2.1820068359375,-5.2947998046875
12.309999900000001,5.413290023803711,-8.090007781982422,1.4197616577148438,40.7867431640625,-1.2054443359375,-4.7149658203125
12.3299999,5.458779811859131,-7.975085735321045,1.6615760326385498,36.590576171875,0.1983642578125,-3.47900390625
12.3499999,5.489904403686523,-7.864952564239502,1.886630892753601,30.9600830078125,2.6397705078125,-2.44140625
12.3699999,5.499481201171875,-7.773972988128662,2.0853497982025146,24.5513916015625,6.683349609375,-2.4261474609375
12.389999900000001,5.494692802429199,-7.706935405731201,2.250549554824829,18.310546875,10.0250244140625,-2.50244140625
12.4099999,5.475539207458496,-7.668628215789795,2.3750481605529785,12.451171875,10.284423828125,-1.7547607421875
12.4299999,5.449203014373779,-7.663839817047119,2.451662540435791,7.2784423828125,8.636474609375,-0.6561279296875
12.4499999,5.420472621917725,-7.682993412017822,2.494758129119873,2.7008056640625,7.5225830078125,0.2593994140625
12.469999900000001,5.398924827575684,-7.718906402587891,2.518700122833252,-1.1138916015625,7.01904296875,0.9002685546875
12.4899999,5.384559631347656,-7.759607791900635,2.5282769203186035,-4.21142578125,7.26318359375,1.15966796875
12.5099999,5.377377033233643,-7.807491779327393,2.5234885215759277,-6.6070556640625,7.904052734375,0.640869140625
12.5299999,5.372588634490967,-7.857769966125488,2.5019407272338867,-7.87353515625,8.4075927734375,-0.274658203125
12.549999900000001,5.365406036376953,-7.910442352294922,2.4588451385498047,-7.537841796875,7.4462890625,-1.03759765625
12.569999900000001,5.351040840148926,-7.960720539093018,2.408566951751709,-6.2255859375,4.8675537109375,-1.007080078125
12.5899999,5.3342814445495605,-7.999027729034424,2.3582887649536133,-4.7149658203125,2.6092529296875,-0.6561279296875
12.6099999,5.319916248321533,-8.018181800842285,2.3247697353363037,-3.41796875,2.13623046875,-1.4190673828125
12.629999900000001,5.307945251464844,-8.015787124633789,2.3080103397369385,-1.9989013671875,3.448486328125,-2.8839111328125
12.649999900000001,5.293580055236816,-7.994239330291748,2.298433542251587,-0.335693359375,3.72314453125,-3.7841796875
12.6699999,5.276820659637451,-7.967903137207031,2.2840683460235596,1.251220703125,0.640869140625,-3.814697265625
12.6899999,5.260061264038086,-7.934384346008301,2.276885747909546,2.6702880859375,-4.8828125,-3.4637451171875
12.709999900000001,5.272032260894775,-7.893682956695557,2.2888567447662354,3.082275390625,-7.965087890625,-3.0517578125
12.729999900000001,5.310339450836182,-7.857769966125488,2.3080103397369385,1.6632080078125,-4.5928955078125,-3.8604736328125
12.7499999,5.341464042663574,-7.8098859786987305,2.367865562438965,-0.54931640625,-0.8697509765625,-5.3253173828125
12.7699999,5.348646640777588,-7.819462776184082,2.3750481605529785,-2.349853515625,-1.5106201171875,-6.1798095703125
12.789999900000002,5.317522048950195,-7.931990146636963,2.2361843585968018,-0.396728515625,-11.749267578125,-4.4403076171875
12.809999900000001,5.319916248321533,-7.994239330291748,1.9823989868164062,14.7552490234375,-20.1416015625,-3.7689208984375
12.8299999,5.365406036376953,-8.190564155578613,1.8483237028121948,28.228759765625,-15.3350830078125,-6.6986083984375
12.8499999,5.475539207458496,-8.13789176940918,1.7142484188079834,35.7208251953125,-4.119873046875,-8.7738037109375
12.8699999,5.616796970367432,-8.090007781982422,1.9273324012756348,30.5023193359375,0.946044921875,-9.063720703125
12.889999900000001,5.746084213256836,-7.829039573669434,2.2146365642547607,18.9971923828125,1.129150390625,-7.171630859375
12.9099999,5.863399982452393,-7.6566572189331055,2.535459518432617,6.072998046875,4.1961669921875,-4.4708251953125
12.9299999,5.937620162963867,-7.390900611877441,2.7772738933563232,-5.523681640625,8.758544921875,-1.5106201171875
12.9499999,5.932831764221191,-7.285555839538574,2.9065608978271484,-14.1143798828125,12.603759765625,1.3580322265625
12.969999900000001,5.822698593139648,-7.247248649597168,2.8850131034851074,-18.6920166015625,13.5345458984375,2.655029296875
12.9899999,5.647922039031982,-7.297526836395264,2.7676970958709717,-20.355224609375,7.0648193359375,3.265380859375
13.0099999,5.451597213745117,-7.445967197418213,2.585737943649292,-20.721435546875,-1.4801025390625,4.638671875
13.0299999,5.324704647064209,-7.594407558441162,2.4205379486083984,-20.32470703125,-5.279541015625,6.0577392578125
13.049999900000001,5.286397457122803,-7.711723804473877,2.27209734916687,-18.8446044921875,-2.4566650390625,5.6304931640625
13.069999900000001,5.293580055236816,-7.785943984985352,2.183511972427368,-16.3726806640625,0.6103515625,3.9520263671875
13.0899999,5.336675643920898,-7.845798969268799,2.126051187515259,-12.9547119140625,-0.18310546875,3.3416748046875
13.1099999,5.374982833862305,-7.910442352294922,2.0877439975738525,-9.5062255859375,-0.6256103515625,2.5634765625
13.129999900000001,5.398924827575684,-7.982268333435059,2.0614075660705566,-5.8135986328125,1.5716552734375,0.2899169921875
13.149999900000001,5.4228668212890625,-8.068459510803223,2.0374655723571777,-1.8157958984375,1.40380859375,-1.4801025390625
13.1699999,5.439626216888428,-8.130708694458008,2.008735179901123,1.77001953125,-1.190185546875,-1.434326171875
13.1899999,5.451597213745117,-8.13789176940918,1.9991583824157715,3.692626953125,-4.2877197265625,-1.190185546875
13.209999900000001,5.473145008087158,-8.04930591583252,2.0207061767578125,4.1351318359375,-4.913330078125,-1.6326904296875
13.229999900000001,5.506663799285889,-7.999027729034424,2.049436569213867,3.5247802734375,-5.06591796875,-1.373291015625
13.2499999,5.5545477867126465,-7.802703380584717,2.1284453868865967,2.4566650390625,-2.3651123046875,-0.2593994140625
13.2699999,5.580883979797363,-7.807491779327393,2.166752576828003,0.9002685546875,1.739501953125,0.030517578125
13.289999900000002,5.559336185455322,-7.706935405731201,2.2026655673980713,-0.091552734375,3.1585693359375,-0.7171630859375
13.309999900000001,5.523423194885254,-7.692570209503174,2.188300371170044,-0.6866455078125,-0.0457763671875,-0.7781982421875
13.3299999,5.475539207458496,-7.702147006988525,2.1475989818573,-1.190185546875,-5.06591796875,0.8392333984375
13.3499999,5.47075080871582,-7.740454196929932,2.1140801906585693,-1.52587890625,-4.2724609375,2.3345947265625
13.3699999,5.48272180557251,-7.819462776184082,2.075772762298584,-2.01416015625,0.9918212890625,2.471923828125
13.389999900000001,5.489904403686523,-7.922413349151611,2.0446481704711914,-1.8768310546875,3.35693359375,1.7852783203125
13.4099999,5.456385612487793,-7.977479934692383,2.0254945755004883,-1.0528564453125,-0.0457763671875,1.617431640625
13.4299999,5.418078422546387,-7.9631147384643555,1.9943699836730957,-0.18310546875,-3.8604736328125,1.7242431640625
13.4499999,5.372588634490967,-7.931990146636963,1.9991583824157715,0.030517578125,-3.4332275390625,1.03759765625
13.469999900000001,5.348646640777588,-7.9176249504089355,1.9991583824157715,-0.1678466796875,0.335693359375,-0.3204345703125
13.4899999,5.365406036376953,-7.893682956695557,2.0039467811584473,-0.1678466796875,2.960205078125,-1.1444091796875
13.5099999,5.3582234382629395,-7.893682956695557,1.9991583824157715,0.6103515625,3.1890869140625,-1.5716552734375
13.5299999,5.382165431976318,-7.943961143493652,1.968033790588379,1.64794921875,1.15966796875,-1.89208984375
13.549999900000001,5.39174222946167,-7.90086555480957,1.968033790588379,2.3193359375,-1.1138916015625,-1.251220703125
13.569999900000001,5.415684223175049,-7.905653953552246,1.9823989868164062,2.044677734375,-0.823974609375,-0.213623046875
13.5899999,5.43723201751709,-7.884106159210205,2.008735179901123,1.0528564453125,2.655029296875,-0.7476806640625
13.6099999,5.456385612487793,-7.838616371154785,2.0254945755004883,0.3509521484375,4.5166015625,-1.7242431640625
13.629999900000001,5.4659624099731445,-7.802703380584717,2.0374655723571777,0.5950927734375,2.9296875,-1.3427734375
13.649999900000001,5.458779811859131,-7.793126583099365,2.03507137298584,0.640869140625,1.1444091796875,-0.18310546875
13.6699999,5.468356609344482,-7.759607791900635,2.0685901641845703,0.1983642578125,-0.8087158203125,1.251220703125
13.6899999,5.485116004943848,-7.766790390014648,2.121262788772583,-1.373291015625,-3.631591796875,2.716064453125
13.709999900000001,5.513846397399902,-7.773972988128662,2.1930887699127197,-3.387451171875,-1.7852783203125,3.2958984375
13.729999900000001,5.544970989227295,-7.781155586242676,2.2361843585968018,-5.2337646484375,3.662109375,2.2735595703125
13.7499999,5.530605792999268,-7.805097579956055,2.233790159225464,-5.584716796875,6.6375732421875,0.3662109375
13.7699999,5.497087001800537,-7.8529815673828125,2.1978771686553955,-4.08935546875,2.8839111328125,0.0762939453125
13.789999900000002,5.4252610206604,-7.936778545379639,2.1116859912872314,-1.64794921875,-3.11279296875,1.3275146484375
13.809999900000001,5.374982833862305,-8.003816604614258,2.075772762298584,-0.0152587890625,-6.9732666015625,1.9378662109375
13.8299999,5.365406036376953,-8.056488990783691,2.051830768585205,0.1678466796875,-5.6610107421875,0.3509521484375
13.8499999,5.367800235748291,-8.068459510803223,2.0254945755004883,0.1068115234375,-2.38037109375,-1.3275146484375
13.8699999,5.403713226318359,-8.015787124633789,2.008735179901123,2.2735595703125,-5.279541015625,0.06103515625
13.889999900000001,5.420472621917725,-7.987056732177734,1.9776105880737305,6.5155029296875,-13.763427734375,2.1209716796875
13.9099999,5.442020416259766,-7.922413349151611,2.0254945755004883,5.889892578125,-14.9383544921875,1.4801025390625
13.9299999,5.475539207458496,-7.836222171783447,2.0901381969451904,1.3885498046875,-9.490966796875,0.9002685546875
13.9499999,5.4875102043151855,-7.723694801330566,2.2361843585968018,-4.974365234375,-6.0577392578125,1.495361328125
13.969999900000001,5.540182590484619,-7.666234016418457,2.31758713722229,-11.4593505859375,-5.3253173828125,1.7852783203125
13.9899999,5.588066577911377,-7.649474620819092,2.319981336593628,-16.2506103515625,-2.6092529296875,1.5869140625
14.0099999,5.635950565338135,-7.706935405731201,2.2457611560821533,-18.798828125,3.41796875,1.2359619140625
14.0299999,5.657498836517334,-7.812280178070068,2.0805611610412598,-19.1650390625,7.720947265625,0.5645751953125
14.049999900000001,5.635950565338135,-7.888894557952881,1.8914192914962769,-17.8070068359375,6.7291259765625,0.3204345703125
14.069999900000001,5.568912982940674,-7.951143741607666,1.6855180263519287,-14.556884765625,4.5623779296875,0.42724609375
14.0899999,5.51624059677124,-8.034940719604492,1.5155296325683594,-10.040283203125,4.08935546875,-0.0762939453125
14.1099999,5.473145008087158,-8.147468566894531,1.357512354850769,-4.33349609375,11.1846923828125,-2.4261474609375
14.129999900000001,5.4252610206604,-8.20492935180664,1.2282254695892334,3.143310546875,16.7999267578125,-4.852294921875
14.149999900000001,5.372588634490967,-8.339004516601562,1.1252747774124146,10.2386474609375,7.2784423828125,-4.1656494140625
14.1699999,5.343858242034912,-8.271966934204102,1.1109095811843872,16.29638671875,-5.37109375,-1.8463134765625
14.1899999,5.398924827575684,-8.097189903259277,1.3982137441635132,9.1552734375,-3.8604736328125,-1.2969970703125
14.209999900000001,5.477933406829834,-7.857769966125488,1.7262194156646729,-16.082763671875,15.106201171875,-0.1983642578125
14.229999900000001,5.559336185455322,-7.60637903213501,2.094926595687866,-30.3802490234375,24.2462158203125,1.495361328125
14.2499999,5.537788391113281,-7.532158374786377,2.2026655673980713,-28.7933349609375,12.75634765625,3.387451171875
14.2699999,5.432443618774414,-7.649474620819092,1.987187385559082,-16.876220703125,-3.173828125,6.011962890625
14.289999900000002,5.319916248321533,-7.888894557952881,1.6160861253738403,-2.3040771484375,-10.2691650390625,6.8817138671875
14.309999900000001,5.264849662780762,-8.14028549194336,1.2737152576446533,10.3302001953125,-6.7596435546875,5.6610107421875
14.3299999,5.281609058380127,-8.33182144165039,1.072602391242981,20.1263427734375,1.495361328125,3.7689208984375
14.3499999,5.319916248321533,-8.44434928894043,1.0247182846069336,27.6947021484375,7.0343017578125,1.800537109375
14.3699999,5.339069843292236,-8.47547435760498,1.0893617868423462,34.0576171875,6.3629150390625,0.2899169921875
14.389999900000001,5.329493045806885,-8.429984092712402,1.2282254695892334,38.330078125,1.4190673828125,-1.220703125
14.4099999,5.307945251464844,-8.334216117858887,1.414973258972168,40.5426025390625,-1.556396484375,-3.143310546875
14.4299999,5.315127849578857,-8.20492935180664,1.644816517829895,40.985107421875,-0.9918212890625,-4.241943359375
14.4499999,5.341464042663574,-8.061277389526367,1.886630892753601,39.459228515625,1.7852783203125,-4.0283203125
14.469999900000001,5.418078422546387,-7.800309181213379,2.343923568725586,31.43310546875,4.45556640625,-2.4566650390625
14.4899999,5.432443618774414,-7.690176010131836,2.5282769203186035,26.1077880859375,4.8980712890625,-1.068115234375
14.5099999,5.427655220031738,-7.603984832763672,2.6791117191314697,20.538330078125,5.0048828125,0.1983642578125
14.5299999,5.427655220031738,-7.544129371643066,2.801215887069702,14.95361328125,6.1187744140625,0.5340576171875
14.549999900000001,5.408501625061035,-7.510610580444336,2.889801502227783,9.7503662109375,9.2926025390625,0.3509521484375
14.569999900000001,5.384559631347656,-7.503427982330322,2.956839084625244,5.2490234375,11.8255615234375,0.5035400390625
14.5899999,5.353435039520264,-7.524975776672363,2.9927520751953125,1.6937255859375,12.3748779296875,0.4730224609375
14.6099999,5.3127336502075195,-7.568071365356445,3.004723072052002,-0.67138671875,11.688232421875,-0.1373291015625
14.629999900000001,5.286397457122803,-7.623138427734375,3.002328872680664,-2.0599365234375,9.9639892578125,-0.4730224609375
14.649999900000001,5.2672438621521,-7.682993412017822,2.9903578758239746,-2.9144287109375,8.4686279296875,-0.2899169921875
14.6699999,5.2696380615234375,-7.735665798187256,2.978386878967285,-2.9296875,7.4920654296875,-0.091552734375
14.6899999,5.276820659637451,-7.7763671875,2.9688100814819336,-2.044677734375,6.8817138671875,-0.54931640625
14.709999900000001,5.288791656494141,-7.795520782470703,2.96162748336792,-0.6866455078125,6.9427490234375,-1.2664794921875
14.729999900000001,5.288791656494141,-7.805097579956055,2.964021682739258,0.7171630859375,6.40869140625,-1.617431640625
14.7499999,5.276820659637451,-7.800309181213379,2.9688100814819336,2.7313232421875,4.7760009765625,-1.7547607421875
14.7699999,5.260061264038086,-7.790732383728027,2.978386878967285,5.0048828125,2.532958984375,-2.0599365234375
14.789999900000002,5.238513469696045,-7.7763671875,2.9903578758239746,6.7901611328125,0.5035400390625,-2.2430419921875
14.809999900000001,5.231330871582031,-7.754819393157959,3.0142998695373535,8.148193359375,-2.105712890625,-1.7242431640625
14.8299999,5.2480902671813965,-7.726089000701904,3.0526070594787598,8.514404296875,-3.082275390625,-1.251220703125
14.8499999,5.279214859008789,-7.68538761138916,3.098097085952759,7.659912109375,-0.7171630859375,-1.6937255859375
14.8699999,5.315127849578857,-7.642292022705078,3.141192674636841,6.1187744140625,0.9307861328125,-2.288818359375
14.889999900000001,5.341464042663574,-7.603984832763672,3.1699230670928955,4.638671875,-0.946044921875,-1.9683837890625
14.9099999,5.3582234382629395,-7.570465564727783,3.177105665206909,3.0975341796875,-2.8076171875,-0.8544921875
14.9299999,5.3582234382629395,-7.5417351722717285,3.181894063949585,1.220703125,-3.0517578125,-0.3509521484375
14.9499999,5.353435039520264,-7.510610580444336,3.1747114658355713,-1.2664794921875,-2.166748046875,-0.7476806640625
14.969999900000001,5.343858242034912,-7.489062786102295,3.1651346683502197,-3.9215087890625,-3.1890869140625,-0.8544921875
14.9899999,5.341464042663574,-7.484274387359619,3.157952070236206,-6.500244140625,-4.852294921875,-0.244140625
15.0099999,5.348646640777588,-7.493851184844971,3.1483752727508545,-8.6517333984375,-2.5482177734375,-0.42724609375
15.0299999,5.363011837005615,-7.532158374786377,3.1220390796661377,-10.3912353515625,1.007080078125,-1.800537109375
15.049999900000001,5.374982833862305,-7.570465564727783,3.1100680828094482,-10.8642578125,-0.946044921875,-1.7852783203125
15.069999900000001,5.355829238891602,-7.623138427734375,3.0621838569641113,-11.383056640625,-5.4168701171875,-0.1678466796875
15.0899999,5.30076265335083,-7.750030994415283,2.920926094055176,-10.25390625,-12.908935546875,1.129150390625
15.1099999,5.2672438621521,-7.860164165496826,2.7317841053009033,3.72314453125,-20.904541015625,0.823974609375
15.129999900000001,5.281609058380127,-8.003816604614258,2.537853717803955,17.6239013671875,-21.91162109375,-0.8697509765625
15.149999900000001,5.336675643920898,-8.034940719604492,2.3918075561523438,25.20751953125,-19.8974609375,-1.4190673828125
15.1699999,5.477933406829834,-7.999027729034424,2.47560453414917,28.7322998046875,-15.6097412109375,-0.4425048828125
15.1899999,5.60722017288208,-7.7883381843566895,2.7030537128448486,19.683837890625,-6.6680908203125,-1.312255859375
15.209999900000001,5.69580602645874,-7.556100368499756,3.002328872680664,6.16455078125,2.50244140625,-1.983642578125
15.229999900000001,5.705382823944092,-7.328651428222656,3.3016040325164795,-6.2408447265625,-0.2288818359375,1.007080078125
15.2499999,5.70777702331543,-7.161057472229004,3.44765043258667,-16.937255859375,-10.0555419921875,5.5694580078125
15.2699999,5.652710437774658,-7.067683219909668,3.5218706130981445,-26.7791748046875,-11.9781494140625,8.5296630859375
15.289999900000002,5.643133640289307,-7.067683219909668,3.4620156288146973,-35.2020263671875,-4.5623779296875,9.7808837890625
15.309999900000001,5.614402770996094,-7.115567684173584,3.335123062133789,-40.10009765625,7.4615478515625,8.6517333984375
15.3299999,5.537788391113281,-7.280767440795898,3.1004912853240967,-40.252685546875,11.5203857421875,5.9967041015625
15.3499999,5.4444146156311035,-7.5201873779296875,2.784456491470337,-37.261962890625,5.889892578125,5.0811767578125
15.3699999,5.315127849578857,-7.826645374298096,2.454056739807129,-32.7911376953125,-0.457763671875,5.8135986328125
15.389999900000001,5.22175407409668,-8.051700592041016,2.1595699787139893,-28.228759765625,-4.33349609375,6.5155029296875
15.4099999,5.161899089813232,-8.238448143005371,1.9536685943603516,-23.162841796875,-4.7454833984375,6.34765625
15.4299999,5.161899089813232,-8.35097599029541,1.8124107122421265,-17.578125,-4.7760009765625,5.096435546875
15.4499999,5.149928092956543,-8.362946510314941,1.723825216293335,-11.77978515625,-5.06591796875,2.838134765625
15.469999900000001,5.166687488555908,-8.439560890197754,1.6615760326385498,-6.622314453125,-5.706787109375,0.1068115234375
15.4899999,5.161899089813232,-8.377311706542969,1.6496049165725708,-2.50244140625,-8.6212158203125,-1.6326904296875
15.5099999,5.202600479125977,-8.327033042907715,1.6663644313812256,-0.06103515625,-10.9710693359375,-1.9683837890625
15.5299999,5.264849662780762,-8.288725852966309,1.6974890232086182,1.312255859375,-8.4686279296875,-1.64794921875
15.549999900000001,5.336675643920898,-8.17380428314209,1.7310078144073486,2.38037109375,-3.60107421875,-1.6632080078125
15.569999900000001,5.382165431976318,-8.118738174438477,1.7357962131500244,3.448486328125,-1.312255859375,-2.3651123046875
15.5899999,5.3797712326049805,-8.003816604614258,1.745373010635376,4.5318603515625,-3.0670166015625,-2.38037109375
15.6099999,5.365406036376953,-7.915230751037598,1.7693150043487549,4.2724609375,-7.5531005859375,-0.335693359375
15.629999900000001,5.360617637634277,-7.836222171783447,1.7956513166427612,2.3193359375,-6.5765380859375,1.64794921875
15.649999900000001,5.386953830718994,-7.802703380584717,1.8267759084701538,0,-0.7171630859375,1.7852783203125
15.6699999,5.39174222946167,-7.802703380584717,1.843535304069519,-2.227783203125,1.983642578125,1.46484375
15.6899999,5.374982833862305,-7.826645374298096,1.8363527059555054,-3.662109375,0.7476806640625,1.4801025390625
15.709999900000001,5.348646640777588,-7.893682956695557,1.8124107122421265,-4.39453125,-2.4261474609375,1.77001953125
15.729999900000001,5.341464042663574,-7.987056732177734,1.8052281141281128,-5.035400390625,-2.166748046875,2.0294189453125
15.7499999,5.374982833862305,-8.061277389526367,1.7836803197860718,-4.9896240234375,3.7078857421875,1.64794921875
15.7699999,5.396530628204346,-8.101978302001953,1.7717092037200928,-4.1351318359375,7.232666015625,1.983642578125
15.789999900000002,5.3797712326049805,-8.157045364379883,1.742978811264038,-2.349853515625,4.486083984375,2.197265625
15.809999900000001,5.319916248321533,-8.111555099487305,1.7310078144073486,-0.1068115234375,1.190185546875,0.67138671875
15.8299999,5.224148273468018,-8.180987358093262,1.7310078144073486,1.8310546875,-0.030517578125,-1.1138916015625
15.8499999,5.193023681640625,-8.13789176940918,1.778891921043396,2.5634765625,-0.823974609375,-0.946044921875
15.869999900000002,5.1810526847839355,-8.180987358093262,1.8267759084701538,2.7008056640625,0.274658203125,-0.18310546875
15.889999900000001,5.238513469696045,-8.094796180725098,1.8746598958969116,2.62451171875,1.8310546875,-0.1373291015625
15.9099999,5.284003257751465,-8.101978302001953,1.900996208190918,2.50244140625,2.105712890625,-0.396728515625
15.9299999,5.331887245178223,-8.054094314575195,1.9249382019042969,1.617431640625,0.8087158203125,0.1220703125
15.9499999,5.367800235748291,-8.022970199584961,1.9536685943603516,0.030517578125,1.40380859375,0.30517578125
15.969999900000001,5.367800235748291,-8.022970199584961,1.9728221893310547,-1.4190673828125,6.16455078125,-0.8697509765625
15.9899999,5.34625244140625,-8.02536392211914,1.9632453918457031,-1.8157958984375,8.087158203125,-1.9073486328125
16.0099999,5.315127849578857,-8.042123794555664,1.9297266006469727,-1.2054443359375,4.3182373046875,-1.007080078125
16.0299999,5.262455463409424,-8.04930591583252,1.8770540952682495,0.18310546875,0.1220703125,0.579833984375
16.0499999,5.245696067810059,-8.087613105773926,1.843535304069519,1.3885498046875,-1.5106201171875,0.7781982421875
16.0699999,5.214571475982666,-8.044517517089844,1.843535304069519,1.9989013671875,1.77001953125,-0.762939453125
16.089999900000002,5.207388877868652,-8.073247909545898,1.8579005002975464,2.349853515625,2.5787353515625,-1.5106201171875
16.109999900000002,5.202600479125977,-8.02536392211914,1.8938134908676147,2.3193359375,-0.7171630859375,-0.4119873046875
16.1299999,5.212177276611328,-8.010998725891113,1.9321208000183105,1.861572265625,-2.2735595703125,0.2899169921875
16.1499999,5.252878665924072,-7.970297336578369,1.9632453918457031,1.28173828125,-0.91552734375,0.244140625
16.1699999,5.305551052093506,-7.951143741607666,1.98958158493042,0.4119873046875,1.40380859375,0.5035400390625
16.1899999,5.367800235748291,-8.006210327148438,2.1116859912872314,-0.9002685546875,4.7454833984375,0.4425048828125
16.2099999,5.442020416259766,-7.888894557952881,2.2649147510528564,-10.7879638671875,12.6190185546875,-1.0223388671875
16.2299999,5.449203014373779,-7.884106159210205,2.3942017555236816,-28.350830078125,23.9410400390625,-0.0457763671875
16.249999900000002,5.408501625061035,-7.785943984985352,2.3942017555236816,-35.888671875,21.942138671875,1.6326904296875
16.269999900000002,5.279214859008789,-7.814674377441406,2.1811177730560303,-27.89306640625,7.4615478515625,3.8299560546875
16.2899999,5.118803024291992,-7.977479934692383,1.8124107122421265,-15.7318115234375,-5.5084228515625,4.8980712890625
16.3099999,5.006275653839111,-8.190564155578613,1.4484920501708984,-2.8228759765625,-10.467529296875,4.6539306640625
16.3299999,4.967968463897705,-8.379706382751465,1.1971008777618408,8.7432861328125,-7.1563720703125,4.1351318359375
16.3499999,4.991910457611084,-8.492233276367188,1.1061211824417114,17.51708984375,-0.8544921875,2.7923583984375
16.3699999,5.03021764755249,-8.516175270080566,1.1420341730117798,23.4222412109375,1.5411376953125,-0.06103515625
16.3899999,5.063736438751221,-8.465897560119629,1.2689268589019775,27.2674560546875,-1.3580322265625,-2.777099609375
16.4099999,5.099649429321289,-8.367734909057617,1.4389152526855469,28.900146484375,-4.4403076171875,-3.96728515625
16.429999900000002,5.152322292327881,-8.252813339233398,1.6304513216018677,28.62548828125,-4.6234130859375,-4.2266845703125
16.4499999,5.231330871582031,-8.142680168151855,1.8315643072128296,26.5045166015625,-2.9296875,-3.8299560546875
16.4699999,5.317522048950195,-8.032546997070312,2.0207061767578125,22.76611328125,-0.7171630859375,-2.6702880859375
16.4899999,5.386953830718994,-7.931990146636963,2.1930887699127197,17.730712890625,1.15966796875,-0.8697509765625
16.5099999,5.413290023803711,-7.836222171783447,2.3295583724975586,12.3291015625,3.326416015625,0.2288818359375
16.5299999,5.396530628204346,-7.754819393157959,2.432508945465088,6.7596435546875,4.6844482421875,0.1373291015625
16.5499999,5.34625244140625,-7.702147006988525,2.4899697303771973,1.5411376953125,5.6304931640625,-0.18310546875
16.5699999,5.2911858558654785,-7.687781810760498,2.513911724090576,-3.1280517578125,5.5084228515625,0.5340576171875
16.589999900000002,5.257667064666748,-7.714118003845215,2.5067291259765625,-6.4239501953125,5.889892578125,2.0751953125
16.609999900000002,5.250484466552734,-7.771578788757324,2.470816135406494,-8.209228515625,7.904052734375,2.86865234375
16.6299999,5.252878665924072,-7.848193168640137,2.408566951751709,-8.4991455078125,9.5062255859375,3.0364990234375
16.6499999,5.260061264038086,-7.927201747894287,2.3319525718688965,-7.3089599609375,7.8887939453125,3.387451171875
16.6699999,5.262455463409424,-7.994239330291748,2.248155355453491,-5.0506591796875,5.523681640625,3.7994384765625
16.6899999,5.262455463409424,-8.037335395812988,2.1739351749420166,-2.3651123046875,5.4168701171875,3.7841796875
16.7099999,5.264849662780762,-8.058882713317871,2.121262788772583,-0.030517578125,6.134033203125,3.1585693359375
16.7299999,5.260061264038086,-8.058882713317871,2.0877439975738525,1.8157958984375,5.2337646484375,2.227783203125
16.749999900000002,5.25527286529541,-8.042123794555664,2.070984363555908,3.4637451171875,3.8299560546875,2.0294189453125
16.769999900000002,5.243301868438721,-8.01339340209961,2.075772762298584,4.5318603515625,3.5552978515625,2.5482177734375
16.7899999,5.228936672210693,-7.9846625328063965,2.099714994430542,5.0811767578125,4.2724609375,2.8839111328125
16.8099999,5.219359874725342,-7.953537940979004,2.142810583114624,5.06591796875,4.730224609375,3.3721923828125
16.8299999,5.233725070953369,-7.910442352294922,2.1954829692840576,4.6844482421875,3.7384033203125,4.3792724609375
16.8499999,5.288791656494141,-7.862558364868164,2.2601263523101807,3.23486328125,2.50244140625,4.8065185546875
16.8699999,5.394136428833008,-7.797914981842041,2.3056161403656006,1.5869140625,2.166748046875,5.06591796875
16.8899999,5.5760955810546875,-7.6997528076171875,2.3726539611816406,-0.885009765625,-0.396728515625,5.4168701171875
16.9099999,5.813121795654297,-7.630321025848389,2.408566951751709,-4.119873046875,1.5411376953125,4.425048828125
16.929999900000002,6.028599739074707,-7.644686222076416,2.2673089504241943,-1.8768310546875,3.570556640625,4.852294921875
16.9499999,6.222530364990234,-7.7428483963012695,2.118868589401245,16.66259765625,-2.99072265625,7.4615478515625
16.9699999,6.303933143615723,-7.7643961906433105,1.8315643072128296,34.698486328125,-14.6026611328125,9.0484619140625
16.9899999,6.385335922241211,-7.726089000701904,1.745373010635376,42.9534912109375,-14.5263671875,10.2996826171875
17.0099999,6.380547523498535,-7.4770917892456055,1.8531121015548706,36.590576171875,-0.79345703125,12.908935546875
17.0299999,6.311115741729736,-7.132327079772949,2.2002713680267334,22.3846435546875,9.613037109375,18.341064453125
17.0499999,6.150704383850098,-6.737283706665039,2.6384103298187256,4.852294921875,11.71875,23.223876953125
17.0699999,5.856217384338379,-6.478709697723389,3.0358476638793945,-11.5966796875,11.627197265625,25.360107421875
17.089999900000002,5.571307182312012,-6.289567947387695,3.31118106842041,-25.93994140625,14.7705078125,25.482177734375
17.109999900000002,5.319916248321533,-6.270414352416992,3.4141316413879395,-37.811279296875,23.773193359375,25.9552001953125
17.1299999,5.130774021148682,-6.447585105895996,3.3423056602478027,-46.630859375,29.876708984375,28.74755859375
17.1499999,4.972756862640381,-6.732495307922363,3.098097085952759,-49.5147705078125,29.8309326171875,33.294677734375
17.1699999,4.793191909790039,-7.117961883544922,2.75812029838562,-44.9371337890625,25.8026123046875,36.1480712890625
17.1899999,4.565742492675781,-7.5632829666137695,2.408566951751709,-38.177490234375,22.0794677734375,37.1246337890625
17.2099999,4.335899353027344,-7.996633529663086,2.1164743900299072,-34.24072265625,18.8446044921875,39.306640625
17.2299999,4.094084739685059,-8.389283180236816,1.9345149993896484,-30.6854248046875,16.5557861328125,41.6412353515625
17.249999900000002,3.8331170082092285,-8.712499618530273,1.8363527059555054,-24.5513916015625,19.073486328125,41.3360595703125
17.269999900000002,3.5482068061828613,-8.925583839416504,1.7932571172714233,-20.4010009765625,19.9432373046875,37.9791259765625
17.2899999,3.24414324760437,-9.062053680419922,1.7908629179000854,-20.6451416015625,14.9993896484375,29.998779296875
17.3099999,3.064578056335449,-9.160215377807617,1.8195933103561401,-21.8353271484375,11.474609375,21.514892578125
17.3299999,2.983175277709961,-9.279925346374512,1.8698714971542358,-21.209716796875,20.7061767578125,19.10400390625
17.3499999,3.0334534645080566,-9.437943458557129,1.920149803161621,-22.5067138671875,34.1949462890625,22.0489501953125
17.3699999,3.0861260890960693,-9.603142738342285,1.900996208190918,-26.4129638671875,39.3829345703125,22.979736328125
17.3899999,3.093308687210083,-9.775525093078613,1.8483237028121948,-28.564453125,33.87451171875,20.4315185546875
17.409999900000003,3.045424461364746,-9.9000244140625,1.745373010635376,-28.564453125,29.2816162109375,20.1416015625
17.429999900000002,2.999934673309326,-9.926360130310059,1.6400281190872192,-29.388427734375,32.7911376953125,21.9268798828125
17.4499999,2.940079689025879,-9.921571731567383,1.534683346748352,-30.7159423828125,40.6341552734375,20.6756591796875
17.4699999,2.851494312286377,-9.892841339111328,1.4484920501708984,-29.693603515625,45.2423095703125,20.1568603515625
17.4899999,2.7317841053009033,-9.84495735168457,1.3646949529647827,-27.862548828125,43.792724609375,23.773193359375
17.5099999,2.580949544906616,-9.823410034179688,1.3072341680526733,-28.8848876953125,41.656494140625,29.1290283203125
17.5299999,2.3942017555236816,-9.797073364257812,1.256955862045288,-31.1737060546875,46.4935302734375,30.8685302734375
17.5499999,2.2026655673980713,-9.758766174316406,1.1851298809051514,-28.6712646484375,49.9267578125,26.9927978515625
17.5699999,2.027888774871826,-9.742006301879883,1.1061211824417114,-23.8494873046875,42.8466796875,24.2919921875
17.589999900000002,1.8722656965255737,-9.742006301879883,1.0079588890075684,-21.240234375,38.5894775390625,24.444580078125
17.609999900000002,1.800439715385437,-9.773131370544434,0.9241618514060974,-18.585205078125,38.604736328125,23.5748291015625
17.6299999,1.721431016921997,-9.849745750427246,0.8762778043746948,-13.4735107421875,37.8265380859375,23.5137939453125
17.6499999,1.6328455209732056,-9.926360130310059,0.8547300100326538,-8.941650390625,36.2091064453125,27.34375
17.6699999,1.4437036514282227,-10.000580787658691,0.8523358106613159,-7.5531005859375,35.7666015625,30.731201171875
17.6899999,1.2066776752471924,-10.007762908935547,0.8882488012313843,-6.439208984375,34.5611572265625,27.862548828125
17.7099999,0.933738648891449,-9.959878921508789,0.9409212470054626,-4.2266845703125,30.7769775390625,24.0020751953125
17.7299999,0.6488286852836609,-9.86650562286377,0.9959878921508789,-1.312255859375,27.801513671875,25.6195068359375
17.749999900000002,0.40462008118629456,-9.763554573059082,1.048660397529602,1.4801025390625,24.627685546875,27.6641845703125
17.769999900000002,0.19632454216480255,-9.694122314453125,1.072602391242981,4.5166015625,21.636962890625,25.45166015625
17.7899999,0.05267243832349777,-9.653421401977539,1.1180921792984009,7.476806640625,16.2353515625,24.2767333984375
17.8099999,-0.043095629662275314,-9.653421401977539,1.161187767982483,8.97216796875,13.3514404296875,26.7791748046875
17.8299999,-0.09576806426048279,-9.696516990661621,1.2449848651885986,8.7738037109375,13.916015625,26.7791748046875
17.8499999,-0.16998831927776337,-9.775525093078613,1.314416766166687,8.1787109375,15.167236328125,21.575927734375
17.8699999,-0.23942017555236816,-9.849745750427246,1.3862427473068237,8.1787109375,12.451171875,15.289306640625
17.8899999,-0.28969839215278625,-9.931148529052734,1.4652514457702637,6.0272216796875,7.2174072265625,11.871337890625
17.909999900000003,-0.28969839215278625,-9.974244117736816,1.5394717454910278,0.54931640625,9.429931640625,9.613037109375
17.929999900000002,-0.2298433631658554,-9.99339771270752,1.6089035272598267,-4.57763671875,15.07568359375,5.2032470703125
17.9499999,-0.11252748221158981,-9.998186111450195,1.625662922859192,-6.5765380859375,15.0299072265625,1.983642578125
17.9699999,0.002394201699644327,-9.981427192687988,1.577778935432434,-5.92041015625,11.04736328125,2.5177001953125
17.9899999,0.10773907601833344,-9.962273597717285,1.4987702369689941,-5.5389404296875,8.270263671875,2.99072265625
18.0099999,0.2106897532939911,-9.93354320526123,1.403002142906189,-5.8441162109375,6.3934326171875,1.4495849609375
18.0299999,0.3016694188117981,-9.892841339111328,1.3551181554794312,-6.6070556640625,4.6234130859375,1.03759765625
18.0499999,0.3998316824436188,-9.8784761428833,1.316810965538025,-7.14111328125,5.55419921875,3.84521484375
18.0699999,0.4668693244457245,-9.895236015319824,1.2880805730819702,-6.866455078125,8.0718994140625,7.0343017578125
18.089999900000002,0.47405192255973816,-9.955090522766113,1.2425906658172607,-5.4779052734375,7.8887939453125,7.6141357421875
18.109999900000002,0.45010992884635925,-10.017339706420898,1.1994950771331787,-2.9449462890625,4.7607421875,5.4779052734375
18.1299999,0.3734954595565796,-10.077195167541504,1.161187767982483,-0.6561279296875,1.1749267578125,4.425048828125
18.1499999,0.3280056416988373,-10.101137161254883,1.1420341730117798,-0.1678466796875,1.9683837890625,4.82177734375
18.1699999,0.2992752194404602,-10.091560363769531,1.1635819673538208,-0.06103515625,5.7525634765625,3.3416748046875
18.1899999,0.3064578175544739,-10.04846477508545,1.1851298809051514,1.3885498046875,5.8441162109375,1.7547607421875
18.2099999,0.3280056416988373,-9.995792388916016,1.2234370708465576,2.99072265625,2.3040771484375,2.6092529296875
18.2299999,0.3663128614425659,-9.911994934082031,1.278503656387329,4.0283203125,0.640869140625,4.6539306640625
18.249999900000002,0.42616790533065796,-9.825803756713867,1.359906554222107,3.90625,2.5634765625,6.2255859375
18.269999900000002,0.4381389021873474,-9.732429504394531,1.4413094520568848,2.5177001953125,7.476806640625,6.77490234375
18.2899999,0.42856210470199585,-9.651026725769043,1.5059528350830078,1.9378662109375,9.307861328125,5.2642822265625
18.3099999,0.3663128614425659,-9.63187313079834,1.534683346748352,2.7618408203125,4.9285888671875,3.5247802734375
18.3299999,0.2944868206977844,-9.655815124511719,1.5538369417190552,2.99072265625,-1.3885498046875,5.859375
18.3499999,0.13168109953403473,-9.816226959228516,1.5538369417190552,0.2593994140625,8.4228515625,9.613037109375
18.3699999,0.031124621629714966,-9.904812812805176,1.5275006294250488,0.8392333984375,8.026123046875,6.4239501953125
18.3899999,-0.07900865375995636,-9.986215591430664,1.4724340438842773,2.3651123046875,0.6256103515625,3.997802734375
18.409999900000003,-0.1628057211637497,-10.0580415725708,1.4173674583435059,5.06591796875,-1.6937255859375,3.47900390625
18.429999900000002,-0.16998831927776337,-10.070012092590332,1.3958195447921753,7.4462890625,1.373291015625,3.326416015625
18.4499999,-0.12928688526153564,-10.038887977600098,1.4101848602294922,8.9111328125,2.9144287109375,2.5787353515625
18.4699999,-0.002394201699644327,-10.213664054870605,1.6136919260025024,7.50732421875,1.312255859375,2.8839111328125
18.4899999,0.011971008032560349,-10.113107681274414,1.6927006244659424,-2.4566650390625,4.608154296875,8.4075927734375
18.5099999,0.08140286058187485,-10.273519515991211,1.9177556037902832,-6.7291259765625,2.3345947265625,0.9918212890625
18.5299999,0.035913024097681046,-10.125079154968262,1.9297266006469727,-5.7830810546875,2.5177001953125,-6.256103515625
18.5499999,0.0071826050989329815,-10.005369186401367,1.8962076902389526,-7.232666015625,1.373291015625,-5.5389404296875
18.5699999,0.0454898327589035,-9.840168952941895,1.8052281141281128,-8.48388671875,-1.739501953125,-2.4261474609375
18.589999900000002,0.1364694982767105,-9.701305389404297,1.723825216293335,-11.3525390625,-2.349853515625,2.2430419921875
18.609999900000002,0.26096799969673157,-9.612719535827637,1.6831238269805908,-14.83154296875,-0.6866455078125,8.8043212890625
18.6299999,0.3423708379268646,-9.576807022094727,1.6543933153152466,-17.333984375,0.3509521484375,14.2822265625
18.6499999,0.33518823981285095,-9.583989143371582,1.6543933153152466,-19.134521484375,-0.8697509765625,15.8233642578125
18.6699999,0.18914192914962769,-9.84495735168457,1.4077905416488647,-20.3094482421875,-0.1678466796875,14.2059326171875
18.6899999,-0.009576806798577309,-10.02691650390625,1.0654197931289673,-6.4239501953125,-10.467529296875,13.031005859375
18.7099999,-0.11971008777618408,-10.163386344909668,0.8427590131759644,8.9874267578125,-21.1029052734375,12.39013671875
18.7299999,-0.4141969084739685,-10.33098030090332,0.4165911078453064,-1.922607421875,-1.2664794921875,11.8865966796875
18.749999900000002,-0.4141969084739685,-10.120290756225586,0.646434485912323,3.5552978515625,9.674072265625,0.518798828125
18.769999900000002,-0.6392518281936646,-10.098742485046387,0.6344634294509888,-1.708984375,22.4761962890625,-6.591796875
18.7899999,-0.6200982332229614,-9.976638793945312,0.9672574996948242,0.1068115234375,5.37109375,-0.4730224609375
18.8099999,-0.629675030708313,-9.883264541625977,1.115697979927063,0.0762939453125,-1.77001953125,2.0294189453125
18.8299999,-0.4884171485900879,-9.876082420349121,1.2042834758758545,-0.4425048828125,0.4425048828125,-1.1749267578125
18.8499999,-0.33279404044151306,-9.871294021606445,1.2545616626739502,0.8544921875,1.2054443359375,-0.030517578125
18.8699999,-0.2059013396501541,-9.847352027893066,1.2258312702178955,0.335693359375,0.762939453125,2.166748046875
18.8899999,-0.1364694982767105,-9.871294021606445,1.1994950771331787,-0.0762939453125,0.5950927734375,1.953125
18.909999900000003,-0.14604631066322327,-9.8784761428833,1.1779472827911377,-0.8697509765625,0.2593994140625,0.7781982421875
18.929999900000002,-0.18914192914962769,-9.888052940368652,1.1635819673538208,-0.79345703125,0.457763671875,-0.06103515625
18.9499999,-0.2513911724090576,-9.86889934539795,1.2497732639312744,-0.7171630859375,1.3275146484375,0.67138671875
18.9699999,-0.33997663855552673,-9.895236015319824,1.1994950771331787,-7.87353515625,2.3956298828125,-1.1138916015625
18.9899999,-0.33039984107017517,-9.890447616577148,1.1061211824417114,-3.5400390625,-0.3204345703125,-3.1890869140625
19.0099999,-0.3208230137825012,-9.8784761428833,1.1348515748977661,7.5531005859375,3.0975341796875,-2.74658203125
19.0299999,-0.26096799969673157,-9.921571731567383,1.0007762908935547,0.640869140625,0.8392333984375,1.3275146484375
19.0499999,-0.17477671802043915,-9.93354320526123,1.0127472877502441,-2.197265625,1.190185546875,1.3580322265625
19.0699999,-0.16998831927776337,-9.9000244140625,1.1540051698684692,3.2958984375,2.532958984375,-0.8697509765625
19.089999900000002,-0.24660277366638184,-9.911994934082031,1.0965443849563599,-1.2664794921875,-0.1373291015625,-0.30517578125
19.109999900000002,-0.2753331959247589,-9.897629737854004,1.1348515748977661,-0.8544921875,-0.091552734375,-2.5482177734375
19.1299999,-0.2346317619085312,-9.885659217834473,1.1444283723831177,1.861572265625,0.701904296875,-2.3651123046875
19.1499999,-0.13407529890537262,-9.926360130310059,1.0749965906143188,-0.2288818359375,0.4730224609375,2.8533935546875
19.1699999,-0.047884032130241394,-9.923966407775879,1.0989385843276978,1.8463134765625,1.4190673828125,6.072998046875
19.1899999,-0.0933738648891449,-9.904812812805176,1.1468225717544556,1.922607421875,1.3885498046875,3.8604736328125
19.2099999,-0.26815059781074524,-9.8784761428833,1.1540051698684692,-1.861572265625,0,-0.9613037109375
19.2299999,-0.4644751250743866,-9.830592155456543,1.216254472732544,-1.15966796875,-0.1220703125,-5.0811767578125
19.249999900000002,-0.49799394607543945,-9.823410034179688,1.2090718746185303,-0.3204345703125,0.091552734375,-5.0506591796875
19.269999900000002,-0.37828385829925537,-9.864110946655273,1.1276689767837524,-0.67138671875,0.213623046875,-0.9613037109375
19.2899999,-0.181959331035614,-9.895236015319824,1.1252747774124146,2.01416015625,1.495361328125,2.9754638671875
19.3099999,-0.0454898327589035,-9.919178009033203,1.113303780555725,1.52587890625,1.4495849609375,3.265380859375
19.3299999,-0.08140286058187485,-9.919178009033203,1.1085153818130493,-1.28173828125,0.4425048828125,1.800537109375
19.3499999,-0.21787235140800476,-9.880870819091797,1.1683704853057861,-0.30517578125,0.4730224609375,-1.3275146484375
19.3699999,-0.3734954595565796,-9.861717224121094,1.1635819673538208,-0.8087158203125,0.1983642578125,-3.60107421875
19.3899999,-0.4118026793003082,-9.86889934539795,1.137245774269104,-1.6326904296875,-0.06103515625,-3.5552978515625
19.409999900000003,-0.3280056416988373,-9.8784761428833,1.1444283723831177,0.67138671875,0.6866455078125,-1.2054443359375
19.429999900000002,-0.19632454216480255,-9.909601211547852,1.1204863786697388,0.762939453125,1.068115234375,2.166748046875
19.4499999,-0.09576806426048279,-9.916783332824707,1.1324573755264282,0.5340576171875,1.1138916015625,2.6092529296875
19.4699999,-0.11013327538967133,-9.907206535339355,1.158793568611145,0.6866455078125,1.007080078125,1.220703125
19.4899999,-0.22026655077934265,-9.892841339111328,1.1444283723831177,-0.7476806640625,0.3662109375,-0.54931640625
19.5099999,-0.33997663855552673,-9.871294021606445,1.1516109704971313,-0.6256103515625,0.274658203125,-2.6397705078125
19.5299999,-0.38307225704193115,-9.861717224121094,1.1563993692398071,-0.2899169921875,0.4119873046875,-3.3721923828125
19.5499999,-0.3232172429561615,-9.873687744140625,1.1420341730117798,-0.946044921875,0.30517578125,-1.434326171875
19.5699999,-0.21308395266532898,-9.885659217834473,1.1563993692398071,0.2899169921875,0.9613037109375,1.2664794921875
19.589999900000002,-0.11971008777618408,-9.9000244140625,1.1563993692398071,0.9613037109375,1.190185546875,2.0904541015625
19.609999900000002,-0.11971008777618408,-9.909601211547852,1.1276689767837524,0.1068115234375,0.7476806640625,1.5869140625
19.6299999,-0.2059013396501541,-9.9000244140625,1.1300631761550903,0.1068115234375,0.5950927734375,0.06103515625
19.6499999,-0.31603461503982544,-9.883264541625977,1.137245774269104,-0.1678466796875,0.5035400390625,-1.953125
19.6699999,-0.3711012601852417,-9.873687744140625,1.1468225717544556,-1.007080078125,0.152587890625,-2.838134765625
19.6899999,-0.33279404044151306,-9.86650562286377,1.1683704853057861,-0.7781982421875,0.3204345703125,-2.01416015625
19.7099999,-0.24181437492370605,-9.888052940368652,1.1683704853057861,-0.0457763671875,0.762939453125,0.6103515625
19.7299999,-0.15562310814857483,-9.90241813659668,1.1420341730117798,0.3814697265625,0.9613037109375,1.8310546875
19.749999900000002,-0.13168109953403473,-9.919178009033203,1.1276689767837524,0.885009765625,0.9307861328125,1.190185546875
19.769999900000002,-0.19153612852096558,-9.904812812805176,1.1252747774124146,0.3814697265625,0.7171630859375,0.1220703125
19.7899999,-0.2825157940387726,-9.895236015319824,1.1348515748977661,-0.9002685546875,0.2899169921875,-1.220703125
19.8099999,-0.33518823981285095,-9.864110946655273,1.170764684677124,-0.640869140625,0.3509521484375,-2.6702880859375
19.8299999,-0.31603461503982544,-9.871294021606445,1.173158884048462,-0.732421875,0.3509521484375,-1.8768310546875
19.8499999,-0.2537853717803955,-9.885659217834473,1.1492167711257935,-0.244140625,0.6103515625,0.579833984375
19.8699999,-0.181959331035614,-9.90241813659668,1.1324573755264282,1.007080078125,1.0528564453125,1.4801025390625
19.8899999,-0.16519992053508759,-9.907206535339355,1.113303780555725,0.7781982421875,0.8544921875,1.0223388671875
19.909999900000003,-0.2106897532939911,-9.9000244140625,1.1252747774124146,-0.091552734375,0.6256103515625,0.213623046875
19.929999900000002,-0.2825157940387726,-9.8784761428833,1.1540051698684692,-0.6256103515625,0.457763671875,-1.2359619140625
19.9499999,-0.3232172429561615,-9.86889934539795,1.1683704853057861,-0.9002685546875,0.213623046875,-2.5634765625
19.9699999,-0.2992752194404602,-9.873687744140625,1.161187767982483,-0.5035400390625,0.2899169921875,-1.7547607421875
19.9899999,-0.24181437492370605,-9.892841339111328,1.1324573755264282,0.18310546875,0.701904296875,0.762939453125
20.0099999,-0.17956513166427612,-9.907206535339355,1.115697979927063,0.701904296875,0.9613037109375,1.6021728515625
20.0299999,-0.16998831927776337,-9.904812812805176,1.1228805780410767,0.67138671875,0.9765625,0.885009765625
20.0499999,-0.22266076505184174,-9.897629737854004,1.139639973640442,-0.3814697265625,0.5645751953125,-0.091552734375
20.0699999,-0.29209262132644653,-9.8784761428833,1.161187767982483,-0.79345703125,0.3509521484375,-1.52587890625
20.089999900000002,-0.31364041566848755,-9.876082420349121,1.1659762859344482,-0.6561279296875,0.274658203125,-2.62451171875
20.109999900000002,-0.2825157940387726,-9.880870819091797,1.1516109704971313,-0.1373291015625,0.4425048828125,-1.0986328125
20.1299999,-0.22505496442317963,-9.897629737854004,1.1300631761550903,0.3509521484375,0.79345703125,1.495361328125
20.1499999,-0.1843535304069519,-9.9000244140625,1.1252747774124146,0.6561279296875,0.9765625,1.5106201171875
20.1699999,-0.19871874153614044,-9.897629737854004,1.139639973640442,0.244140625,0.79345703125,0.0457763671875
20.1899999,-0.2585737705230713,-9.885659217834473,1.1492167711257935,-0.640869140625,0.30517578125,-1.0833740234375
20.2099999,-0.3016694188117981,-9.883264541625977,1.1563993692398071,-0.8392333984375,0.1373291015625,-1.9683837890625
20.2299999,-0.2944868206977844,-9.880870819091797,1.1540051698684692,-0.1678466796875,0.4730224609375,-1.708984375
20.249999900000002,-0.2537853717803955,-9.890447616577148,1.137245774269104,0.2899169921875,0.79345703125,0.4119873046875
20.269999900000002,-0.21308395266532898,-9.895236015319824,1.1300631761550903,0.396728515625,0.885009765625,1.556396484375
20.2899999,-0.20350714027881622,-9.895236015319824,1.139639973640442,0.1983642578125,0.79345703125,0.396728515625
20.3099999,-0.2322375625371933,-9.890447616577148,1.1516109704971313,-0.3509521484375,0.518798828125,-1.0528564453125
20.3299999,-0.26815059781074524,-9.888052940368652,1.1563993692398071,-0.54931640625,0.274658203125,-1.3275146484375
20.3499999,-0.2777273952960968,-9.890447616577148,1.1540051698684692,-0.396728515625,0.42724609375,-1.03759765625
20.3699999,-0.2585737705230713,-9.895236015319824,1.1444283723831177,0.0762939453125,0.7171630859375,-0.2593994140625
