# Time (seconds),Accel_X,Accel_Y,Accel_Z,Gyro_X,Gyro_Y,Gyro_Z
0.0099999,-9.251194953918457,-2.715024709701538,-0.2537853717803955,7.476806640625,8.3160400390625,12.5732421875
0.029999900000000003,-9.440337181091309,-2.7030537128448486,-0.4118026793003082,17.0440673828125,0.67138671875,21.0418701171875
0.0499999,-9.852140426635742,-2.4205379486083984,-0.21547815203666687,19.2718505859375,-1.3275146484375,24.383544921875
0.0699999,-10.077195167541504,-2.142810583114624,0.08140286058187485,17.059326171875,-3.6468505859375,24.3988037109375
0.08999990000000001,-10.27591323852539,-1.8339585065841675,0.40940847992897034,12.0086669921875,-3.0975341796875,24.84130859375
0.10999990000000001,-10.72602367401123,-1.599326729774475,0.7038952708244324,7.32421875,-1.708984375,23.4527587890625
0.1299999,-10.87446403503418,-1.3982137441635132,0.9361328482627869,3.2958984375,-7.0343017578125,10.7269287109375
0.14999990000000002,-11.106701850891113,-1.3120225667953491,1.0462661981582642,-0.762939453125,-2.3651123046875,14.7857666015625
0.1699999,-10.910377502441406,-1.2306196689605713,1.0534487962722778,-1.4801025390625,-0.5340576171875,16.9677734375
0.1899999,-10.596736907958984,-1.2306196689605713,0.9768342971801758,-1.434326171875,0,20.81298828125
0.20999990000000002,-10.158597946166992,-1.2282254695892334,0.8595184087753296,-2.8533935546875,-1.4495849609375,18.035888671875
0.2299999,-9.888052940368652,-1.256955862045288,0.768538773059845,-6.40869140625,-0.885009765625,14.495849609375
0.2499999,-9.713275909423828,-1.3215993642807007,0.6967126727104187,-7.354736328125,0.3662109375,14.892578125
0.2699999,-9.660603523254395,-1.3120225667953491,0.6416460275650024,-7.2784423828125,1.4801025390625,16.2506103515625
0.28999990000000003,-9.607931137084961,-1.2737152576446533,0.5770025849342346,-7.5225830078125,0.885009765625,16.6473388671875
0.3099999,-9.744400978088379,-1.1875240802764893,0.49799394607543945,-6.744384765625,0.030517578125,15.5029296875
0.3299999,-9.780313491821289,-1.1803414821624756,0.42616790533065796,-4.08935546875,-1.983642578125,12.786865234375
0.34999990000000003,-9.945513725280762,-1.1659762859344482,0.3758896589279175,-5.06591796875,-0.6256103515625,19.0887451171875
0.3699999,-10.019734382629395,-1.1803414821624756,0.35673606395721436,-7.5531005859375,-1.678466796875,22.1405029296875
0.3899999,-10.041281700134277,-1.1444283723831177,0.3687070608139038,-6.1187744140625,-4.8675537109375,18.5089111328125
0.40999990000000003,-9.950302124023438,-1.0103530883789062,0.4213795065879822,-3.60107421875,-4.608154296875,12.4664306640625
0.4299999,-9.93354320526123,-0.7661445140838623,0.5051765441894531,-4.33349609375,-0.5950927734375,10.3302001953125
0.4499999,-9.904812812805176,-0.5027823448181152,0.5650315880775452,-3.875732421875,-1.3580322265625,12.3291015625
0.4699999,-9.952696800231934,-0.24420857429504395,0.6392518281936646,-0.213623046875,-1.800537109375,9.2620849609375
0.4899999,-10.000580787658691,-0.08379705995321274,0.6847416758537292,0.9765625,-1.77001953125,6.3934326171875
0.5099999,-10.007762908935547,0.004788403399288654,0.6871358752250671,-3.3416748046875,-0.2899169921875,5.0201416015625
0.5299999,-10.002974510192871,-0.038307227194309235,0.6943184733390808,-3.6163330078125,0.335693359375,2.0294189453125
0.5499999,-9.971850395202637,-0.1843535304069519,0.7015010714530945,0.732421875,-0.06103515625,0.2288818359375
0.5699999,-9.943120002746582,-0.3663128614425659,0.6847416758537292,0.9613037109375,0.335693359375,1.9378662109375
0.5899998999999999,-9.947908401489258,-0.569819986820221,0.6703764796257019,-0.457763671875,0.9002685546875,3.1280517578125
0.6099998999999999,-9.947908401489258,-0.7493851184844971,0.6584054827690125,2.197265625,0.6561279296875,3.7841796875
0.6299999,-9.955090522766113,-0.8451532125473022,0.6320692300796509,2.0904541015625,0.3814697265625,6.011962890625
0.6499999,-9.959878921508789,-0.8906430602073669,0.6009446382522583,-5.4779052734375,0.18310546875,9.063720703125
0.6699999,-9.96945571899414,-0.8475474119186401,0.5219359993934631,-14.1448974609375,-0.9918212890625,10.772705078125
0.6899999,-9.952696800231934,-0.7781155705451965,0.47165772318840027,-14.7247314453125,-3.3721923828125,10.223388671875
0.7099999,-9.950302124023438,-0.6584054827690125,0.38067805767059326,-9.429931640625,-5.1727294921875,9.5672607421875
0.7299998999999999,-9.99100399017334,-0.6320692300796509,0.272938996553421,-5.2490234375,-6.134033203125,10.7574462890625
0.7499998999999999,-10.014945983886719,-0.5195417404174805,0.1843535304069519,1.5106201171875,-7.6141357421875,9.6893310546875
0.7699999,-10.103530883789062,-0.4596867263317108,0.17717093229293823,10.528564453125,-11.6119384765625,7.3089599609375
0.7899999,-10.086771965026855,-0.24420857429504395,0.2561795711517334,9.857177734375,-14.251708984375,6.8359375
0.8099999,-10.11550235748291,-0.07661445438861847,0.3423708379268646,6.317138671875,-10.6201171875,6.6986083984375
0.8299999,-10.070012092590332,0.08379705995321274,0.5123591423034668,15.5487060546875,-14.3280029296875,3.5858154296875
0.8499998999999999,-9.974244117736816,0.2322375625371933,0.8188169598579407,21.9879150390625,-18.035888671875,-0.6561279296875
0.8699998999999999,-9.916783332824707,0.2968810200691223,1.1516109704971313,10.0555419921875,-11.5203857421875,-5.2947998046875
0.8899999,-9.806650161743164,0.27054479718208313,1.53707754611969,-6.134033203125,-0.7476806640625,-7.965087890625
0.9099999,-9.708487510681152,0.16519992053508759,1.8746598958969116,-8.941650390625,3.387451171875,-7.7056884765625
0.9299999,-9.641449928283691,-0.028730420395731926,1.9752163887023926,-10.6964111328125,7.0648193359375,-5.9967041015625
0.9499999,-9.701305389404297,-0.272938996553421,1.8267759084701538,-14.2669677734375,11.1846923828125,-2.197265625
0.9699998999999999,-9.816226959228516,-0.4357447028160095,1.5322890281677246,-10.7421875,12.63427734375,3.3416748046875
0.9899998999999999,-9.93354320526123,-0.6057330369949341,1.0558429956436157,-0.4425048828125,5.859375,5.1727294921875
1.0099999,-10.086771965026855,-0.6536170840263367,0.5267243981361389,10.6964111328125,-1.9378662109375,-1.312255859375
1.0299999,-10.137049674987793,-0.7015010714530945,0.10055647045373917,16.7694091796875,-7.476806640625,-4.425048828125
1.0499999,-10.105925559997559,-0.6584054827690125,-0.043095629662275314,17.4407958984375,-9.521484375,-3.2501220703125
1.0699999,-10.11550235748291,-0.5123591423034668,0.06703764945268631,9.8114013671875,-9.8876953125,-0.4730224609375
1.0899999,-10.005369186401367,-0.3423708379268646,0.4165911078453064,-1.373291015625,-4.69970703125,-0.6256103515625
1.1099999,-9.99339771270752,-0.19871874153614044,0.7613561153411865,-10.6048583984375,1.64794921875,1.7547607421875
1.1299999,-9.947908401489258,-0.08379705995321274,1.0630255937576294,-7.110595703125,-2.86865234375,3.265380859375
1.1499999,-9.90241813659668,-0.06224924325942993,1.1971008777618408,1.46484375,-9.979248046875,-3.265380859375
1.1699998999999999,-9.938331604003906,-0.17956513166427612,1.1683704853057861,7.9803466796875,-7.62939453125,-5.9051513671875
1.1899998999999999,-9.8784761428833,-0.2537853717803955,1.1492167711257935,11.749267578125,-4.08935546875,-6.8206787109375
1.2099999,-9.880870819091797,-0.3280056416988373,1.2401964664459229,9.82666015625,-3.9825439453125,-8.4991455078125
1.2299999,-9.75637149810791,-0.2561795711517334,1.479616641998291,-3.2196044921875,-0.244140625,-6.683349609375
1.2499999,-9.768342971801758,-0.2082955539226532,1.7310078144073486,-21.78955078125,12.26806640625,-1.28173828125
1.2699999,-9.715670585632324,-0.22266076505184174,1.7980455160140991,-22.7203369140625,16.021728515625,0.2288818359375
1.2899999,-9.765948295593262,-0.30885201692581177,1.5705963373184204,-8.7127685546875,6.8359375,-1.0986328125
1.3099999,-9.921571731567383,-0.5530605912208557,1.048660397529602,7.8887939453125,0.1678466796875,-5.1116943359375
1.3299999,-9.974244117736816,-0.7852981686592102,0.5291185975074768,19.8516845703125,-2.838134765625,-4.6234130859375
1.3499999,-10.091560363769531,-0.9217676520347595,0.2059013396501541,23.25439453125,-3.9215087890625,-4.4403076171875
1.3699999,-10.019734382629395,-0.8667010068893433,0.22505496442317963,17.27294921875,-6.6375732421875,-2.899169921875
1.3899999,-10.034099578857422,-0.706289529800415,0.4405331015586853,1.9378662109375,-3.7078857421875,1.15966796875
1.4099999,-9.95748519897461,-0.4668693244457245,0.7445967197418213,-5.7220458984375,-0.3814697265625,1.2969970703125
1.4299998999999999,-9.931148529052734,-0.2944868206977844,1.0678139925003052,-5.645751953125,-2.38037109375,2.349853515625
1.4499999,-9.914389610290527,-0.21787235140800476,1.2473790645599365,-1.8310546875,-5.1727294921875,1.77001953125
1.4699999,-9.923966407775879,-0.3280056416988373,1.3479355573654175,-1.2054443359375,-3.9520263671875,-2.62451171875
1.4899999,-9.86650562286377,-0.45010992884635925,1.3623007535934448,2.532958984375,-1.2359619140625,-2.960205078125
1.5099999,-9.931148529052734,-0.5291185975074768,1.41257905960083,3.8604736328125,0.3509521484375,-2.8228759765625
1.5299999,-9.828198432922363,-0.5817909836769104,1.414973258972168,-0.8087158203125,2.7008056640625,-0.9002685546875
1.5499999,-9.861717224121094,-0.4381389021873474,1.4532804489135742,-8.087158203125,7.720947265625,1.4801025390625
1.5699999,-9.861717224121094,-0.28969839215278625,1.4077905416488647,-12.4359130859375,10.1165771484375,1.800537109375
1.5899999,-9.876082420349121,-0.1149216815829277,1.338358759880066,-8.30078125,4.21142578125,-0.2899169921875
1.6099999,-9.947908401489258,-0.07900865375995636,1.1420341730117798,-5.6304931640625,0.9002685546875,-5.37109375
1.6299999,-10.000580787658691,-0.23702596127986908,0.9744400978088379,-1.312255859375,2.0904541015625,-9.8724365234375
1.6499999,-9.955090522766113,-0.45250412821769714,0.8619126081466675,5.9814453125,2.5634765625,-7.99560546875
1.6699999,-9.919178009033203,-0.6727706789970398,0.849941611289978,7.049560546875,3.0670166015625,-6.16455078125
1.6899998999999999,-9.832986831665039,-0.811634361743927,0.9457096457481384,-2.50244140625,6.927490234375,-3.570556640625
1.7099999,-9.81143856048584,-0.7805097699165344,1.1085153818130493,-12.176513671875,12.5579833984375,1.312255859375
1.7299999,-9.847352027893066,-0.7158663272857666,1.2473790645599365,-20.1873779296875,11.53564453125,6.0577392578125
1.7499999,-9.904812812805176,-0.5650315880775452,1.2258312702178955,-24.2156982421875,6.103515625,4.7607421875
1.7699999,-10.089165687561035,-0.5722141861915588,0.9217676520347595,-21.0113525390625,4.6539306640625,-1.5869140625
1.7899999,-10.08198356628418,-0.6368576288223267,0.5410895943641663,-2.3040771484375,-2.105712890625,-4.1961669921875
1.8099999,-10.165780067443848,-0.7613561153411865,0.17477671802043915,14.2974853515625,-6.6070556640625,-1.89208984375
1.8299999,-10.074800491333008,-0.8738836050033569,0.0071826050989329815,15.869140625,-7.9345703125,-1.251220703125
1.8499999,-9.995792388916016,-0.9169792532920837,0.1628057211637497,7.293701171875,-5.7220458984375,2.13623046875
1.8699999,-9.871294021606445,-0.828393816947937,0.48602294921875,0.3814697265625,-4.5166015625,5.340576171875
1.8899999,-9.830592155456543,-0.5841852426528931,0.8906430602073669,-5.859375,-2.9754638671875,8.23974609375
1.9099999,-9.749189376831055,-0.363918662071228,1.2713210582733154,-10.9710693359375,-3.0364990234375,7.232666015625
1.9299998999999999,-9.785101890563965,-0.08619125932455063,1.5682021379470825,-21.3470458984375,0.396728515625,2.1209716796875
1.9499999,-9.770736694335938,0.09576806426048279,1.8171991109848022,-27.252197265625,4.1961669921875,-2.8839111328125
1.9699999,-9.751583099365234,0.0071826050989329815,1.7573440074920654,-30.6243896484375,6.7291259765625,-6.439208984375
1.9899999,-9.835380554199219,-0.21547815203666687,1.6304513216018677,-21.2554931640625,11.8865966796875,-5.950927734375
2.0099999,-9.876082420349121,-0.7086837291717529,1.1180921792984009,-7.0953369140625,10.1470947265625,1.007080078125
2.0299999,-10.002974510192871,-1.115697979927063,0.5985504388809204,10.5438232421875,5.1116943359375,3.2196044921875
2.0499999,-10.11789608001709,-1.4963760375976562,-0.047884032130241394,30.4718017578125,-3.2501220703125,6.5155029296875
2.0699999,-10.27591323852539,-1.599326729774475,-0.629675030708313,49.9420166015625,-15.7318115234375,8.23974609375
2.0899999,-10.259154319763184,-1.3407529592514038,-0.7781155705451965,64.2547607421875,-26.824951171875,8.5296630859375
2.1099999,-10.211270332336426,-0.7757213711738586,-0.37828385829925537,48.64501953125,-28.350830078125,6.2713623046875
2.1299999,-10.012551307678223,-0.05985504388809204,0.6177040338516235,7.7362060546875,-18.4173583984375,-0.5340576171875
2.1499999,-9.749189376831055,0.5434837937355042,1.7501614093780518,-28.01513671875,-3.8299560546875,-7.9193115234375
2.1699999,-9.588777542114258,0.8690952062606812,2.786850690841675,-39.24560546875,7.4615478515625,-7.293701171875
2.1899999,-9.47146224975586,0.6751648783683777,3.095702886581421,-39.5965576171875,15.350341796875,-4.0435791015625
2.2099999,-9.557653427124023,0.26336219906806946,2.9472622871398926,-32.6690673828125,19.683837890625,-1.5106201171875
2.2299999,-9.708487510681152,-0.40701428055763245,2.212242364883423,-20.1873779296875,19.0887451171875,4.180908203125
2.2499999,-9.876082420349121,-1.01753568649292,1.2401964664459229,4.5623779296875,7.965087890625,6.7291259765625
2.2699999,-10.06043529510498,-1.4460978507995605,0.27054479718208313,31.005859375,-3.7078857421875,4.45556640625
2.2899999,-10.134655952453613,-1.4963760375976562,-0.33518823981285095,40.2069091796875,-10.6658935546875,5.279541015625
2.3099999,-10.144232749938965,-1.256955862045288,-0.49320554733276367,27.89306640625,-13.7939453125,2.471923828125
2.3299999,-10.139444351196289,-0.7182605266571045,-0.06464344263076782,12.5274658203125,-9.674072265625,-1.15966796875
2.3499999,-9.962273597717285,-0.047884032130241394,0.7637503147125244,-5.5389404296875,-3.204345703125,-0.3814697265625
2.3699999,-9.854534149169922,0.4884171485900879,1.601720929145813,-34.332275390625,6.9580078125,-2.7618408203125
2.3899999,-9.75397777557373,0.7661445140838623,2.1787235736846924,-47.210693359375,16.937255859375,-5.6610107421875
2.4099999,-9.6989107131958,0.6248866319656372,2.360682964324951,-31.9061279296875,15.838623046875,-4.1656494140625
2.4299999,-9.758766174316406,0.1843535304069519,1.965639591217041,-10.009765625,10.19287109375,-6.561279296875
2.4499999,-9.911994934082031,-0.5363011956214905,1.3215993642807007,9.429931640625,8.2244873046875,-7.75146484375
2.4699999,-9.923966407775879,-1.036689281463623,0.6751648783683777,23.4832763671875,1.28173828125,-4.638671875
2.4899999,-10.050858497619629,-1.3838485479354858,0.22026655077934265,25.08544921875,-0.4730224609375,-3.4637451171875
2.5099999,-10.017339706420898,-1.292868971824646,0.09816227108240128,17.242431640625,-1.1749267578125,-1.1138916015625
2.5299999,-9.995792388916016,-0.9864110946655273,0.2968810200691223,0.48828125,0.48828125,0.9002685546875
2.5499999,-9.983820915222168,-0.5482721924781799,0.6536170840263367,-16.3726806640625,5.67626953125,-0.1220703125
2.5699999,-9.950302124023438,-0.22266076505184174,0.9002198576927185,-18.035888671875,5.2032470703125,0.4730224609375
2.5899999,-9.96945571899414,-0.1867477297782898,0.8858546018600464,-2.2125244140625,-2.8533935546875,-2.01416015625
2.6099999,-10.022128105163574,-0.33039984107017517,0.6153098344802856,17.39501953125,-7.080078125,-6.28662109375
2.6299999,-10.014945983886719,-0.6105214357376099,0.38546648621559143,29.72412109375,-14.251708984375,-4.1351318359375
2.6499999,-9.998186111450195,-0.7589619159698486,0.3495534360408783,22.735595703125,-15.380859375,-4.302978515625
2.6699999,-9.93354320526123,-0.7996633648872375,0.6584054827690125,6.2255859375,-8.11767578125,-3.8909912109375
2.6899999,-9.797073364257812,-0.7158663272857666,1.259350061416626,-12.4664306640625,-1.0833740234375,1.7547607421875
2.7099999,-9.703699111938477,-0.5410895943641663,1.8148049116134644,-30.853271484375,6.5460205078125,3.7994384765625
2.7299999,-9.706093788146973,-0.4572925269603729,2.0829553604125977,-36.346435546875,12.176513671875,5.096435546875
2.7499999,-9.770736694335938,-0.49320554733276367,1.9081788063049316,-19.0582275390625,8.97216796875,5.67626953125
2.7699999,-9.90241813659668,-0.6631938815116882,1.3431471586227417,6.5460205078125,0.0762939453125,3.0670166015625
2.7899999,-10.089165687561035,-0.7829039692878723,0.6919242739677429,22.6593017578125,-4.94384765625,1.52587890625
2.8099999,-10.062829971313477,-0.7805097699165344,0.3232172429561615,24.4293212890625,-10.3912353515625,0.8697509765625
2.8299999,-10.062829971313477,-0.6177040338516235,0.33039984107017517,9.063720703125,-7.14111328125,-4.5318603515625
2.8499999,-9.885659217834473,-0.3232172429561615,0.7852981686592102,-5.7830810546875,-1.3275146484375,-4.1351318359375
2.8699999,-9.734824180603027,0.014365210197865963,1.4867992401123047,-28.62548828125,6.988525390625,-0.030517578125
2.8899999,-9.648633003234863,0.23702596127986908,2.0638017654418945,-56.732177734375,18.0206298828125,-1.4801025390625
2.9099999,-9.63187313079834,0.26575639843940735,2.248155355453491,-61.1724853515625,25.4058837890625,-3.7384033203125
2.9299999,-9.667786598205566,0.035913024097681046,2.006340980529785,-38.8031005859375,17.08984375,-4.2266845703125
2.9499999,-9.782708168029785,-0.40940847992897034,1.3910311460494995,-14.3585205078125,10.8184814453125,-3.1585693359375
2.9699999,-9.943120002746582,-0.9241618514060974,0.6033388376235962,-3.814697265625,12.3443603515625,0.0152587890625
2.9899999,-10.08437728881836,-1.2880805730819702,0.1149216815829277,2.9144287109375,4.058837890625,2.044677734375
3.0099999,-10.163386344909668,-1.525106430053711,-0.2992752194404602,1.6021728515625,-1.4801025390625,-0.6866455078125
3.0299999,-10.254365921020508,-1.6304513216018677,-0.667982280254364,13.3209228515625,-5.2032470703125,-2.1820068359375
3.0499999,-10.20648193359375,-1.6735470294952393,-0.8188169598579407,44.61669921875,-14.617919921875,3.0670166015625
3.0699999,-10.199298858642578,-1.4915876388549805,-0.7661445140838623,60.11962890625,-22.4151611328125,5.0201416015625
3.0899999,-10.101137161254883,-1.1252747774124146,-0.304063618183136,44.342041015625,-19.7296142578125,7.0953369140625
3.1099999,-9.99100399017334,-0.5434837937355042,0.4405331015586853,13.427734375,-13.3209228515625,8.697509765625
3.1299999,-9.907206535339355,-0.07661445438861847,1.2114660739898682,-2.2430419921875,-9.2926025390625,4.5928955078125
3.1499999,-9.797073364257812,0.24899697303771973,1.7405846118927002,-1.800537109375,-10.4522705078125,1.312255859375
3.1699999,-9.81143856048584,0.26096799969673157,1.900996208190918,3.1585693359375,-7.5836181640625,-0.8544921875
3.1899999,-9.785101890563965,0.10534487664699554,1.9608511924743652,4.8828125,-5.43212890625,0.518798828125
3.2099999,-9.78989028930664,-0.06464344263076782,1.9105730056762695,-2.960205078125,-2.25830078125,-0.244140625
3.2299999,-9.792284965515137,-0.2346317619085312,1.8148049116134644,-9.033203125,4.1351318359375,-4.2572021484375
3.2499999,-9.768342971801758,-0.2968810200691223,1.8052281141281128,-8.6517333984375,6.6986083984375,-1.0223388671875
3.2699999,-9.78989028930664,-0.3471592366695404,1.7262194156646729,-14.3890380859375,11.077880859375,-1.46484375
3.2899999,-9.80904483795166,-0.2992752194404602,1.6759412288665771,-23.4222412109375,16.9219970703125,0.9765625
3.3099999,-9.864110946655273,-0.38546648621559143,1.4197616577148438,-25.909423828125,16.3421630859375,3.0517578125
3.3299999000000002,-9.964667320251465,-0.5674257874488831,0.9720458984375,-6.011962890625,5.8746337890625,-0.6256103515625
3.3499999,-10.072406768798828,-0.7637503147125244,0.31364041566848755,20.4010009765625,-2.349853515625,-1.2054443359375
3.3699999,-10.158597946166992,-0.9768342971801758,-0.19871874153614044,36.6058349609375,-10.68115234375,-0.640869140625
3.3899999,-10.163386344909668,-0.9457096457481384,-0.3711012601852417,35.797119140625,-16.9830322265625,-3.5247802734375
3.4099999,-10.096348762512207,-0.7948749661445618,-0.05746084079146385,23.223876953125,-14.16015625,-5.462646484375
3.4299999,-9.964667320251465,-0.5171475410461426,0.6512228846549988,5.92041015625,-8.270263671875,-3.4942626953125
3.4499999,-9.80904483795166,-0.29209262132644653,1.3958195447921753,-14.5721435546875,0.6103515625,-2.01416015625
3.4699999,-9.78989028930664,-0.1604115068912506,1.968033790588379,-22.216796875,7.7972412109375,-0.8544921875
3.4899999,-9.749189376831055,-0.20111294090747833,2.1308395862579346,-13.9923095703125,8.209228515625,3.1890869140625
3.5099999,-9.80904483795166,-0.3519476354122162,1.9752163887023926,-1.220703125,2.9144287109375,1.64794921875
3.5299999,-9.888052940368652,-0.5961562395095825,1.4724340438842773,8.331298828125,0.701904296875,0.1068115234375
3.5499999,-9.971850395202637,-0.7733271718025208,0.9744400978088379,17.120361328125,-1.739501953125,0.7171630859375
3.5699999,-9.964667320251465,-0.5937620401382446,0.7924807667732239,2.50244140625,-5.218505859375,-5.0811767578125
3.5899999,-9.852140426635742,-0.3016694188117981,1.1683704853057861,-18.06640625,4.39453125,-5.6610107421875
3.6099999,-9.75397777557373,-0.13407529890537262,1.6041151285171509,-30.8074951171875,12.969970703125,-4.9285888671875
3.6299999,-9.773131370544434,-0.18914192914962769,1.7764976024627686,-28.9306640625,16.082763671875,-2.86865234375
3.6499999,-9.794678688049316,-0.44771572947502136,1.5203180313110352,-15.0146484375,12.8021240234375,1.8310546875
3.6699999,-9.919178009033203,-0.7589619159698486,1.072602391242981,6.77490234375,3.9825439453125,1.40380859375
3.6899999,-10.06043529510498,-1.0295066833496094,0.42856210470199585,23.4375,-3.021240234375,0.1068115234375
3.7099999,-10.11550235748291,-1.0845733880996704,0.05746084079146385,26.7181396484375,-8.8653564453125,-0.6866455078125
3.7299999,-10.101137161254883,-0.9169792532920837,0.0454898327589035,17.5323486328125,-14.312744140625,-2.2125244140625
3.7499999,-10.074800491333008,-0.7206547260284424,0.31842881441116333,1.251220703125,-10.1776123046875,-4.1656494140625
3.7699999,-9.93593692779541,-0.4572925269603729,0.8906430602073669,-8.6517333984375,-4.730224609375,-5.096435546875
3.7899999,-9.90241813659668,-0.2585737705230713,1.4700398445129395,-16.3421630859375,1.0833740234375,-1.129150390625
3.8099999,-9.856928825378418,-0.17717093229293823,1.824381709098816,-20.904541015625,5.8135986328125,-2.105712890625
3.8299999000000002,-9.856928825378418,-0.17717093229293823,1.968033790588379,-17.7459716796875,10.101318359375,-0.4730224609375
3.8499999,-9.940725326538086,-0.2777273952960968,1.7884687185287476,-7.5836181640625,7.659912109375,-1.1749267578125
3.8699999,-9.983820915222168,-0.4644751250743866,1.3646949529647827,6.2255859375,2.349853515625,-3.4942626953125
3.8899999,-10.050858497619629,-0.9217676520347595,0.7469909191131592,25.8636474609375,-1.8310546875,-2.471923828125
3.9099999,-10.0580415725708,-1.113303780555725,0.3495534360408783,49.224853515625,-11.4288330078125,-1.89208984375
3.9299999,-10.012551307678223,-1.3215993642807007,0.2298433631658554,48.0194091796875,-13.3056640625,-1.28173828125
3.9499999,-9.919178009033203,-1.1085153818130493,0.5937620401382446,26.5045166015625,-7.7972412109375,-0.152587890625
3.9699999,-9.801861763000488,-0.6799532771110535,1.2617442607879639,1.556396484375,0.885009765625,-1.9989013671875
3.9899999,-9.749189376831055,-0.23942017555236816,1.886630892753601,-16.7694091796875,12.3443603515625,-4.2877197265625
4.0099999,-9.768342971801758,0.002394201699644327,2.2625205516815186,-21.9879150390625,14.984130859375,-0.5950927734375
4.029999900000001,-9.93354320526123,-0.004788403399288654,2.255337953567505,-21.7437744140625,13.5040283203125,-0.5340576171875
4.0499999,-10.127472877502441,-0.23942017555236816,1.9752163887023926,-18.035888671875,14.801025390625,-6.6375732421875
4.069999900000001,-10.433931350708008,-0.5267243981361389,1.5059528350830078,-11.199951171875,13.3514404296875,-6.072998046875
4.0899999000000005,-10.764330863952637,-0.8331822156906128,0.9864110946655273,-3.8604736328125,10.3912353515625,-6.4849853515625
4.1099999,-11.073183059692383,-1.036689281463623,0.47405192255973816,3.2958984375,4.33349609375,-6.805419921875
4.1299999000000005,-11.322179794311523,-1.1635819673538208,0.07422025501728058,9.7198486328125,-3.326416015625,-4.1961669921875
4.1499999,-11.250353813171387,-1.1755530834197998,-0.20350714027881622,14.7705078125,-3.4027099609375,-6.195068359375
4.1699999000000005,-11.018115997314453,-1.0845733880996704,-0.3471592366695404,20.01953125,7.232666015625,-7.2784423828125
4.1899999,-10.536881446838379,-0.950498104095459,-0.3663128614425659,24.566650390625,2.8228759765625,-7.14111328125
4.209999900000001,-10.017339706420898,-0.8236053586006165,-0.31124621629714966,21.4080810546875,-2.8076171875,-5.7220458984375
4.2299999,-9.524134635925293,-0.7757213711738586,-0.20350714027881622,16.082763671875,6.7901611328125,-5.79833984375
4.249999900000001,-9.095572471618652,-0.8164227604866028,-0.031124621629714966,13.458251953125,21.209716796875,-4.39453125
4.2699999,-8.846575736999512,-0.9169792532920837,0.10773907601833344,12.939453125,30.4718017578125,-0.7781982421875
4.289999900000001,-8.789113998413086,-1.0342950820922852,0.19393034279346466,14.4500732421875,29.8919677734375,-1.708984375
4.3099999,-8.860940933227539,-1.1444283723831177,0.22266076505184174,15.960693359375,22.918701171875,-8.514404296875
4.329999900000001,-8.96389102935791,-1.2521674633026123,0.2298433631658554,18.0816650390625,18.5546875,-12.14599609375
4.3499999,-9.07641887664795,-1.335964560508728,0.27054479718208313,19.134521484375,18.096923828125,-9.002685546875
4.369999900000001,-9.150638580322266,-1.3934253454208374,0.3687070608139038,19.775390625,17.120361328125,-5.2032470703125
4.3899999,-9.241618156433105,-1.41257905960083,0.5267243981361389,18.6309814453125,13.916015625,-2.7923583984375
4.409999900000001,-9.378087997436523,-1.3623007535934448,0.7086837291717529,15.2130126953125,11.749267578125,-0.213623046875
4.4299999,-9.512163162231445,-1.2713210582733154,0.9002198576927185,13.214111328125,11.6424560546875,-0.518798828125
4.449999900000001,-9.62947940826416,-1.1468225717544556,1.0893617868423462,11.7950439453125,12.5579833984375,-1.953125
4.4699999,-9.744400978088379,-1.0079588890075684,1.259350061416626,8.3770751953125,12.39013671875,-1.9073486328125
4.489999900000001,-9.86889934539795,-0.8523358106613159,1.3910311460494995,3.6773681640625,9.4451904296875,-2.532958984375
4.5099999,-9.967061996459961,-0.7110779285430908,1.4844050407409668,-0.732421875,4.0740966796875,-4.4403076171875
4.529999900000001,-10.019734382629395,-0.5937620401382446,1.5131354331970215,-5.401611328125,-0.1068115234375,-3.2958984375
4.5499999,-10.002974510192871,-0.5123591423034668,1.4748282432556152,-9.7198486328125,-2.25830078125,1.1138916015625
4.569999900000001,-9.931148529052734,-0.48602294921875,1.3646949529647827,-12.4664306640625,-2.288818359375,4.1046142578125
4.5899999000000005,-9.873687744140625,-0.49559974670410156,1.1994950771331787,-13.0157470703125,-2.9754638671875,5.92041015625
4.609999900000001,-9.86889934539795,-0.5195417404174805,1.0007762908935547,-12.939453125,-4.6234130859375,7.5225830078125
4.6299999000000005,-9.938331604003906,-0.569819986820221,0.8020575642585754,-12.6953125,-3.96728515625,8.11767578125
4.6499999,-10.08198356628418,-0.6248866319656372,0.6009446382522583,-11.0015869140625,-2.0904541015625,7.415771484375
4.6699999000000005,-10.204087257385254,-0.6943184733390808,0.4357447028160095,-7.720947265625,-3.7384033203125,4.5928955078125
4.6899999,-10.311826705932617,-0.7589619159698486,0.28969839215278625,-5.8135986328125,-4.241943359375,1.9989013671875
4.709999900000001,-10.371682167053223,-0.811634361743927,0.17238251864910126,-3.753662109375,-2.8533935546875,0.335693359375
4.7299999,-10.350133895874023,-0.8523358106613159,0.08140286058187485,0,-4.0283203125,-1.03759765625
4.749999900000001,-10.244789123535156,-0.8738836050033569,0.016759412363171577,3.4332275390625,-7.232666015625,-0.213623046875
4.7699999,-10.06043529510498,-0.8738836050033569,0,4.486083984375,-7.5836181640625,3.631591796875
4.789999900000001,-9.84495735168457,-0.8331822156906128,0.021547814831137657,3.4027099609375,-0.213623046875,6.7291259765625
4.8099999,-9.646238327026367,-0.768538773059845,0.090979665517807,0.732421875,7.0953369140625,5.889892578125
4.829999900000001,-9.552865028381348,-0.6919242739677429,0.17956513166427612,-4.1046142578125,8.72802734375,5.3863525390625
4.8499999,-9.864110946655273,-0.6847416758537292,0.26336219906806946,-9.307861328125,8.636474609375,3.082275390625
4.869999900000001,-9.979032516479492,-0.7110779285430908,0.304063618183136,-10.2081298828125,-0.335693359375,-9.5672607421875
4.8899999,-10.395624160766602,-0.8619126081466675,0.28969839215278625,-9.857177734375,-1.556396484375,-0.7781982421875
4.909999900000001,-10.42195987701416,-0.9864110946655273,0.22744916379451752,-4.33349609375,0.2288818359375,4.241943359375
4.9299999,-10.402806282043457,-1.0989385843276978,0.13407529890537262,1.007080078125,-2.99072265625,3.875732421875
4.949999900000001,-10.249577522277832,-1.137245774269104,0.05985504388809204,6.011962890625,-5.035400390625,3.4942626953125
4.9699999,-10.105925559997559,-1.091755986213684,0.05506663769483566,10.6353759765625,-5.645751953125,3.4942626953125
4.989999900000001,-10.002974510192871,-1.0055646896362305,0.13168109953403473,11.8255615234375,-5.615234375,3.997802734375
5.0099999,-9.93354320526123,-0.8882488012313843,0.26575639843940735,10.5133056640625,-4.45556640625,4.058837890625
5.029999900000001,-9.90241813659668,-0.751779317855835,0.44532153010368347,7.9345703125,-3.0364990234375,3.2958984375
5.0499999,-9.888052940368652,-0.6177040338516235,0.6009446382522583,3.8909912109375,-1.220703125,2.1209716796875
5.069999900000001,-9.86889934539795,-0.5363011956214905,0.7134721279144287,-1.4190673828125,0.1373291015625,1.7242431640625
5.0899999000000005,-9.880870819091797,-0.5123591423034668,0.751779317855835,-4.3182373046875,1.1749267578125,2.4566650390625
5.109999900000001,-9.909601211547852,-0.5650315880775452,0.6847416758537292,-3.662109375,1.556396484375,2.8076171875
5.1299999000000005,-9.950302124023438,-0.6536170840263367,0.5554547905921936,-0.4730224609375,0.67138671875,2.6092529296875
5.1499999,-9.974244117736816,-0.7326257228851318,0.3926490843296051,2.5482177734375,-1.4801025390625,2.2430419921875
5.1699999000000005,-9.99339771270752,-0.7757213711738586,0.26575639843940735,3.23486328125,-2.5787353515625,2.044677734375
5.1899999,-9.983820915222168,-0.7565677165985107,0.2059013396501541,2.7008056640625,-2.593994140625,0.8697509765625
5.209999900000001,-9.976638793945312,-0.7086837291717529,0.22505496442317963,1.28173828125,-2.6397705078125,-1.007080078125
5.2299999,-9.955090522766113,-0.6392518281936646,0.28969839215278625,-0.701904296875,-2.9296875,-2.4566650390625
5.249999900000001,-9.928754806518555,-0.6057330369949341,0.3519476354122162,-1.434326171875,-2.716064453125,-3.7384033203125
5.2699999,-9.926360130310059,-0.6224924325942993,0.3663128614425659,0.2288818359375,-3.11279296875,-5.096435546875
5.289999900000001,-9.93593692779541,-0.6655880808830261,0.3519476354122162,3.2806396484375,-4.638671875,-5.279541015625
5.3099999,-9.952696800231934,-0.7206547260284424,0.33758243918418884,4.33349609375,-6.5460205078125,-5.0048828125
5.329999900000001,-9.964667320251465,-0.7829039692878723,0.33997663855552673,3.387451171875,-7.354736328125,-4.638671875
5.3499999,-9.99100399017334,-0.811634361743927,0.3878606855869293,3.570556640625,-7.6141357421875,-2.6702880859375
5.369999900000001,-9.986215591430664,-0.8068459630012512,0.5147533416748047,4.8828125,-8.0718994140625,1.3427734375
5.3899999,-9.986215591430664,-0.7445967197418213,0.7254431247711182,2.5177001953125,-7.080078125,4.5318603515625
5.409999900000001,-9.832986831665039,-0.6272808313369751,1.0247182846069336,-4.608154296875,-2.5787353515625,4.3792724609375
5.4299999,-9.816226959228516,-0.507570743560791,1.3335703611373901,-16.815185546875,2.227783203125,4.2724609375
5.449999900000001,-9.746794700622559,-0.4357447028160095,1.580173134803772,-27.801513671875,6.5155029296875,1.800537109375
5.4699999,-9.77791976928711,-0.40940847992897034,1.6663644313812256,-33.8134765625,10.406494140625,6.317138671875
5.489999900000001,-9.8784761428833,-0.545877993106842,1.4508862495422363,-34.0118408203125,10.894775390625,4.6234130859375
5.5099999,-9.916783332824707,-0.7398083209991455,1.0630255937576294,-22.125244140625,11.383056640625,2.0599365234375
5.529999900000001,-9.940725326538086,-0.9552865028381348,0.5003881454467773,-4.180908203125,7.6751708984375,4.9285888671875
5.5499999,-10.014945983886719,-1.1013327836990356,-0.023942016065120697,8.697509765625,4.486083984375,4.6539306640625
5.569999900000001,-10.08198356628418,-1.0749965906143188,-0.3926490843296051,10.9710693359375,0.1068115234375,5.1422119140625
5.5899999000000005,-10.127472877502441,-0.9145850539207458,-0.5195417404174805,6.6070556640625,-5.706787109375,7.4920654296875
5.609999900000001,-10.141838073730469,-0.6560112833976746,-0.40462008118629456,2.685546875,-6.6680908203125,9.0484619140625
5.6299999000000005,-10.113107681274414,-0.40222588181495667,-0.2322375625371933,1.678466796875,-10.5743408203125,4.669189453125
5.6499999,-10.101137161254883,-0.27054479718208313,-0.07422025501728058,2.4261474609375,-16.0675048828125,-1.0986328125
5.6699999000000005,-10.04846477508545,-0.22744916379451752,0.1628057211637497,3.35693359375,-12.786865234375,-4.5318603515625
5.6899999,-10.000580787658691,-0.3064578175544739,0.4118026793003082,4.7149658203125,-13.092041015625,-5.035400390625
5.709999900000001,-9.998186111450195,-0.4189853072166443,0.7398083209991455,4.4403076171875,-9.002685546875,-1.8310546875
5.7299999,-9.849745750427246,-0.5003881454467773,1.1300631761550903,-1.0223388671875,-0.579833984375,1.861572265625
5.749999900000001,-9.825803756713867,-0.5363011956214905,1.4891934394836426,-6.1798095703125,2.7923583984375,6.439208984375
5.7699999,-9.765948295593262,-0.4405331015586853,1.7980455160140991,-14.0533447265625,1.3580322265625,4.974365234375
5.789999900000001,-9.763554573059082,-0.363918662071228,1.922544002532959,-24.71923828125,8.3160400390625,0.8087158203125
5.8099999,-9.751583099365234,-0.33279404044151306,1.8291701078414917,-28.7322998046875,16.9219970703125,-3.9215087890625
5.829999900000001,-9.892841339111328,-0.395043283700943,1.4317326545715332,-17.51708984375,15.777587890625,-5.9967041015625
5.8499999,-9.873687744140625,-0.5099649429321289,0.8738836050033569,-0.79345703125,8.8043212890625,-3.60107421875
5.869999900000001,-9.95748519897461,-0.6847416758537292,0.31842881441116333,3.4942626953125,9.5367431640625,0.0457763671875
5.8899999,-10.08437728881836,-0.7924807667732239,-0.15801730751991272,3.326416015625,8.97216796875,3.11279296875
5.909999900000001,-10.098742485046387,-0.8978256583213806,-0.4405331015586853,8.3160400390625,-4.791259765625,5.4473876953125
5.9299999,-10.196905136108398,-0.9528923034667969,-0.5722141861915588,13.9617919921875,-11.8560791015625,2.960205078125
5.949999900000001,-10.182539939880371,-1.0079588890075684,-0.5315127968788147,16.2506103515625,-12.847900390625,-0.42724609375
5.9699999,-10.089165687561035,-1.0103530883789062,-0.24181437492370605,17.3187255859375,-12.4053955078125,1.3275146484375
5.989999900000001,-9.979032516479492,-0.9289502501487732,0.15322890877723694,15.4571533203125,-9.002685546875,4.638671875
6.0099999,-9.873687744140625,-0.7661445140838623,0.6009446382522583,6.3934326171875,-6.1492919921875,7.232666015625
6.029999900000001,-9.830592155456543,-0.524330198764801,1.0749965906143188,-3.8299560546875,-1.9683837890625,11.138916015625
6.0499999,-9.80904483795166,-0.15083470940589905,1.5131354331970215,-12.87841796875,0.4425048828125,11.5966796875
6.069999900000001,-9.797073364257812,0.23942017555236816,1.8818424940109253,-29.23583984375,4.1656494140625,3.5400390625
6.0899999000000005,-9.830592155456543,0.3519476354122162,1.9776105880737305,-38.8946533203125,10.589599609375,-3.7841796875
6.109999900000001,-9.746794700622559,0.4141969084739685,1.8483237028121948,-31.3262939453125,16.1285400390625,-6.378173828125
6.1299999000000005,-9.787496566772461,0.11971008777618408,1.37906014919281,-17.5628662109375,17.974853515625,-4.7607421875
6.149999900000001,-9.792284965515137,-0.3016694188117981,0.8236053586006165,-8.0413818359375,12.6800537109375,-3.96728515625
6.1699999000000005,-9.931148529052734,-0.6272808313369751,0.31364041566848755,-1.861572265625,12.4664306640625,1.373291015625
6.1899999,-9.940725326538086,-0.8427590131759644,0.05027823522686958,-0.335693359375,6.6375732421875,4.5318603515625
6.209999900000001,-10.019734382629395,-0.7398083209991455,0.1364694982767105,-15.167236328125,5.92041015625,3.11279296875
6.2299999,-9.962273597717285,-0.5219359993934631,0.363918662071228,-33.99658203125,11.566162109375,-3.7078857421875
6.249999900000001,-9.959878921508789,-0.47405192255973816,0.49320554733276367,-36.6668701171875,15.838623046875,-7.7972412109375
6.2699999,-9.938331604003906,-0.49320554733276367,0.4381389021873474,-16.204833984375,10.467529296875,-6.34765625
6.289999900000001,-10.000580787658691,-0.8595184087753296,0.08379705995321274,1.3427734375,9.5062255859375,3.90625
6.3099999,-10.0580415725708,-1.0438719987869263,-0.3878606855869293,11.5509033203125,7.26318359375,2.227783203125
6.329999900000001,-10.093954086303711,-1.2497732639312744,-0.7829039692878723,19.195556640625,-5.157470703125,6.16455078125
6.3499999,-10.177751541137695,-1.0534487962722778,-0.8858546018600464,25.2227783203125,-16.7999267578125,6.2103271484375
6.369999900000001,-10.192116737365723,-0.8164227604866028,-0.849941611289978,19.47021484375,-13.824462890625,6.103515625
6.3899999,-10.158597946166992,-0.4429273009300232,-0.5219359993934631,8.9569091796875,-12.847900390625,0.762939453125
6.409999900000001,-10.110713958740234,-0.26575639843940735,-0.22266076505184174,8.1024169921875,-16.29638671875,-5.1116943359375
6.4299999,-10.046070098876953,-0.10534487664699554,0.21547815203666687,19.866943359375,-18.890380859375,-5.0811767578125
6.449999900000001,-9.923966407775879,-0.040701430290937424,0.7661445140838623,10.2386474609375,-10.5438232421875,1.5106201171875
6.4699999,-9.864110946655273,0.05985504388809204,1.316810965538025,-22.7813720703125,2.960205078125,1.953125
6.489999900000001,-9.852140426635742,0.021547814831137657,1.6711528301239014,-33.599853515625,9.3841552734375,0.1373291015625
6.5099999,-9.821015357971191,-0.12449848651885986,1.580173134803772,-11.260986328125,2.197265625,-3.997802734375
6.529999900000001,-9.952696800231934,-0.47405192255973816,1.1061211824417114,16.7694091796875,-3.23486328125,-2.0599365234375
6.5499999,-9.955090522766113,-0.7972691655158997,0.4644751250743866,28.472900390625,-8.453369140625,-2.8076171875
6.569999900000001,-10.050858497619629,-0.9911994934082031,0.019153613597154617,29.47998046875,-7.4310302734375,-5.5084228515625
6.5899999000000005,-9.995792388916016,-0.8451532125473022,0.014365210197865963,27.435302734375,-7.3699951171875,-3.5400390625
6.609999900000001,-9.988609313964844,-0.5937620401382446,0.38546648621559143,4.33349609375,-2.5787353515625,0.1983642578125
6.6299999000000005,-9.897629737854004,-0.1628057211637497,0.9433154463768005,-27.52685546875,7.720947265625,0.48828125
6.649999900000001,-9.907206535339355,0.021547814831137657,1.37906014919281,-36.9415283203125,10.711669921875,-0.946044921875
6.6699999000000005,-9.883264541625977,-0.002394201699644327,1.4197616577148438,-21.6064453125,6.9732666015625,-5.9661865234375
6.6899999,-9.95748519897461,-0.31603461503982544,1.137245774269104,-0.8392333984375,4.08935546875,-5.157470703125
6.709999900000001,-9.96945571899414,-0.7254431247711182,0.608127236366272,11.2457275390625,1.312255859375,-4.6844482421875
6.7299999,-9.976638793945312,-1.0534487962722778,0.2106897532939911,19.073486328125,1.15966796875,-3.84521484375
6.749999900000001,-9.938331604003906,-1.1348515748977661,0,17.303466796875,0.3509521484375,0.79345703125
6.7699999,-9.926360130310059,-0.9409212470054626,0.0933738648891449,-0.3662109375,0.4730224609375,4.57763671875
6.789999900000001,-9.947908401489258,-0.6536170840263367,0.22026655077934265,-20.0042724609375,2.5787353515625,3.7994384765625
6.8099999,-9.967061996459961,-0.38067805767059326,0.36152446269989014,-18.9361572265625,-0.48828125,0.8697509765625
6.829999900000001,-10.0580415725708,-0.33997663855552673,0.38067805767059326,-2.9449462890625,-5.7830810546875,-3.4027099609375
6.8499999,-10.050858497619629,-0.47644615173339844,0.2968810200691223,11.9171142578125,-10.040283203125,-2.349853515625
6.869999900000001,-10.046070098876953,-0.6871358752250671,0.33039984107017517,17.2271728515625,-9.4146728515625,-3.143310546875
6.8899999,-9.983820915222168,-0.8044517636299133,0.47644615173339844,16.3116455078125,-4.2724609375,-1.9073486328125
6.909999900000001,-9.892841339111328,-0.7254431247711182,0.8259995579719543,5.4168701171875,1.3427734375,2.3193359375
6.9299999,-9.80904483795166,-0.5195417404174805,1.2832920551300049,-13.3819580078125,5.7373046875,4.638671875
6.949999900000001,-9.801861763000488,-0.2849099934101105,1.5514427423477173,-30.0445556640625,10.4217529296875,3.1585693359375
6.9699999,-9.775525093078613,-0.1628057211637497,1.5945383310317993,-27.52685546875,11.2457275390625,-1.64794921875
6.989999900000001,-9.888052940368652,-0.24660277366638184,1.2761094570159912,-12.054443359375,9.46044921875,-4.180908203125
7.0099999,-9.895236015319824,-0.507570743560791,0.6967126727104187,2.9754638671875,2.899169921875,-5.2642822265625
7.029999900000001,-10.055646896362305,-0.8331822156906128,0.06224924325942993,15.7928466796875,-1.03759765625,-6.0577392578125
7.0499999,-10.055646896362305,-1.0558429956436157,-0.2801215946674347,24.139404296875,-4.0740966796875,-1.312255859375
7.069999900000001,-10.06043529510498,-1.0582371950149536,-0.3663128614425659,14.83154296875,-3.2958984375,3.662109375
7.0899999000000005,-10.055646896362305,-0.9648633003234863,-0.14844051003456116,1.9683837890625,-3.7689208984375,5.706787109375
7.109999900000001,-10.038887977600098,-0.7206547260284424,0.17717093229293823,-1.6937255859375,-6.1187744140625,5.1116943359375
7.1299999000000005,-9.99100399017334,-0.5099649429321289,0.5578489899635315,1.6632080078125,-7.99560546875,1.2359619140625
7.149999900000001,-10.017339706420898,-0.38307225704193115,0.7852981686592102,2.9296875,-3.90625,-0.18310546875
7.1699999000000005,-9.9000244140625,-0.33279404044151306,1.0199298858642578,1.89208984375,-2.7618408203125,-2.5787353515625
7.1899999,-9.859322547912598,-0.38546648621559143,1.2042834758758545,-5.2490234375,2.9754638671875,-4.2877197265625
7.209999900000001,-9.758766174316406,-0.395043283700943,1.4197616577148438,-16.6168212890625,10.101318359375,0.1983642578125
7.2299999,-9.775525093078613,-0.44532153010368347,1.4676456451416016,-27.8167724609375,17.02880859375,2.7618408203125
7.249999900000001,-9.797073364257812,-0.45489832758903503,1.3120225667953491,-27.40478515625,15.93017578125,4.0435791015625
7.2699999,-9.964667320251465,-0.5554547905921936,0.8403648138046265,-13.641357421875,7.4005126953125,2.62451171875
7.289999900000001,-10.199298858642578,-0.8762778043746948,-0.4908113479614258,25.5584716796875,-7.843017578125,0.946044921875
7.3099999,-10.20648193359375,-0.9840168952941895,-0.9193734526634216,37.109375,-16.6473388671875,-2.8228759765625
7.329999900000001,-10.15141487121582,-0.8451532125473022,-0.7972691655158997,35.4766845703125,-17.7764892578125,-3.753662109375
7.3499999,-9.998186111450195,-0.5913678407669067,-0.2082955539226532,12.75634765625,-11.1083984375,0.4425048828125
7.369999900000001,-9.86650562286377,-0.24420857429504395,0.7230489253997803,-17.9443359375,1.312255859375,1.2969970703125
7.3899999,-9.765948295593262,-0.05746084079146385,1.534683346748352,-34.3170166015625,7.75146484375,3.326416015625
7.409999900000001,-9.768342971801758,-0.1149216815829277,1.9321208000183105,-32.501220703125,7.0037841796875,2.86865234375
7.4299999,-9.832986831665039,-0.3974374830722809,1.6879122257232666,-15.8233642578125,5.1727294921875,3.7078857421875
7.449999900000001,-9.950302124023438,-0.7781155705451965,1.1180921792984009,5.31005859375,1.2664794921875,4.9896240234375
7.4699999,-10.005369186401367,-1.0055646896362305,0.43335050344467163,17.486572265625,-5.615234375,2.7923583984375
7.489999900000001,-10.036493301391602,-1.0007762908935547,0.05985504388809204,15.838623046875,-6.04248046875,3.72314453125
7.5099999,-9.964667320251465,-0.7350199222564697,-0.009576806798577309,1.9378662109375,-2.838134765625,5.37109375
7.529999900000001,-9.947908401489258,-0.35434186458587646,0.27054479718208313,-13.12255859375,2.2125244140625,3.7841796875
7.5499999,-9.947908401489258,-0.05746084079146385,0.5219359993934631,-19.6990966796875,3.082275390625,3.143310546875
7.569999900000001,-9.943120002746582,0.07182604819536209,0.8020575642585754,-10.8184814453125,-2.7008056640625,0.4119873046875
7.5899999000000005,-10.012551307678223,-0.026336219161748886,0.8690952062606812,-1.617431640625,-2.471923828125,-2.0904541015625
7.609999900000001,-10.007762908935547,-0.28969839215278625,0.8690952062606812,5.0048828125,0.9613037109375,-3.143310546875
7.6299999000000005,-9.947908401489258,-0.47644615173339844,0.8619126081466675,8.0718994140625,-0.54931640625,-5.0201416015625
7.649999900000001,-9.888052940368652,-0.5530605912208557,0.9217676520347595,3.814697265625,3.0517578125,-4.5013427734375
7.6699999000000005,-9.799467086791992,-0.5099649429321289,1.0199298858642578,-8.8348388671875,9.3231201171875,-1.251220703125
7.6899999,-9.78989028930664,-0.304063618183136,1.1444283723831177,-23.284912109375,16.0675048828125,-1.52587890625
7.709999900000001,-9.888052940368652,-0.24899697303771973,1.1252747774124146,-27.89306640625,16.510009765625,-1.5411376953125
7.7299999,-9.947908401489258,-0.31603461503982544,0.8331822156906128,-13.97705078125,8.2855224609375,-0.9307861328125
7.749999900000001,-10.093954086303711,-0.4668693244457245,0.363918662071228,3.2501220703125,3.0364990234375,-0.3509521484375
7.7699999,-10.17296314239502,-0.8020575642585754,-0.20111294090747833,14.9993896484375,-2.4566650390625,-1.8157958984375
7.789999900000001,-10.086771965026855,-0.9648633003234863,-0.5937620401382446,19.7906494140625,-10.7574462890625,-3.753662109375
7.8099999,-10.103530883789062,-1.0438719987869263,-0.6631938815116882,18.218994140625,-10.7269287109375,-1.8157958984375
7.829999900000001,-9.99339771270752,-0.9840168952941895,-0.4165911078453064,10.4827880859375,-8.8348388671875,4.0130615234375
7.8499999,-9.952696800231934,-0.7996633648872375,0.05506663769483566,0.8544921875,-7.3089599609375,5.7525634765625
7.869999900000001,-9.897629737854004,-0.5578489899635315,0.6344634294509888,-7.8125,-4.058837890625,6.317138671875
7.8899999,-9.847352027893066,-0.27054479718208313,1.2090718746185303,-17.9443359375,-0.335693359375,7.6904296875
7.909999900000001,-9.830592155456543,-0.1604115068912506,1.4700398445129395,-27.008056640625,3.0059814453125,4.4708251953125
7.9299999,-9.849745750427246,-0.047884032130241394,1.580173134803772,-26.06201171875,6.2713623046875,1.007080078125
7.949999900000001,-9.821015357971191,-0.12210428714752197,1.4173674583435059,-20.904541015625,4.5013427734375,0.6561279296875
7.9699999,-9.928754806518555,-0.2968810200691223,1.01753568649292,-14.9993896484375,6.77490234375,-3.8909912109375
7.989999900000001,-9.964667320251465,-0.5291185975074768,0.6440402865409851,-0.213623046875,6.0272216796875,-3.1585693359375
8.0099999,-9.971850395202637,-0.667982280254364,0.31603461503982544,9.918212890625,3.204345703125,2.5787353515625
8.0299999,-10.034099578857422,-0.6631938815116882,0.1867477297782898,7.3089599609375,-0.3509521484375,3.6773681640625
8.049999900000001,-10.031704902648926,-0.5410895943641663,0.12689268589019775,-4.6539306640625,1.708984375,2.5634765625
8.069999900000001,-9.93354320526123,-0.3208230137825012,0.3016694188117981,-2.2735595703125,-0.885009765625,-1.6326904296875
8.0899999,-10.010157585144043,-0.16759411990642548,0.5722141861915588,-2.655029296875,-1.6632080078125,-2.9296875
8.1099999,-9.8784761428833,-0.05027823522686958,0.8834604024887085,-15.6097412109375,3.8909912109375,-4.486083984375
8.129999900000001,-9.926360130310059,-0.08619125932455063,1.1348515748977661,-32.5164794921875,11.4593505859375,-6.561279296875
8.149999900000001,-9.907206535339355,-0.2849099934101105,1.0678139925003052,-27.496337890625,15.9759521484375,-8.4228515625
8.1699999,-9.943120002746582,-0.5530605912208557,0.790086567401886,-2.410888671875,8.758544921875,-3.9520263671875
8.1899999,-10.014945983886719,-0.8571242094039917,0.26096799969673157,10.833740234375,4.058837890625,-0.30517578125
8.2099999,-10.036493301391602,-0.9840168952941895,-0.043095629662275314,5.6915283203125,3.5247802734375,3.5400390625
8.229999900000001,-10.077195167541504,-0.9648633003234863,-0.23942017555236816,-3.60107421875,0.9918212890625,3.41796875
8.2499999,-10.11789608001709,-0.9361328482627869,-0.4141969084739685,-0.06103515625,-5.3253173828125,2.9144287109375
8.2699999,-10.146626472473145,-0.9768342971801758,-0.5530605912208557,23.3306884765625,-12.75634765625,2.3193359375
8.2899999,-10.220847129821777,-0.9050082564353943,-0.6440402865409851,44.586181640625,-20.8892822265625,3.0059814453125
8.309999900000001,-10.156203269958496,-0.7733271718025208,-0.4812345504760742,45.8526611328125,-23.4832763671875,0.457763671875
8.3299999,-10.04846477508545,-0.3974374830722809,0.13168109953403473,30.181884765625,-17.3797607421875,-3.3111572265625
8.3499999,-9.892841339111328,0.026336219161748886,0.9457096457481384,9.2010498046875,-6.2408447265625,-5.6304931640625
8.3699999,-9.6989107131958,0.304063618183136,1.7286136150360107,-13.1683349609375,6.1187744140625,-6.439208984375
8.389999900000001,-9.660603523254395,0.42616790533065796,2.2002713680267334,-26.5350341796875,13.4429931640625,-5.828857421875
8.4099999,-9.6989107131958,0.22266076505184174,2.1140801906585693,-23.9410400390625,15.7012939453125,-3.2501220703125
8.4299999,-9.823410034179688,-0.08858546614646912,1.6759412288665771,-5.096435546875,6.7138671875,-5.18798828125
8.4499999,-9.981427192687988,-0.5434837937355042,0.8427590131759644,13.18359375,2.2430419921875,-8.1634521484375
8.469999900000001,-10.093954086303711,-0.8930372595787048,0.09576806426048279,29.60205078125,-2.9754638671875,-8.392333984375
8.4899999,-10.096348762512207,-1.1228805780410767,-0.363918662071228,38.909912109375,-11.5203857421875,-8.8348388671875
8.5099999,-10.055646896362305,-1.0630255937576294,-0.3064578175544739,28.8848876953125,-8.514404296875,-9.124755859375
8.5299999,-9.955090522766113,-0.8140285611152649,0.21308395266532898,2.593994140625,0.2288818359375,-5.9051513671875
8.549999900000001,-9.832986831665039,-0.5530605912208557,0.9074024558067322,-24.3072509765625,10.0250244140625,-3.8299560546875
8.569999900000001,-9.751583099365234,-0.35913026332855225,1.41257905960083,-33.294677734375,16.632080078125,-2.9296875
8.5899999,-9.758766174316406,-0.3926490843296051,1.4891934394836426,-25.2532958984375,14.9383544921875,0.6256103515625
8.6099999,-9.744400978088379,-0.5650315880775452,1.2114660739898682,-15.533447265625,8.4686279296875,0.7476806640625
8.629999900000001,-9.964667320251465,-0.8403648138046265,0.5482721924781799,-12.63427734375,5.7220458984375,-0.7476806640625
8.649999900000001,-10.036493301391602,-1.0271124839782715,-0.033518824726343155,2.3956298828125,-3.173828125,1.46484375
8.6699999,-10.14902114868164,-1.194706678390503,-0.5123591423034668,14.6636962890625,-12.7105712890625,-2.4261474609375
8.6899999,-10.127472877502441,-1.1851298809051514,-0.5817909836769104,19.134521484375,-12.9852294921875,-5.1116943359375
8.709999900000001,-10.038887977600098,-1.0869675874710083,-0.24660277366638184,8.392333984375,-5.401611328125,1.8768310546875
8.729999900000001,-9.938331604003906,-0.7206547260284424,0.49320554733276367,-7.4310302734375,0,4.0435791015625
8.7499999,-9.885659217834473,-0.5578489899635315,1.0797849893569946,-25.0091552734375,7.2174072265625,3.509521484375
8.7699999,-9.871294021606445,-0.3495534360408783,1.4867992401123047,-24.4903564453125,9.4757080078125,0.885009765625
8.7899999,-9.96945571899414,-0.45250412821769714,1.2066776752471924,-0.2899169921875,4.913330078125,-0.579833984375
8.809999900000001,-10.019734382629395,-0.5841852426528931,0.6871358752250671,24.90234375,-5.2337646484375,-1.6632080078125
8.8299999,-10.096348762512207,-0.7015010714530945,0.15562310814857483,33.63037109375,-12.3138427734375,-3.814697265625
8.8499999,-10.072406768798828,-0.7398083209991455,-0.0933738648891449,24.871826171875,-10.0250244140625,-8.85009765625
8.8699999,-9.95748519897461,-0.6153098344802856,0.11252748221158981,14.16015625,-3.753662109375,-8.819580078125
8.889999900000001,-9.8784761428833,-0.4836287498474121,0.5841852426528931,1.0528564453125,2.01416015625,-6.988525390625
8.9099999,-9.744400978088379,-0.33518823981285095,1.2066776752471924,-19.378662109375,8.9111328125,-4.8980712890625
8.9299999,-9.765948295593262,-0.35434186458587646,1.4389152526855469,-36.7584228515625,16.7999267578125,-3.6773681640625
8.9499999,-9.804255485534668,-0.5722141861915588,1.3455413579940796,-24.810791015625,11.8255615234375,-4.3487548828125
8.969999900000001,-9.96945571899414,-0.9457096457481384,0.7493851184844971,6.378173828125,1.0833740234375,-3.72314453125
8.9899999,-10.101137161254883,-1.2401964664459229,0.17238251864910126,23.2391357421875,-7.8887939453125,-0.8392333984375
9.0099999,-10.141838073730469,-1.316810965538025,-0.11013327538967133,13.6260986328125,-8.4228515625,-2.2125244140625
9.0299999,-10.125079154968262,-1.1971008777618408,0.031124621629714966,-2.5634765625,0.1068115234375,-5.0506591796875
9.049999900000001,-10.005369186401367,-0.9457096457481384,0.48602294921875,-10.2996826171875,6.6680908203125,-2.777099609375
9.069999900000001,-9.974244117736816,-0.8643068075180054,0.871489405632019,-14.862060546875,11.3372802734375,0.4425048828125
9.0899999,-9.916783332824707,-0.9911994934082031,1.0007762908935547,-15.13671875,11.5203857421875,5.4473876953125
9.1099999,-9.962273597717285,-1.2737152576446533,0.7709329724311829,3.936767578125,9.0484619140625,9.307861328125
9.129999900000001,-9.976638793945312,-1.5179238319396973,0.29209262132644653,38.2080078125,-1.9683837890625,10.19287109375
9.149999900000001,-10.034099578857422,-1.5873557329177856,-0.1867477297782898,50.0030517578125,-9.9334716796875,9.2620849609375
9.1699999,-10.034099578857422,-1.290474772453308,-0.36152446269989014,39.1693115234375,-11.993408203125,8.72802734375
9.1899999,-10.014945983886719,-0.7757213711738586,-0.15083470940589905,18.218994140625,-5.4473876953125,10.07080078125
9.209999900000001,-9.986215591430664,-0.22266076505184174,0.33039984107017517,0.0152587890625,4.0130615234375,6.591796875
9.229999900000001,-10.04846477508545,0.1628057211637497,0.8259995579719543,-7.99560546875,-0.0762939453125,-3.6163330078125
9.2499999,-10.268731117248535,0.18914192914962769,1.1109095811843872,-7.598876953125,2.0294189453125,-7.904052734375
9.2699999,-10.704475402832031,-0.05746084079146385,1.1683704853057861,-2.532958984375,4.69970703125,-4.5013427734375
9.2899999,-11.166556358337402,-0.48602294921875,1.048660397529602,1.8157958984375,3.204345703125,-1.9073486328125
9.309999900000001,-11.525687217712402,-0.8978256583213806,0.790086567401886,5.889892578125,5.0048828125,-0.6561279296875
9.3299999,-11.599906921386719,-1.094150185585022,0.5027823448181152,11.04736328125,3.997802734375,2.410888671875
9.3499999,-11.355698585510254,-1.1516109704971313,0.21308395266532898,16.387939453125,4.7454833984375,-1.922607421875
9.3699999,-10.81460952758789,-1.0773907899856567,0.028730420395731926,18.4478759765625,3.9520263671875,-10.772705078125
9.389999900000001,-10.11550235748291,-1.0127472877502441,-0.009576806798577309,14.8773193359375,1.434326171875,-16.143798828125
9.4099999,-9.41400146484375,-1.0103530883789062,0.11252748221158981,9.2315673828125,3.3721923828125,-17.2576904296875
9.4299999,-8.760383605957031,-1.0654197931289673,0.3256114423274994,3.753662109375,7.8582763671875,-13.1988525390625
9.4499999,-8.274360656738281,-1.170764684677124,0.5602431893348694,-3.204345703125,6.927490234375,-7.4615478515625
9.469999900000001,-8.039729118347168,-1.2521674633026123,0.7182605266571045,-7.5225830078125,8.1787109375,-1.5411376953125
9.4899999,-8.022970199584961,-1.2976573705673218,0.7948749661445618,-9.8419189453125,6.988525390625,-2.044677734375
9.5099999,-8.183381080627441,-1.2880805730819702,0.811634361743927,-11.04736328125,1.89208984375,-5.9051513671875
9.5299999,-8.513781547546387,-1.216254472732544,0.7948749661445618,-11.627197265625,-0.1678466796875,-5.462646484375
9.549999900000001,-8.937555313110352,-1.1109095811843872,0.7709329724311829,-11.5814208984375,1.7547607421875,-0.9765625
9.569999900000001,-9.411606788635254,-0.9911994934082031,0.7565677165985107,-11.016845703125,0.1983642578125,3.1890869140625
9.5899999,-9.876082420349121,-0.8762778043746948,0.7350199222564697,-10.68115234375,-4.5013427734375,5.43212890625
9.6099999,-10.261548042297363,-0.7757213711738586,0.6823474764823914,-10.19287109375,-6.591796875,6.9427490234375
9.629999900000001,-10.47942066192627,-0.6847416758537292,0.6177040338516235,-8.819580078125,-5.5999755859375,5.889892578125
9.649999900000001,-10.5344877243042,-0.6200982332229614,0.5195417404174805,-8.4228515625,-1.46484375,2.105712890625
9.6699999,-10.44350814819336,-0.5937620401382446,0.42616790533065796,-8.392333984375,-0.9613037109375,1.3885498046875
9.6899999,-10.280701637268066,-0.5985504388809204,0.3447650372982025,-7.62939453125,-3.8299560546875,4.425048828125
9.709999900000001,-10.086771965026855,-0.6416460275650024,0.3064578175544739,-5.9051513671875,-4.0740966796875,3.448486328125
9.729999900000001,-9.931148529052734,-0.7038952708244324,0.31364041566848755,-4.1351318359375,-2.9296875,1.15966796875
9.7499999,-9.840168952941895,-0.7637503147125244,0.3495534360408783,-2.7313232421875,-4.638671875,4.425048828125
9.7699999,-9.818621635437012,-0.7972691655158997,0.395043283700943,-1.4190673828125,-8.5296630859375,9.46044921875
9.7899999,-9.821015357971191,-0.811634361743927,0.44532153010368347,-0.213623046875,-8.209228515625,9.033203125
9.809999900000001,-9.856928825378418,-0.8020575642585754,0.49559974670410156,0.0457763671875,-4.7607421875,7.171630859375
9.8299999,-9.904812812805176,-0.7709329724311829,0.5434837937355042,0.3509521484375,-5.1727294921875,10.6964111328125
9.8499999,-9.947908401489258,-0.7230489253997803,0.5889736413955688,1.4801025390625,-8.514404296875,15.899658203125
9.8699999,-9.950302124023438,-0.646434485912323,0.6272808313369751,2.1209716796875,-7.293701171875,16.6473388671875
9.889999900000001,-9.885659217834473,-0.5339069962501526,0.646434485912323,0.5340576171875,-2.349853515625,15.2587890625
9.9099999,-10.14902114868164,-0.4189853072166443,0.646434485912323,-2.25830078125,2.8839111328125,11.3067626953125
9.9299999,-10.11789608001709,-0.23702596127986908,0.6392518281936646,-4.0740966796875,1.4495849609375,-7.537841796875
9.9499999,-10.395624160766602,-0.15801730751991272,0.6440402865409851,-10.07080078125,6.1798095703125,-0.7476806640625
9.969999900000001,-10.369287490844727,-0.05267243832349777,0.6536170840263367,-15.472412109375,9.124755859375,1.1138916015625
9.9899999,-10.251971244812012,-0.10534487664699554,0.6823474764823914,-18.5699462890625,9.002685546875,-1.9683837890625
10.0099999,-10.120290756225586,-0.2322375625371933,0.7015010714530945,-18.0511474609375,7.0343017578125,-3.2806396484375
10.0299999,-10.017339706420898,-0.45489832758903503,0.7110779285430908,-15.3961181640625,8.72802734375,-0.5340576171875
10.049999900000001,-9.967061996459961,-0.7110779285430908,0.629675030708313,-12.969970703125,9.1552734375,1.8463134765625
10.069999900000001,-9.950302124023438,-0.9169792532920837,0.5051765441894531,-8.7432861328125,7.7362060546875,3.326416015625
10.0899999,-9.950302124023438,-1.0007762908935547,0.33518823981285095,-2.105712890625,5.43212890625,3.9215087890625
10.1099999,-9.940725326538086,-0.9361328482627869,0.17956513166427612,2.6092529296875,3.143310546875,3.1280517578125
10.129999900000001,-9.945513725280762,-0.7541735172271729,0.09576806426048279,2.2735595703125,2.227783203125,1.495361328125
10.149999900000001,-9.955090522766113,-0.49320554733276367,0.13168109953403473,-0.79345703125,1.800537109375,-0.030517578125
10.1699999,-9.945513725280762,-0.2346317619085312,0.2825157940387726,-5.2947998046875,2.44140625,-1.89208984375
10.1899999,-9.943120002746582,-0.06224924325942993,0.4572925269603729,-11.444091796875,5.126953125,-4.6234130859375
10.209999900000001,-9.945513725280762,-0.038307227194309235,0.5602431893348694,-15.5487060546875,7.110595703125,-6.8817138671875
10.229999900000001,-9.96945571899414,-0.1843535304069519,0.5147533416748047,-14.6026611328125,5.7830810546875,-5.9356689453125
10.2499999,-10.005369186401367,-0.45010992884635925,0.2968810200691223,-8.636474609375,2.1209716796875,-2.74658203125
10.2699999,-10.055646896362305,-0.7876923680305481,-0.043095629662275314,2.62451171875,-2.777099609375,-1.5869140625
10.2899999,-10.101137161254883,-1.072602391242981,-0.36152446269989014,19.7296142578125,-8.11767578125,-1.5869140625
10.309999900000001,-9.945513725280762,-1.1635819673538208,-0.42616790533065796,32.5469970703125,-13.2293701171875,0.8544921875
10.3299999,-10.010157585144043,-1.1061211824417114,-0.3495534360408783,27.2369384765625,-15.3961181640625,1.2969970703125
10.3499999,-9.914389610290527,-0.8834604024887085,0.0454898327589035,17.63916015625,-11.16943359375,-2.410888671875
10.3699999,-9.938331604003906,-0.5961562395095825,0.5746083855628967,5.43212890625,-5.9356689453125,2.044677734375
10.389999900000001,-9.983820915222168,-0.3902548849582672,1.0845733880996704,-11.138916015625,-2.13623046875,0.79345703125
10.4099999,-9.95748519897461,-0.363918662071228,1.359906554222107,-19.7296142578125,2.5177001953125,-0.48828125
10.4299999,-9.916783332824707,-0.545877993106842,1.335964560508728,-11.9781494140625,4.0283203125,1.9073486328125
10.4499999,-9.914389610290527,-0.8259995579719543,1.0031704902648926,2.6702880859375,-0.2288818359375,2.5177001953125
10.469999900000001,-9.952696800231934,-1.1348515748977661,0.5027823448181152,13.1072998046875,-3.72314453125,4.82177734375
10.4899999,-9.931148529052734,-1.2473790645599365,0.090979665517807,23.529052734375,-6.16455078125,7.7667236328125
10.5099999,-10.002974510192871,-1.115697979927063,-0.028730420395731926,28.1524658203125,-7.9498291015625,8.0413818359375
10.5299999,-9.974244117736816,-0.7374141216278076,0.13407529890537262,13.5040283203125,-5.9051513671875,10.3607177734375
10.549999900000001,-9.981427192687988,-0.2585737705230713,0.4620809257030487,-10.2691650390625,-0.42724609375,11.260986328125
10.569999900000001,-9.95748519897461,0.13168109953403473,0.8068459630012512,-17.852783203125,-0.7171630859375,6.9732666015625
10.5899999,-9.952696800231934,0.3758896589279175,1.0127472877502441,-10.7421875,-2.1820068359375,0.9918212890625
10.6099999,-9.959878921508789,0.35913026332855225,1.0582371950149536,-3.7078857421875,-2.5177001953125,-2.6092529296875
10.629999900000001,-9.945513725280762,0.12210428714752197,0.9600749015808105,2.3956298828125,1.1444091796875,-6.1187744140625
10.649999900000001,-9.962273597717285,-0.1364694982767105,0.8906430602073669,10.2691650390625,2.1209716796875,-6.378173828125
10.6699999,-9.897629737854004,-0.40940847992897034,0.7829039692878723,14.892578125,1.9683837890625,-4.5013427734375
10.6899999,-9.890447616577148,-0.5770025849342346,0.7733271718025208,6.8817138671875,2.1514892578125,-2.4871826171875
10.709999900000001,-9.904812812805176,-0.6129156351089478,0.7613561153411865,-6.9122314453125,8.544921875,2.471923828125
10.729999900000001,-9.895236015319824,-0.5841852426528931,0.8164227604866028,-12.4969482421875,7.3699951171875,5.2490234375
10.7499999,-9.983820915222168,-0.6129156351089478,0.7350199222564697,-10.711669921875,2.960205078125,3.9520263671875
10.7699999,-10.002974510192871,-0.6129156351089478,0.6584054827690125,-4.21142578125,1.312255859375,2.2430419921875
10.7899999,-9.983820915222168,-0.7469909191131592,0.5267243981361389,2.0599365234375,0.9918212890625,3.4942626953125
10.809999900000001,-10.029311180114746,-0.8451532125473022,0.40222588181495667,8.23974609375,1.9073486328125,3.265380859375
10.8299999,-9.952696800231934,-0.8259995579719543,0.37828385829925537,12.4969482421875,-0.030517578125,4.39453125
10.8499999,-9.945513725280762,-0.6799532771110535,0.4405331015586853,4.058837890625,1.4495849609375,7.6446533203125
10.8699999,-9.921571731567383,-0.38546648621559143,0.5746083855628967,-14.16015625,6.77490234375,8.9874267578125
10.889999900000001,-9.93593692779541,-0.11013327538967133,0.6224924325942993,-24.0325927734375,6.439208984375,10.345458984375
10.9099999,-9.93354320526123,0.035913024097681046,0.5770025849342346,-16.8304443359375,1.0223388671875,6.3629150390625
10.9299999,-10.08198356628418,-0.004788403399288654,0.3734954595565796,-1.678466796875,-5.1422119140625,0.457763671875
10.9499999,-10.065223693847656,-0.13407529890537262,0.19871874153614044,9.5062255859375,-7.1258544921875,1.15966796875
10.969999900000001,-10.110713958740234,-0.2992752194404602,0.10534487664699554,13.641357421875,-6.2103271484375,0.762939453125
10.9899999,-9.981427192687988,-0.33997663855552673,0.37828385829925537,7.0953369140625,-3.143310546875,3.7078857421875
11.0099999,-9.938331604003906,-0.22505496442317963,0.6320692300796509,-8.7890625,0.5340576171875,6.988525390625
11.0299999,-9.938331604003906,-0.05746084079146385,0.9313444495201111,-19.439697265625,3.2806396484375,8.758544921875
11.049999900000001,-9.914389610290527,0,1.070208191871643,-15.1519775390625,0.6866455078125,6.195068359375
11.069999900000001,-9.955090522766113,-0.031124621629714966,1.072602391242981,-5.6610107421875,-0.0457763671875,1.28173828125
11.0899999,-9.947908401489258,-0.13407529890537262,0.9624691009521484,-0.1678466796875,-0.9918212890625,0.7476806640625
11.1099999,-9.914389610290527,-0.17238251864910126,0.8595184087753296,-0.2899169921875,2.25830078125,0.0457763671875
11.129999900000001,-9.904812812805176,-0.20111294090747833,0.790086567401886,-4.302978515625,5.4931640625,-0.213623046875
11.149999900000001,-9.873687744140625,-0.08858546614646912,0.8068459630012512,-11.260986328125,8.4991455078125,1.15966796875
11.1699999,-9.892841339111328,-0.009576806798577309,0.790086567401886,-21.8658447265625,11.3525390625,4.119873046875
11.1899999,-9.979032516479492,0.05267243832349777,0.6847416758537292,-23.651123046875,9.3231201171875,5.401611328125
11.209999900000001,-10.019734382629395,-0.014365210197865963,0.44771572947502136,-11.8255615234375,3.1890869140625,1.4801025390625
11.229999900000001,-10.14902114868164,-0.07900865375995636,0.17717093229293823,6.500244140625,-3.082275390625,-3.143310546875
11.2499999,-10.110713958740234,-0.18914192914962769,-0.002394201699644327,15.167236328125,-7.6751708984375,-1.983642578125
11.2699999,-10.122684478759766,-0.19393034279346466,-0.014365210197865963,12.481689453125,-4.638671875,-5.0506591796875
11.2899999,-10.043676376342773,-0.09816227108240128,0.17477671802043915,6.2713623046875,-1.251220703125,-5.79833984375
11.309999900000001,-9.955090522766113,0.0454898327589035,0.545877993106842,-5.0048828125,0.7781982421875,-3.96728515625
11.3299999,-9.916783332824707,0.17238251864910126,0.8930372595787048,-19.805908203125,7.5531005859375,-1.89208984375
11.3499999,-9.904812812805176,0.11013327538967133,1.0630255937576294,-21.087646484375,9.2010498046875,-0.1678466796875
11.3699999,-9.9000244140625,-0.031124621629714966,1.0678139925003052,-7.87353515625,4.3487548828125,-2.3651123046875
11.389999900000001,-9.95748519897461,-0.3016694188117981,0.8307880163192749,5.889892578125,0.91552734375,-4.1046142578125
11.4099999,-9.943120002746582,-0.49559974670410156,0.5650315880775452,11.199951171875,0.0152587890625,-2.1209716796875
11.4299999,-9.976638793945312,-0.5889736413955688,0.42377370595932007,7.5531005859375,1.312255859375,-5.2032470703125
11.4499999,-9.921571731567383,-0.42616790533065796,0.5099649429321289,-6.6375732421875,5.096435546875,-4.2572021484375
11.469999900000001,-9.876082420349121,-0.2298433631658554,0.7254431247711182,-26.8402099609375,10.833740234375,-1.6021728515625
11.4899999,-9.885659217834473,-0.06224924325942993,0.828393816947937,-40.4205322265625,18.8751220703125,0.1373291015625
11.5099999,-9.904812812805176,-0.05985504388809204,0.7924807667732239,-33.0047607421875,16.9830322265625,3.1280517578125
11.5299999,-10.014945983886719,-0.2801215946674347,0.36152446269989014,-8.1634521484375,4.3487548828125,2.2735595703125
11.549999900000001,-10.14902114868164,-0.6177040338516235,-0.23942017555236816,18.5089111328125,-3.997802734375,-0.2899169921875
11.569999900000001,-10.211270332336426,-0.8475474119186401,-0.727837324142456,38.63525390625,-13.00048828125,1.0528564453125
11.5899999,-10.187328338623047,-0.8690952062606812,-0.9696516990661621,42.0684814453125,-17.2119140625,-1.617431640625
11.6099999,-10.141838073730469,-0.5482721924781799,-0.6799532771110535,26.8707275390625,-14.4805908203125,-2.0904541015625
11.629999900000001,-9.967061996459961,-0.11013327538967133,-0.07422025501728058,-2.1820068359375,-7.232666015625,-2.227783203125
11.649999900000001,-9.9000244140625,0.2585737705230713,0.6607996821403503,-22.1405029296875,-0.4425048828125,-1.6632080078125
11.6699999,-9.852140426635742,0.33518823981285095,1.1276689767837524,-21.728515625,4.45556640625,-0.213623046875
11.6899999,-9.821015357971191,0.1149216815829277,1.3192051649093628,-3.6163330078125,0.1220703125,2.44140625
11.709999900000001,-9.911994934082031,-0.1867477297782898,1.1875240802764893,7.965087890625,-3.1585693359375,1.8157958984375
11.729999900000001,-9.940725326538086,-0.4884171485900879,0.8619126081466675,8.4075927734375,-3.265380859375,0.91552734375
11.7499999,-9.955090522766113,-0.5003881454467773,0.6009446382522583,8.8348388671875,-4.9896240234375,-1.251220703125
11.7699999,-10.012551307678223,-0.35913026332855225,0.4692635238170624,2.62451171875,-3.0975341796875,-2.471923828125
11.7899999,-9.93354320526123,-0.14365209639072418,0.5099649429321289,-14.9078369140625,1.52587890625,-3.692626953125
11.809999900000001,-9.911994934082031,0.043095629662275314,0.6584054827690125,-24.627685546875,4.4708251953125,-5.3253173828125
11.8299999,-9.950302124023438,0.08619125932455063,0.6799532771110535,-13.6871337890625,6.744384765625,-4.180908203125
11.8499999,-9.99100399017334,-0.0694318488240242,0.4620809257030487,4.2724609375,0.2899169921875,-3.72314453125
11.8699999,-10.077195167541504,-0.272938996553421,0.19393034279346466,23.681640625,-8.819580078125,-3.0670166015625
11.889999900000001,-10.132261276245117,-0.42616790533065796,-0.038307227194309235,27.5421142578125,-12.451171875,-3.8604736328125
11.9099999,-10.06043529510498,-0.4692635238170624,0.1388636976480484,16.1895751953125,-11.04736328125,-6.3018798828125
11.9299999,-9.96945571899414,-0.42616790533065796,0.5267243981361389,-4.6539306640625,-6.134033203125,-8.9111328125
11.9499999,-9.849745750427246,-0.2561795711517334,1.1228805780410767,-18.7530517578125,2.62451171875,-4.0283203125
11.969999900000001,-9.782708168029785,-0.2346317619085312,1.5322890281677246,-32.7606201171875,11.5966796875,-0.6561279296875
11.9899999,-9.718064308166504,-0.14365209639072418,1.8602946996688843,-39.9169921875,15.9149169921875,-1.8157958984375
12.0099999,-9.77791976928711,-0.2825157940387726,1.7357962131500244,-44.7235107421875,19.378662109375,4.2266845703125
12.0299999,-9.837775230407715,-0.569819986820221,1.237802267074585,-34.7900390625,16.6473388671875,4.8828125
12.049999900000001,-9.998186111450195,-0.6727706789970398,0.5554547905921936,-0.3662109375,5.2490234375,5.1422119140625
12.069999900000001,-10.089165687561035,-0.8331822156906128,-0.26815059781074524,17.4407958984375,-0.4425048828125,6.5155029296875
12.0899999,-10.280701637268066,-0.7374141216278076,-0.7972691655158997,18.8751220703125,-7.904052734375,-0.3509521484375
12.1099999,-10.220847129821777,-0.5123591423034668,-0.9959878921508789,17.0135498046875,-13.2598876953125,-1.953125
12.129999900000001,-10.211270332336426,-0.3878606855869293,-0.8978256583213806,17.88330078125,-13.6566162109375,-2.3040771484375
12.149999900000001,-10.125079154968262,-0.16519992053508759,-0.43095630407333374,25.4974365234375,-16.357421875,-2.685546875
12.1699999,-9.955090522766113,0.11013327538967133,0.26096799969673157,11.77978515625,-9.2315673828125,-0.732421875
12.1899999,-9.847352027893066,0.31124621629714966,1.0630255937576294,-16.90673828125,1.2664794921875,-2.5787353515625
12.209999900000001,-9.821015357971191,0.3998316824436188,1.6328455209732056,-25.4058837890625,8.392333984375,-3.082275390625
12.229999900000001,-9.792284965515137,0.15322890877723694,1.7956513166427612,-12.9852294921875,5.157470703125,-2.8839111328125
12.2499999,-9.883264541625977,-0.2106897532939911,1.4269442558288574,4.638671875,0.1678466796875,-4.8828125
12.2699999,-9.99339771270752,-0.689530074596405,0.8403648138046265,18.585205078125,-4.1046142578125,2.0294189453125
12.289999900000002,-9.974244117736816,-0.8667010068893433,0.36152446269989014,19.5770263671875,-7.8277587890625,0.3814697265625
12.309999900000001,-9.988609313964844,-0.9097966551780701,0.12210428714752197,14.2974853515625,-8.2550048828125,-6.256103515625
12.3299999,-9.897629737854004,-0.6919242739677429,0.30885201692581177,4.0283203125,-2.899169921875,-1.861572265625
12.3499999,-9.895236015319824,-0.42856210470199585,0.667982280254364,-15.869140625,5.7830810546875,0.2899169921875
12.3699999,-9.852140426635742,-0.11971008777618408,1.1348515748977661,-29.632568359375,7.659912109375,-0.1068115234375
12.389999900000001,-9.873687744140625,-0.07422025501728058,1.3311761617660522,-36.68212890625,12.786865234375,0.4730224609375
12.4099999,-9.93593692779541,-0.19393034279346466,1.2449848651885986,-22.613525390625,11.65771484375,0.9002685546875
12.4299999,-10.002974510192871,-0.4118026793003082,0.8331822156906128,0.5340576171875,3.326416015625,2.4261474609375
12.4499999,-10.08198356628418,-0.6344634294509888,0.40940847992897034,7.4615478515625,-0.8087158203125,3.204345703125
12.469999900000001,-10.15141487121582,-0.7541735172271729,0.1412578970193863,4.9591064453125,-3.60107421875,-2.7618408203125
12.4899999,-10.122684478759766,-0.6991068720817566,0.07900865375995636,5.79833984375,-3.936767578125,-2.74658203125
12.5099999,-10.043676376342773,-0.6703764796257019,0.2059013396501541,13.73291015625,-4.6234130859375,-1.6021728515625
12.5299999,-10.043676376342773,-0.5674257874488831,0.3878606855869293,18.9208984375,-5.889892578125,-0.335693359375
12.549999900000001,-9.919178009033203,-0.2992752194404602,0.6727706789970398,8.9263916015625,1.77001953125,0.0152587890625
12.569999900000001,-9.885659217834473,-0.10773907601833344,0.9696516990661621,-7.32421875,5.523681640625,1.434326171875
12.5899999,-9.90241813659668,0.06464344263076782,1.1683704853057861,-20.32470703125,8.8653564453125,-0.762939453125
12.6099999,-9.856928825378418,-0.028730420395731926,1.0869675874710083,-11.4288330078125,4.791259765625,-2.01416015625
12.629999900000001,-9.99100399017334,-0.26096799969673157,0.7254431247711182,10.6353759765625,-1.220703125,-1.8463134765625
12.649999900000001,-9.99100399017334,-0.40222588181495667,0.43095630407333374,20.5535888671875,-4.730224609375,-1.0528564453125
12.6699999,-10.06043529510498,-0.5506663918495178,0.21547815203666687,8.5601806640625,-6.40869140625,-5.4931640625
12.6899999,-9.995792388916016,-0.5195417404174805,0.2968810200691223,-0.091552734375,-1.7242431640625,-8.8043212890625
12.709999900000001,-9.938331604003906,-0.44532153010368347,0.5410895943641663,-1.739501953125,0.762939453125,-3.7384033203125
12.729999900000001,-9.892841339111328,-0.37828385829925537,0.7781155705451965,-11.2762451171875,7.26318359375,-2.1514892578125
12.7499999,-9.871294021606445,-0.2944868206977844,0.9840168952941895,-21.636962890625,9.674072265625,0.4730224609375
12.7699999,-9.895236015319824,-0.40222588181495667,0.9026140570640564,-22.1710205078125,6.89697265625,2.2125244140625
12.789999900000002,-10.012551307678223,-0.6224924325942993,0.6033388376235962,-1.52587890625,-0.79345703125,0.42724609375
12.809999900000001,-10.11550235748291,-0.9026140570640564,0.1173158809542656,24.90234375,-9.613037109375,2.0294189453125
12.8299999,-10.146626472473145,-0.9983820915222168,-0.24181437492370605,37.0941162109375,-16.998291015625,6.011962890625
12.8499999,-10.194510459899902,-0.828393816947937,-0.26815059781074524,24.47509765625,-17.8680419921875,0.42724609375
12.8699999,-10.074800491333008,-0.5219359993934631,0.09816227108240128,9.09423828125,-12.02392578125,-3.96728515625
12.889999900000001,-9.914389610290527,-0.12689268589019775,0.8379706144332886,-4.974365234375,-4.302978515625,-2.105712890625
12.9099999,-9.832986831665039,0.11971008777618408,1.4915876388549805,-24.993896484375,8.544921875,-2.0599365234375
12.9299999,-9.708487510681152,0.14365209639072418,1.845929503440857,-32.562255859375,13.916015625,0.274658203125
12.9499999,-9.799467086791992,-0.12210428714752197,1.702277421951294,-20.2178955078125,9.8114013671875,1.6937255859375
12.969999900000001,-9.8784761428833,-0.5722141861915588,1.1420341730117798,7.1563720703125,-1.1444091796875,0.732421875
12.9899999,-10.036493301391602,-1.0295066833496094,0.38307225704193115,26.7181396484375,-7.110595703125,2.197265625
13.0099999,-10.101137161254883,-1.1420341730117798,0.038307227194309235,31.8450927734375,-10.772705078125,5.37109375
13.0299999,-10.125079154968262,-0.9481038451194763,-0.031124621629714966,13.12255859375,-7.598876953125,-0.3662109375
13.049999900000001,-10.04846477508545,-0.5363011956214905,0.3711012601852417,-5.67626953125,-1.739501953125,-5.2947998046875
13.069999900000001,-9.916783332824707,-0.10534487664699554,0.8643068075180054,-17.608642578125,3.570556640625,-3.6163330078125
13.0899999,-9.864110946655273,0.15322890877723694,1.3215993642807007,-27.1453857421875,12.5579833984375,-2.86865234375
13.1099999,-9.77791976928711,0.15322890877723694,1.479616641998291,-29.3121337890625,14.5721435546875,0.0457763671875
13.129999900000001,-9.847352027893066,-0.1388636976480484,1.1683704853057861,-17.547607421875,9.0484619140625,-0.1220703125
13.149999900000001,-9.890447616577148,-0.5674257874488831,0.7350199222564697,8.1329345703125,-2.13623046875,-1.373291015625
13.1699999,-10.053253173828125,-0.9576807022094727,0.17238251864910126,22.7508544921875,-7.080078125,1.617431640625
13.1899999,-10.02691650390625,-1.048660397529602,0.021547814831137657,20.111083984375,-7.4005126953125,3.9825439453125
13.209999900000001,-10.04846477508545,-0.8810662031173706,0.17477671802043915,2.1514892578125,-3.509521484375,-1.6632080078125
13.229999900000001,-9.971850395202637,-0.5746083855628967,0.6631938815116882,-9.27734375,1.9989013671875,-5.43212890625
13.2499999,-9.823410034179688,-0.27054479718208313,1.1468225717544556,-20.050048828125,9.552001953125,-0.9765625
13.2699999,-9.854534149169922,-0.07661445438861847,1.556231141090393,-30.9600830078125,19.0887451171875,0.152587890625
13.289999900000002,-9.765948295593262,-0.040701430290937424,1.6519991159439087,-34.332275390625,20.6451416015625,2.13623046875
13.309999900000001,-9.84495735168457,-0.15562310814857483,1.357512354850769,-27.130126953125,15.899658203125,-0.4425048828125
13.3299999,-9.907206535339355,-0.37828385829925537,0.7589619159698486,-6.195068359375,8.5906982421875,-2.5482177734375
13.3499999,-10.079588890075684,-0.5985504388809204,-0.009576806798577309,9.7808837890625,1.3427734375,0.2288818359375
13.3699999,-10.101137161254883,-0.6631938815116882,-0.5410895943641663,10.467529296875,-6.927490234375,-4.8675537109375
13.389999900000001,-10.177751541137695,-0.7158663272857666,-0.7565677165985107,9.3841552734375,-9.27734375,-10.0555419921875
13.4099999,-10.146626472473145,-0.6823474764823914,-0.5650315880775452,13.824462890625,-8.270263671875,-9.124755859375
13.4299999,-10.02691650390625,-0.7829039692878723,-0.22505496442317963,15.9759521484375,-5.5084228515625,-4.638671875
13.4499999,-10.000580787658691,-0.7661445140838623,0.3878606855869293,14.6636962890625,-2.86865234375,1.4190673828125
13.469999900000001,-9.907206535339355,-0.727837324142456,0.8475474119186401,0.823974609375,0.7476806640625,6.744384765625
13.4899999,-9.825803756713867,-0.6153098344802856,1.2258312702178955,-10.1470947265625,4.119873046875,1.861572265625
13.5099999,-9.835380554199219,-0.4668693244457245,1.357512354850769,-10.2691650390625,4.0283203125,-1.15966796875
13.5299999,-9.907206535339355,-0.45489832758903503,1.1204863786697388,-7.38525390625,3.0059814453125,-0.946044921875
13.549999900000001,-9.950302124023438,-0.4118026793003082,0.8307880163192749,-2.532958984375,-0.762939453125,-1.28173828125
13.569999900000001,-10.022128105163574,-0.4908113479614258,0.44532153010368347,-1.2969970703125,-1.007080078125,-5.2490234375
13.5899999,-10.050858497619629,-0.6057330369949341,0.22026655077934265,3.7841796875,-1.0833740234375,-6.40869140625
13.6099999,-9.950302124023438,-0.7158663272857666,0.12928688526153564,7.1563720703125,-0.7171630859375,-0.6866455078125
13.629999900000001,-9.99339771270752,-0.7733271718025208,0.16998831927776337,6.1492919921875,0.030517578125,4.638671875
13.649999900000001,-9.95748519897461,-0.7972691655158997,0.2825157940387726,5.706787109375,-3.0364990234375,4.5318603515625
13.6699999,-9.955090522766113,-0.7110779285430908,0.40940847992897034,7.7056884765625,-6.89697265625,1.5411376953125
13.6899999,-10.005369186401367,-0.6105214357376099,0.4836287498474121,7.50732421875,-7.75146484375,0.1983642578125
13.709999900000001,-10.031704902648926,-0.5003881454467773,0.5674257874488831,4.6234130859375,-6.89697265625,-1.007080078125
13.729999900000001,-9.995792388916016,-0.42856210470199585,0.6751648783683777,1.8310546875,-7.0037841796875,-4.0130615234375
13.7499999,-9.962273597717285,-0.4118026793003082,0.8068459630012512,-3.2958984375,-1.953125,-5.6915283203125
13.7699999,-9.888052940368652,-0.5410895943641663,0.9313444495201111,-4.82177734375,3.0670166015625,-2.7923583984375
13.789999900000002,-9.849745750427246,-0.6751648783683777,0.950498104095459,-0.5035400390625,3.753662109375,2.2125244140625
13.809999900000001,-9.871294021606445,-0.8427590131759644,0.8331822156906128,6.28662109375,1.6937255859375,7.14111328125
13.8299999,-9.93593692779541,-0.811634361743927,0.6919242739677429,11.1236572265625,-2.655029296875,5.18798828125
13.8499999,-10.002974510192871,-0.6320692300796509,0.6200982332229614,10.406494140625,-5.92041015625,1.64794921875
13.8699999,-10.034099578857422,-0.33039984107017517,0.6248866319656372,-5.06591796875,-3.90625,-2.86865234375
13.889999900000001,-10.014945983886719,-0.038307227194309235,0.7398083209991455,-17.1661376953125,0.457763671875,-6.866455078125
13.9099999,-9.916783332824707,0.016759412363171577,0.8667010068893433,-16.0369873046875,-1.0528564453125,-12.054443359375
13.9299999,-9.854534149169922,-0.2346317619085312,0.9528923034667969,-10.1165771484375,2.0904541015625,-11.871337890625
13.9499999,-9.804255485534668,-0.7613561153411865,0.8307880163192749,-1.007080078125,6.8511962890625,-0.457763671875
13.969999900000001,-9.84495735168457,-1.2090718746185303,0.7733271718025208,14.22119140625,3.5552978515625,5.126953125
13.9899999,-9.890447616577148,-1.5729905366897583,0.5291185975074768,22.6593017578125,-0.946044921875,10.2081298828125
14.0099999,-9.95748519897461,-1.3910311460494995,0.47884035110473633,20.050048828125,-4.1656494140625,11.566162109375
14.0299999,-10.014945983886719,-1.0319008827209473,0.43335050344467163,3.90625,-1.46484375,6.6680908203125
14.049999900000001,-9.976638793945312,-0.2585737705230713,0.689530074596405,-14.9383544921875,-4.1046142578125,1.4495849609375
14.069999900000001,-10.002974510192871,0.3280056416988373,0.8882488012313843,-39.2913818359375,0.946044921875,-4.7760009765625
14.0899999,-9.9000244140625,0.6272808313369751,1.192312479019165,-51.4678955078125,4.3182373046875,-14.1448974609375
14.1099999,-9.84256362915039,0.4381389021873474,1.3192051649093628,-39.55078125,7.598876953125,-17.3797607421875
14.129999900000001,-9.797073364257812,-0.33518823981285095,1.3024457693099976,-16.357421875,13.24462890625,-9.1094970703125
14.149999900000001,-9.818621635437012,-1.0606313943862915,1.113303780555725,4.8980712890625,12.664794921875,0.3814697265625
14.1699999,-9.859322547912598,-1.6304513216018677,0.9097966551780701,8.1329345703125,11.474609375,8.2550048828125
14.1899999,-9.99339771270752,-1.7070658206939697,0.5123591423034668,3.96728515625,8.3465576171875,7.99560546875
14.209999900000001,-10.077195167541504,-1.3742717504501343,0.13407529890537262,7.6751708984375,2.6702880859375,0.518798828125
14.229999900000001,-10.20648193359375,-0.9050082564353943,-0.23942017555236816,13.6260986328125,-4.8675537109375,-5.218505859375
14.2499999,-10.259154319763184,-0.45010992884635925,-0.43095630407333374,10.4522705078125,-12.63427734375,-4.913330078125
14.2699999,-10.247182846069336,-0.2849099934101105,-0.3471592366695404,-0.091552734375,-12.1002197265625,-6.5460205078125
14.289999900000002,-10.216058731079102,-0.37828385829925537,-0.06703764945268631,-4.058837890625,-7.26318359375,-6.683349609375
14.309999900000001,-10.08198356628418,-0.8523358106613159,0.2059013396501541,4.6234130859375,-10.55908203125,-0.67138671875
14.3299999,-9.99339771270752,-1.2832920551300049,0.507570743560791,22.8424072265625,-10.406494140625,5.79833984375
14.3499999,-9.854534149169922,-1.5538369417190552,0.7996633648872375,33.966064453125,-8.026123046875,12.542724609375
14.3699999,-9.840168952941895,-1.3623007535934448,1.1851298809051514,21.453857421875,-1.5716552734375,15.9912109375
14.389999900000001,-9.737217903137207,-0.9145850539207458,1.5634137392044067,3.265380859375,4.7149658203125,10.498046875
14.4099999,-9.758766174316406,-0.3423708379268646,1.766920804977417,-6.439208984375,9.979248046875,4.3487548828125
14.4299999,-9.773131370544434,0.043095629662275314,1.6687586307525635,-5.584716796875,8.97216796875,-0.2899169921875
14.4499999,-9.80904483795166,0.15801730751991272,1.359906554222107,1.03759765625,5.7220458984375,-4.5166015625
14.469999900000001,-10.06043529510498,0.0694318488240242,0.9481038451194763,6.744384765625,5.5084228515625,-4.57763671875
14.4899999,-10.690110206604004,-0.16519992053508759,0.569819986820221,9.94873046875,5.1422119140625,-6.7138671875
14.5099999,-11.274295806884766,-0.5123591423034668,0.23702596127986908,13.458251953125,-1.28173828125,-10.80322265625
14.5299999,-12.12902545928955,-0.7948749661445618,-0.05027823522686958,19.7601318359375,-4.669189453125,-6.65283203125
14.549999900000001,-12.480973243713379,-0.9385270476341248,-0.23702596127986908,29.1748046875,-11.7645263671875,-15.106201171875
14.569999900000001,-12.51449203491211,-0.8259995579719543,-0.33279404044151306,33.87451171875,-11.3372802734375,-25.4364013671875
14.5899999,-12.023680686950684,-0.4884171485900879,-0.24899697303771973,34.11865234375,-11.23046875,-39.2608642578125
14.6099999,-11.17852783203125,-0.009576806798577309,0.028730420395731926,33.7371826171875,-3.4332275390625,-48.5076904296875
14.629999900000001,-10.244789123535156,0.43095630407333374,0.42616790533065796,27.2064208984375,16.1590576171875,-51.8035888671875
14.649999900000001,-9.418789863586426,0.727837324142456,0.8355764150619507,19.0582275390625,30.4718017578125,-49.5147705078125
14.6699999,-8.949525833129883,0.849941611289978,1.1803414821624756,14.190673828125,28.1219482421875,-42.1600341796875
14.6899999,-8.899248123168945,0.790086567401886,1.3431471586227417,14.5416259765625,22.9644775390625,-42.1142578125
14.709999900000001,-9.457097053527832,0.2106897532939911,1.213860273361206,31.585693359375,14.068603515625,-63.6138916015625
14.729999900000001,-9.749189376831055,-0.21547815203666687,1.036689281463623,45.1812744140625,8.11767578125,-70.9228515625
14.7499999,-9.9000244140625,-0.6440402865409851,0.8619126081466675,59.600830078125,3.021240234375,-76.202392578125
14.7699999,-9.890447616577148,-1.015141487121582,0.7493851184844971,72.296142578125,-4.3182373046875,-80.3680419921875
14.789999900000002,-9.765948295593262,-1.2880805730819702,0.7254431247711182,80.322265625,-9.613037109375,-83.0535888671875
14.809999900000001,-9.569623947143555,-1.4413094520568848,0.8140285611152649,83.8623046875,-8.4686279296875,-86.36474609375
14.8299999,-9.334992408752441,-1.5442601442337036,0.9888052940368652,84.686279296875,-4.5623779296875,-92.8192138671875
14.8499999,-9.107542991638184,-1.6352397203445435,1.1971008777618408,84.28955078125,-1.6326904296875,-98.2818603515625
14.8699999,-8.868123054504395,-1.766920804977417,1.3694833517074585,84.0301513671875,0.9002685546875,-99.822998046875
14.889999900000001,-8.592789649963379,-2.006340980529785,1.4939818382263184,84.65576171875,-1.52587890625,-100.494384765625
14.9099999,-8.288725852966309,-2.3104045391082764,1.580173134803772,84.8236083984375,-3.8604736328125,-98.1903076171875
14.9299999,-7.943961143493652,-2.698265314102173,1.6208745241165161,84.28955078125,2.838134765625,-94.1009521484375
14.9499999,-7.630321025848389,-3.1220390796661377,1.678335428237915,84.6710205078125,6.9732666015625,-90.4693603515625
14.969999900000001,-7.395689010620117,-3.5266590118408203,1.7166426181793213,84.65576171875,4.0283203125,-86.334228515625
14.9899999,-7.261613845825195,-3.864241600036621,1.7812861204147339,83.0078125,-2.5634765625,-89.5233154296875
15.0099999,-7.230489253997803,-4.141968727111816,1.8746598958969116,77.1026611328125,-4.08935546875,-100.830078125
15.0299999,-7.237671852111816,-4.3622355461120605,2.0231003761291504,70.61767578125,-5.126953125,-108.6883544921875
15.049999900000001,-7.201758861541748,-4.558559894561768,2.1978771686553955,63.41552734375,-11.7034912109375,-109.649658203125
15.069999900000001,-7.010222434997559,-4.786009311676025,2.406172752380371,53.7567138671875,-13.824462890625,-112.9150390625
15.0899999,-6.643909931182861,-5.109226226806641,2.6240451335906982,42.48046875,-3.3416748046875,-117.7825927734375
15.1099999,-6.141127586364746,-5.535394191741943,2.801215887069702,33.9508056640625,8.941650390625,-112.2283935546875
15.129999900000001,-5.621585369110107,-6.042964935302734,2.935291290283203,28.0303955078125,7.568359375,-96.405029296875
15.149999900000001,-5.193023681640625,-6.57926607131958,2.9688100814819336,21.820068359375,1.6937255859375,-82.6873779296875
15.1699999,-4.924872875213623,-7.067683219909668,2.9688100814819336,15.31982421875,-1.8157958984375,-72.9522705078125
15.1899999,-4.778826713562012,-7.4555439949035645,2.9664158821105957,8.7890625,-2.9296875,-61.8133544921875
15.209999900000001,-4.716577529907227,-7.752425193786621,3.0119056701660156,1.3885498046875,-3.8604736328125,-52.276611328125
15.229999900000001,-4.675876140594482,-7.967903137207031,3.069366693496704,-5.218505859375,-3.11279296875,-50.048828125
15.2499999,-4.649539470672607,-8.14028549194336,3.095702886581421,-7.01904296875,-4.8980712890625,-50.140380859375
15.2699999,-4.618414878845215,-8.274360656738281,3.0765492916107178,-4.364013671875,-14.0380859375,-45.2728271484375
15.289999900000002,-4.553771495819092,-8.379706382751465,3.043030261993408,-1.3427734375,-23.3917236328125,-40.2984619140625
15.309999900000001,-4.479551315307617,-8.489839553833008,3.0382418632507324,0.8697509765625,-22.3541259765625,-43.8690185546875
15.3299999,-4.405331134796143,-8.609549522399902,3.0573954582214355,4.0283203125,-18.768310546875,-50.35400390625
15.3499999,-4.3622355461120605,-8.78193187713623,3.1100680828094482,10.1470947265625,-29.2816162109375,-49.2401123046875
15.3699999,-4.3406877517700195,-8.968679428100586,3.203441858291626,14.434814453125,-46.8902587890625,-42.6788330078125
15.389999900000001,-4.2760443687438965,-9.124302864074707,3.3063924312591553,11.7645263671875,-48.828125,-43.5028076171875
15.4099999,-4.151545524597168,-9.208099365234375,3.466804027557373,5.645751953125,-40.95458984375,-50.048828125
15.4299999,-3.9671921730041504,-9.227252960205078,3.622427225112915,-0.79345703125,-34.1949462890625,-53.2379150390625
15.4499999,-3.734954595565796,-9.210494041442871,3.7493197917938232,-5.9661865234375,-30.6854248046875,-53.131103515625
15.469999900000001,-3.533841609954834,-9.248801231384277,3.8139634132385254,-9.09423828125,-22.735595703125,-52.764892578125
15.4899999,-3.3063924312591553,-9.277531623840332,3.8163576126098633,-7.232666015625,-15.0909423828125,-49.530029296875
15.5099999,-3.1244332790374756,-9.363722801208496,3.794809579849243,-1.5106201171875,-14.6942138671875,-41.9769287109375
15.5299999,-2.9951462745666504,-9.421183586120605,3.7924153804779053,5.2947998046875,-17.5933837890625,-32.04345703125
15.549999900000001,-2.9759926795959473,-9.445125579833984,3.8283286094665527,7.2021484375,-13.580322265625,-30.4107666015625
15.569999900000001,-3.050212860107422,-9.418789863586426,3.9025487899780273,6.2255859375,-6.072998046875,-35.46142578125
15.5899999,-3.1938650608062744,-9.330204010009766,4.019864559173584,6.3629150390625,-5.6610107421875,-34.9273681640625
15.6099999,-3.354276657104492,-9.196128845214844,4.1180267333984375,4.5928955078125,-4.241943359375,-30.2886962890625
15.629999900000001,-3.4596214294433594,-9.050082206726074,4.165910720825195,0.244140625,4.7760009765625,-34.0423583984375
15.649999900000001,-3.471592426300049,-8.892065048217773,4.175487995147705,-0.7781982421875,11.65771484375,-41.717529296875
15.6699999,-3.4332852363586426,-8.7484130859375,4.07014274597168,2.0294189453125,12.8173828125,-41.259765625
15.6899999,-3.313575267791748,-8.647856712341309,3.950432777404785,5.706787109375,5.5999755859375,-35.6903076171875
15.709999900000001,-3.1507694721221924,-8.628703117370605,3.845088005065918,6.77490234375,-0.396728515625,-34.8358154296875
15.729999900000001,-2.911349296569824,-8.69095230102539,3.847482204437256,7.568359375,-2.0599365234375,-34.820556640625
15.7499999,-2.650381326675415,-8.83699893951416,4.022258758544922,6.622314453125,0.091552734375,-29.6783447265625
15.7699999,-2.4588451385498047,-9.028534889221191,4.240131378173828,1.9073486328125,11.505126953125,-28.7628173828125
15.789999900000002,-2.367865562438965,-9.26795482635498,4.441244125366211,1.190185546875,15.4266357421875,-37.017822265625
15.809999900000001,-2.382230758666992,-9.509769439697266,4.570530891418457,7.2479248046875,2.4566650390625,-38.1622314453125
15.8299999,-2.389413356781006,-9.655815124511719,4.632780075073242,11.7340087890625,-9.7198486328125,-28.472900390625
15.8499999,-2.3247697353363037,-9.708487510681152,4.7189717292785645,6.6680908203125,-6.0272216796875,-24.3377685546875
15.869999900000002,-2.2577321529388428,-9.634267807006836,4.831499099731445,-0.3814697265625,2.0599365234375,-25.970458984375
15.889999900000001,-2.212242364883423,-9.48343276977539,4.920084476470947,-1.007080078125,-4.4708251953125,-23.9410400390625
15.9099999,-2.1571757793426514,-9.311050415039062,4.944026470184326,0.5340576171875,-17.5628662109375,-20.3857421875
15.9299999,-2.0661959648132324,-9.186552047729492,4.8482584953308105,-4.2724609375,-15.411376953125,-19.1192626953125
15.9499999,-1.920149803161621,-9.102754592895508,4.67827033996582,-9.674072265625,-6.0272216796875,-16.7388916015625
15.969999900000001,-1.8052281141281128,-9.083600997924805,4.405331134796143,-12.2528076171875,-0.8087158203125,-13.1988525390625
15.9899999,-1.7573440074920654,-9.136273384094238,4.005499362945557,-9.5977783203125,3.4637451171875,-16.66259765625
16.0099999,-1.6759412288665771,-9.215282440185547,3.579331636428833,-3.90625,1.861572265625,-22.8118896484375
16.0299999,-1.5514427423477173,-9.308655738830566,3.155557870864868,-2.685546875,8.1634521484375,-22.4151611328125
16.0499999,-1.3886369466781616,-9.399636268615723,2.7772738933563232,-2.6397705078125,22.9949951171875,-19.287109375
16.0699999,-1.2282254695892334,-9.490615844726562,2.497152328491211,2.9754638671875,25.726318359375,-19.287109375
16.089999900000002,-1.0749965906143188,-9.552865028381348,2.3295583724975586,9.368896484375,14.6026611328125,-19.439697265625
16.109999900000002,-0.8858546018600464,-9.564835548400879,2.3032219409942627,9.8724365234375,9.490966796875,-14.5263671875
16.1299999,-0.689530074596405,-9.516951560974121,2.4229321479797363,5.2642822265625,18.7530517578125,-8.1939697265625
16.1499999,-0.5434837937355042,-9.402029991149902,2.6623523235321045,2.5177001953125,26.336669921875,-7.3394775390625
16.1699999,-0.5219359993934631,-9.253589630126953,2.9065608978271484,2.4566650390625,21.42333984375,-12.725830078125
16.1899999,-0.5889736413955688,-9.124302864074707,3.179499864578247,1.5106201171875,8.8653564453125,-14.068603515625
16.2099999,-0.7134721279144287,-8.999804496765137,3.44765043258667,-1.9683837890625,7.0037841796875,-6.866455078125
16.2299999,-0.849941611289978,-8.942343711853027,3.7277719974517822,-4.33349609375,11.322021484375,-3.4332275390625
16.249999900000002,-1.0007762908935547,-8.944737434387207,4.050989151000977,-3.8604736328125,1.5411376953125,-4.913330078125
16.269999900000002,-1.1540051698684692,-8.968679428100586,4.369418144226074,-6.9732666015625,-8.819580078125,-3.631591796875
16.2899999,-1.5873557329177856,-9.035717010498047,4.58968448638916,-13.2904052734375,-1.434326171875,-5.7830810546875
16.3099999,-1.625662922859192,-9.045293807983398,4.6950297355651855,-9.765625,-4.5623779296875,-10.3759765625
16.3299999,-1.920149803161621,-9.10993766784668,4.632780075073242,-5.5389404296875,-11.16943359375,-5.5999755859375
16.3499999,-1.867477297782898,-9.148244857788086,4.4077253341674805,-5.706787109375,-8.85009765625,-7.14111328125
16.3699999,-1.7621324062347412,-9.260771751403809,4.146757125854492,-2.0294189453125,-8.2550048828125,-6.683349609375
16.3899999,-1.5897499322891235,-9.409213066101074,3.907337188720703,1.220703125,-7.568359375,-3.570556640625
16.4099999,-1.482010841369629,-9.560047149658203,3.7421371936798096,5.523681640625,-8.11767578125,-2.01416015625
16.429999900000002,-1.4053963422775269,-9.624691009521484,3.7397429943084717,8.5906982421875,-13.3514404296875,-3.387451171875
16.4499999,-1.3407529592514038,-9.63187313079834,3.7924153804779053,3.2806396484375,-10.955810546875,-14.1448974609375
16.4699999,-1.2473790645599365,-9.59835433959961,3.8331170082092285,-0.5645751953125,1.5106201171875,-22.6898193359375
16.4899999,-1.01753568649292,-9.533711433410645,3.8331170082092285,4.425048828125,1.03759765625,-17.059326171875
16.5099999,-0.7996633648872375,-9.442731857299805,3.7014358043670654,8.3160400390625,-1.52587890625,-8.0108642578125
16.5299999,-0.5171475410461426,-9.287108421325684,3.6176388263702393,9.6588134765625,-5.889892578125,0.3509521484375
16.5499999,-0.4572925269603729,-9.047688484191895,3.60566782951355,8.026123046875,-6.4544677734375,6.4849853515625
16.5699999,-0.31603461503982544,-8.815450668334961,3.706224203109741,4.1656494140625,-7.0648193359375,-1.0223388671875
16.589999900000002,-0.4620809257030487,-8.71728801727295,3.825934410095215,2.166748046875,-4.364013671875,-0.67138671875
16.609999900000002,-0.4692635238170624,-8.767566680908203,3.950432777404785,3.9215087890625,-7.080078125,-1.251220703125
16.6299999,-0.6392518281936646,-8.939949035644531,3.998316764831543,4.913330078125,-6.34765625,0.4119873046875
16.6499999,-0.7422025203704834,-9.119514465332031,4.003105163574219,4.2724609375,-4.7760009765625,2.7923583984375
16.6699999,-0.811634361743927,-9.222464561462402,3.971980571746826,4.21142578125,-5.31005859375,0.18310546875
16.6899999,-0.8475474119186401,-9.23682975769043,3.952826976776123,4.94384765625,-5.950927734375,-1.007080078125
16.7099999,-0.8690952062606812,-9.174580574035645,3.9671921730041504,2.99072265625,-5.5389404296875,0.1068115234375
16.7299999,-0.871489405632019,-9.069235801696777,3.995922565460205,-0.18310546875,-3.9825439453125,-1.5716552734375
16.749999900000002,-0.8786720037460327,-8.956708908081055,4.02465295791626,-0.0152587890625,-3.997802734375,-1.9989013671875
16.769999900000002,-0.7158663272857666,-8.858546257019043,4.072536945343018,1.4190673828125,-4.425048828125,-3.4027099609375
16.7899999,-0.6177040338516235,-8.851364135742188,4.180276393890381,-1.556396484375,-1.739501953125,2.166748046875
16.8099999,-0.3902548849582672,-8.96149730682373,4.24970817565918,-10.040283203125,3.35693359375,0
16.8299999,-0.3232172429561615,-9.138668060302734,4.2329487800598145,-10.7574462890625,3.2196044921875,-6.2713623046875
16.8499999,-0.3687070608139038,-9.373299598693848,4.062960147857666,-2.227783203125,0.9765625,-1.678466796875
16.8699999,-0.48602294921875,-9.461885452270508,3.77565598487854,4.2572021484375,-1.7242431640625,4.39453125
16.8899999,-0.6631938815116882,-9.550470352172852,3.445256233215332,10.3759765625,-5.126953125,4.2266845703125
16.9099999,-0.7541735172271729,-9.495404243469238,3.31118106842041,23.25439453125,-10.19287109375,4.638671875
16.929999900000002,-0.790086567401886,-9.349357604980469,3.464409828186035,31.341552734375,-12.542724609375,4.69970703125
16.9499999,-0.727837324142456,-9.141061782836914,3.797203779220581,23.3306884765625,-9.124755859375,1.5411376953125
16.9699999,-0.6536170840263367,-8.89685344696045,4.259284973144531,10.1470947265625,-4.4403076171875,-2.349853515625
16.9899999,-0.5386953949928284,-8.724471092224121,4.666299343109131,2.4871826171875,-0.1220703125,-3.509521484375
17.0099999,-0.5123591423034668,-8.676587104797363,4.850652694702148,-4.4708251953125,3.814697265625,-1.46484375
17.0299999,-0.507570743560791,-8.736441612243652,4.752490520477295,-10.92529296875,5.67626953125,1.15966796875
17.0499999,-0.5554547905921936,-8.868123054504395,4.51067590713501,-9.1400146484375,2.166748046875,4.913330078125
17.0699999,-0.6416460275650024,-8.944737434387207,4.242525577545166,-3.0364990234375,-1.5869140625,5.615234375
17.089999900000002,-0.7038952708244324,-9.033323287963867,4.084507942199707,-3.082275390625,-3.265380859375,5.767822265625
17.109999900000002,-0.7134721279144287,-9.083600997924805,3.995922565460205,-6.6070556640625,-3.5247802734375,1.0986328125
17.1299999,-0.7350199222564697,-9.078812599182129,3.995922565460205,-3.997802734375,-2.5787353515625,-2.2430419921875
17.1499999,-0.6655880808830261,-9.100360870361328,3.957615375518799,1.2969970703125,-1.220703125,-1.708984375
17.1699999,-0.6727706789970398,-9.028534889221191,3.9193081855773926,-0.244140625,-0.4730224609375,0.2899169921875
17.1899999,-0.689530074596405,-8.971074104309082,3.8738183975219727,-3.692626953125,-2.2735595703125,1.8463134765625
17.2099999,-0.7110779285430908,-8.899248123168945,3.9384617805480957,-2.777099609375,-5.7830810546875,3.0975341796875
17.2299999,-0.7206547260284424,-8.875306129455566,4.0749311447143555,-5.5084228515625,-6.7596435546875,2.0751953125
17.249999900000002,-0.6943184733390808,-8.901641845703125,4.216189384460449,-15.350341796875,-5.06591796875,-3.509521484375
17.269999900000002,-0.6177040338516235,-9.004592895507812,4.304774761199951,-21.97265625,-1.800537109375,-4.4708251953125
17.2899999,-0.5650315880775452,-9.105149269104004,4.23773717880249,-19.7601318359375,0.5035400390625,-0.7171630859375
17.3099999,-0.5506663918495178,-9.208099365234375,3.9887399673461914,-13.885498046875,0.8697509765625,2.1820068359375
17.3299999,-0.6248866319656372,-9.222464561462402,3.7708675861358643,-8.697509765625,-2.410888671875,5.035400390625
17.3499999,-0.6512228846549988,-9.222464561462402,3.711012601852417,-7.6751708984375,-6.7901611328125,6.2408447265625
17.3699999,-0.6847416758537292,-9.198522567749023,3.823540210723877,-11.23046875,-4.7607421875,4.2877197265625
17.3899999,-0.6536170840263367,-9.220070838928223,4.003105163574219,-14.6026611328125,0.48828125,0.48828125
17.409999900000003,-0.5578489899635315,-9.277531623840332,4.094084739685059,-14.312744140625,3.41796875,-0.701904296875
17.429999900000002,-0.5386953949928284,-9.308655738830566,4.019864559173584,-13.0615234375,4.4403076171875,2.3193359375
17.4499999,-0.5746083855628967,-9.318233489990234,3.797203779220581,-11.6119384765625,5.2337646484375,5.2947998046875
17.4699999,-0.6871358752250671,-9.246406555175781,3.552995204925537,-8.2855224609375,2.197265625,8.453369140625
17.4899999,-0.7757213711738586,-9.272743225097656,3.3279404640197754,-4.058837890625,-4.852294921875,3.4027099609375
17.5099999,-0.8619126081466675,-9.294290542602539,3.205836057662964,1.8157958984375,-8.819580078125,-1.0986328125
17.5299999,-0.7996633648872375,-9.390059471130371,3.1938650608062744,7.568359375,-3.5552978515625,0.152587890625
17.5499999,-0.7445967197418213,-9.473855972290039,3.2800562381744385,10.92529296875,-2.655029296875,-0.335693359375
17.5699999,-0.6727706789970398,-9.411606788635254,3.426102638244629,9.27734375,-2.044677734375,0.946044921875
17.589999900000002,-0.6751648783683777,-9.23443603515625,3.598485231399536,4.39453125,0.701904296875,5.8441162109375
17.609999900000002,-0.7086837291717529,-9.090784072875977,3.773261785507202,-1.15966796875,-2.716064453125,6.103515625
17.6299999,-0.7254431247711182,-8.96149730682373,3.914519786834717,-5.31005859375,-5.4473876953125,-0.9307861328125
17.6499999,-0.6943184733390808,-8.995016098022461,4.02465295791626,-5.7220458984375,-2.6092529296875,-4.1351318359375
17.6699999,-0.6416460275650024,-8.992621421813965,4.125209331512451,-7.843017578125,4.547119140625,-1.8768310546875
17.6899999,-0.5530605912208557,-9.033323287963867,4.151545524597168,-15.960693359375,7.720947265625,-0.9002685546875
17.7099999,-0.6033388376235962,-9.064447402954102,3.9863457679748535,-21.3775634765625,10.833740234375,-1.190185546875
17.7299999,-0.6584054827690125,-9.129091262817383,3.801992416381836,-14.3280029296875,6.4239501953125,4.8675537109375
17.749999900000002,-0.730231523513794,-9.282320022583008,3.5266590118408203,-9.9639892578125,3.3416748046875,7.0343017578125
17.769999900000002,-0.8355764150619507,-9.437943458557129,3.313575267791748,-12.5579833984375,0.5035400390625,0.9613037109375
17.7899999,-0.7182605266571045,-9.493009567260742,3.292027235031128,-12.4664306640625,0.8544921875,-0.91552734375
17.8099999,-0.7493851184844971,-9.488221168518066,3.3303346633911133,-16.3421630859375,8.2550048828125,3.11279296875
17.8299999,-0.6129156351089478,-9.346963882446289,3.4093432426452637,-26.3214111328125,11.9476318359375,0.18310546875
17.8499999,-0.727837324142456,-9.241618156433105,3.318363666534424,-28.6407470703125,9.674072265625,1.556396484375
17.8699999,-0.7781155705451965,-9.14345645904541,3.155557870864868,-22.8729248046875,5.4473876953125,5.2032470703125
17.8899999,-0.9888052940368652,-9.30386734008789,2.738966703414917,-14.1448974609375,-0.518798828125,3.082275390625
17.909999900000003,-1.015141487121582,-9.545681953430176,2.4851813316345215,0.823974609375,-6.622314453125,-0.274658203125
17.929999900000002,-1.015141487121582,-9.828198432922363,2.276885747909546,15.045166015625,-7.4310302734375,0.5340576171875
17.9499999,-0.9050082564353943,-9.86650562286377,2.43011474609375,15.9759521484375,-5.18798828125,3.173828125
17.9699999,-0.8451532125473022,-9.66299819946289,2.719813108444214,0.18310546875,2.7923583984375,4.0435791015625
17.9899999,-0.7565677165985107,-9.275136947631836,3.1292216777801514,-16.143798828125,2.685546875,-2.01416015625
18.0099999,-0.8475474119186401,-9.009381294250488,3.3638534545898438,-17.8680419921875,1.2664794921875,-0.2593994140625
18.0299999,-0.8403648138046265,-9.002198219299316,3.4739866256713867,-15.8233642578125,0.1068115234375,3.4637451171875
18.0499999,-0.9193734526634216,-9.279925346374512,3.270479440689087,-16.2353515625,-0.823974609375,0.946044921875
18.0699999,-0.8236053586006165,-9.653421401977539,3.1220390796661377,-9.7808837890625,-2.8533935546875,0.885009765625
18.089999900000002,-0.7661445140838623,-9.821015357971191,2.9975404739379883,-3.173828125,-1.8768310546875,3.8299560546875
18.109999900000002,-0.7757213711738586,-9.837775230407715,2.8610711097717285,-11.0626220703125,7.781982421875,5.8441162109375
18.1299999,-0.8044517636299133,-9.636661529541016,2.7772738933563232,-14.4805908203125,4.1046142578125,-0.3662109375
18.1499999,-0.9648633003234863,-9.469067573547363,2.5689783096313477,-8.056640625,0.91552734375,3.326416015625
18.1699999,-1.0654197931289673,-9.404424667358398,2.408566951751709,2.0294189453125,-5.645751953125,4.241943359375
18.1899999,-1.0797849893569946,-9.531316757202148,2.2697031497955322,12.451171875,-8.11767578125,0.5340576171875
18.2099999,-1.1109095811843872,-9.749189376831055,2.2673089504241943,25.2838134765625,-9.4451904296875,-2.86865234375
18.2299999,-0.9744400978088379,-9.911994934082031,2.387019157409668,33.111572265625,-8.4228515625,-3.2501220703125
18.249999900000002,-0.950498104095459,-9.974244117736816,2.557007312774658,34.6832275390625,-6.500244140625,0.67138671875
18.269999900000002,-0.811634361743927,-9.785101890563965,2.9257144927978516,31.4483642578125,-2.74658203125,1.983642578125
18.2899999,-0.706289529800415,-9.442731857299805,3.2800562381744385,24.3988037109375,-2.5787353515625,-0.091552734375
18.3099999,-0.7350199222564697,-9.05247688293457,3.6607344150543213,13.671875,1.0528564453125,1.800537109375
18.3299999,-0.7565677165985107,-8.791508674621582,3.93367338180542,-0.48828125,0.54931640625,-1.434326171875
18.3499999,-0.8451532125473022,-8.753201484680176,3.9432501792907715,-9.4146728515625,1.8768310546875,-7.75146484375
18.3699999,-0.8475474119186401,-8.918401718139648,3.8331170082092285,-6.927490234375,2.0294189453125,-7.7972412109375
18.3899999,-0.8762778043746948,-9.205705642700195,3.469198226928711,-3.8909912109375,2.166748046875,-5.43212890625
18.409999900000003,-0.849941611289978,-9.502586364746094,3.0861260890960693,-2.38037109375,3.387451171875,-0.1220703125
18.429999900000002,-0.9097966551780701,-9.68933391571045,2.6455929279327393,13.8092041015625,-4.547119140625,4.82177734375
18.4499999,-0.9528923034667969,-9.639056205749512,2.760514497756958,11.1236572265625,-7.232666015625,6.2103271484375
18.4699999,-0.8978256583213806,-9.445125579833984,3.138798475265503,2.44140625,-5.645751953125,1.2664794921875
18.4899999,-0.7876923680305481,-9.30386734008789,3.6104562282562256,-9.429931640625,-0.7171630859375,-1.7547607421875
18.5099999,-0.7015010714530945,-9.05247688293457,4.02465295791626,-26.42822265625,6.6070556640625,-3.4637451171875
18.5299999,-0.6631938815116882,-8.983044624328613,4.094084739685059,-42.2515869140625,13.092041015625,0.244140625
18.5499999,-0.730231523513794,-9.05487060546875,3.778050184249878,-41.8701171875,10.1165771484375,-0.030517578125
18.5699999,-0.849941611289978,-9.313444137573242,3.0813376903533936,-20.9503173828125,3.6773681640625,5.7830810546875
18.589999900000002,-1.0414776802062988,-9.682151794433594,2.3965959548950195,6.5765380859375,-8.7127685546875,8.148193359375
18.609999900000002,-1.048660397529602,-9.950302124023438,2.0159177780151367,21.1639404296875,-14.251708984375,4.21142578125
18.6299999,-1.072602391242981,-10.038887977600098,2.0901381969451904,22.27783203125,-11.4593505859375,0.54931640625
18.6499999,-0.8978256583213806,-9.770736694335938,2.5785553455352783,16.754150390625,-3.143310546875,-0.9918212890625
18.6699999,-0.8164227604866028,-9.545681953430176,3.1531636714935303,4.791259765625,4.9896240234375,1.4495849609375
18.6899999,-0.730231523513794,-9.11233139038086,3.581725835800171,-6.8511962890625,6.1798095703125,-2.5177001953125
18.7099999,-0.7805097699165344,-8.901641845703125,3.7253777980804443,-13.2293701171875,6.8359375,2.6397705078125
18.7299999,-0.871489405632019,-8.908824920654297,3.6343982219696045,-14.09912109375,1.3275146484375,2.471923828125
18.749999900000002,-0.9696516990661621,-9.057265281677246,3.3638534545898438,-10.589599609375,-2.105712890625,-2.3956298828125
18.769999900000002,-0.9840168952941895,-9.387664794921875,3.0597896575927734,-3.082275390625,-2.01416015625,-3.9825439453125
18.7899999,-0.9528923034667969,-9.648633003234863,2.8179752826690674,7.1868896484375,0.2593994140625,-0.5340576171875
18.8099999,-0.8906430602073669,-9.840168952941895,2.6168625354766846,12.2833251953125,0.9765625,1.3427734375
18.8299999,-0.8331822156906128,-9.749189376831055,2.557007312774658,15.777587890625,-1.8768310546875,-1.220703125
18.8499999,-0.790086567401886,-9.57201862335205,2.671929121017456,15.6402587890625,-2.4566650390625,2.5177001953125
18.8699999,-0.828393816947937,-9.306262016296387,2.9688100814819336,2.960205078125,-3.387451171875,4.3182373046875
18.8899999,-0.8259995579719543,-9.131484985351562,3.335123062133789,-12.4664306640625,-1.8463134765625,-2.0751953125
18.909999900000003,-0.8571242094039917,-9.097966194152832,3.5721490383148193,-18.3258056640625,2.0904541015625,-5.279541015625
18.929999900000002,-0.8212111592292786,-9.205705642700195,3.5649664402008057,-16.66259765625,4.974365234375,-3.631591796875
18.9499999,-0.8451532125473022,-9.469067573547363,3.292027235031128,-11.7034912109375,4.3792724609375,0.6256103515625
18.9699999,-0.790086567401886,-9.660603523254395,2.8874073028564453,0.640869140625,-0.335693359375,-1.8463134765625
18.9899999,-0.8906430602073669,-9.763554573059082,2.580949544906616,16.265869140625,-3.0364990234375,2.0904541015625
19.0099999,-0.9169792532920837,-9.708487510681152,2.492363929748535,22.3846435546875,-5.7525634765625,5.9051513671875
19.0299999,-0.9744400978088379,-9.57201862335205,2.6455929279327393,17.547607421875,-8.087158203125,0.030517578125
19.0499999,-0.9888052940368652,-9.368511199951172,2.9712042808532715,9.857177734375,-5.2947998046875,-6.317138671875
19.0699999,-0.8355764150619507,-9.27034854888916,3.3518824577331543,4.2724609375,1.2664794921875,-5.3863525390625
19.089999900000002,-0.8331822156906128,-9.220070838928223,3.56017804145813,-2.5634765625,4.913330078125,-2.74658203125
19.109999900000002,-0.6871358752250671,-9.222464561462402,3.641580820083618,-11.1541748046875,5.1116943359375,-2.3345947265625
19.1299999,-0.7709329724311829,-9.284713745117188,3.4955344200134277,-13.3056640625,4.0435791015625,-0.2899169921875
19.1499999,-0.8403648138046265,-9.351752281188965,3.248931646347046,-8.270263671875,1.64794921875,6.5765380859375
19.1699999,-0.9313444495201111,-9.497797966003418,2.9759926795959473,-2.4871826171875,-3.570556640625,3.4637451171875
19.1899999,-0.9313444495201111,-9.636661529541016,2.8131868839263916,1.6937255859375,-6.6070556640625,-0.67138671875
19.2099999,-0.8619126081466675,-9.694122314453125,2.7940332889556885,2.655029296875,-3.021240234375,0.8392333984375
19.2299999,-0.8259995579719543,-9.713275909423828,2.8203697204589844,1.2664794921875,2.1514892578125,2.62451171875
19.249999900000002,-0.6919242739677429,-9.579200744628906,2.999934673309326,-0.3509521484375,1.0528564453125,1.6326904296875
19.269999900000002,-0.6823474764823914,-9.354146003723145,3.157952070236206,-7.171630859375,0.732421875,2.6092529296875
19.2899999,-0.6919242739677429,-9.210494041442871,3.3063924312591553,-17.2576904296875,2.3956298828125,8.4991455078125
19.3099999,-0.7110779285430908,-9.188945770263672,3.3423056602478027,-21.026611328125,0.7781982421875,2.62451171875
19.3299999,-0.7757213711738586,-9.327810287475586,3.24414324760437,-12.2528076171875,-0.79345703125,-1.922607421875
19.3499999,-0.8092401623725891,-9.567230224609375,2.9927520751953125,-1.8768310546875,-0.640869140625,0.457763671875
19.3699999,-0.8188169598579407,-9.703699111938477,2.784456491470337,3.875732421875,-0.1068115234375,1.7852783203125
19.3899999,-0.7829039692878723,-9.737217903137207,2.676717519760132,9.1400146484375,-0.579833984375,1.0528564453125
19.409999900000003,-0.8140285611152649,-9.57441234588623,2.6886885166168213,13.3819580078125,-0.5950927734375,-1.0223388671875
19.429999900000002,-0.8643068075180054,-9.363722801208496,2.8802247047424316,11.71875,2.4566650390625,6.2255859375
19.4499999,-1.0247182846069336,-9.136273384094238,3.0621838569641113,-0.67138671875,0.1678466796875,2.410888671875
19.4699999,-1.115697979927063,-9.0859956741333,3.2297780513763428,-9.246826171875,-3.2806396484375,-7.2784423828125
19.4899999,-1.2234370708465576,-9.141061782836914,3.2561142444610596,-6.7901611328125,0.2288818359375,-6.7138671875
19.5099999,-1.1635819673538208,-9.349357604980469,3.141192674636841,-1.1444091796875,3.875732421875,-1.52587890625
19.5299999,-1.070208191871643,-9.550470352172852,2.9712042808532715,0.4119873046875,2.288818359375,2.5787353515625
19.5499999,-0.9768342971801758,-9.643844604492188,2.851494312286377,0.701904296875,-0.4425048828125,3.326416015625
19.5699999,-0.9696516990661621,-9.607931137084961,2.9017724990844727,-0.3814697265625,-1.40380859375,8.2550048828125
19.589999900000002,-0.9528923034667969,-9.512163162231445,2.9759926795959473,-10.3302001953125,0.9307861328125,7.2784423828125
19.609999900000002,-1.015141487121582,-9.516951560974121,3.07415509223938,-15.3350830078125,0.8087158203125,1.434326171875
19.6299999,-0.9361328482627869,-9.610325813293457,3.0095114707946777,-8.8958740234375,0.0762939453125,0.8087158203125
19.6499999,-0.9241618514060974,-9.744400978088379,2.8203697204589844,3.5247802734375,0.5645751953125,2.3956298828125
19.6699999,-0.8906430602073669,-9.806650161743164,2.6216509342193604,15.44189453125,-0.18310546875,5.92041015625
19.6899999,-0.9050082564353943,-9.66539192199707,2.5258827209472656,17.8680419921875,-3.35693359375,4.8675537109375
19.7099999,-0.9911994934082031,-9.32302188873291,2.7916390895843506,9.9639892578125,-2.13623046875,5.92041015625
19.7299999,-1.0438719987869263,-8.944737434387207,3.093308687210083,-10.8642578125,1.2664794921875,2.38037109375
19.749999900000002,-1.0965443849563599,-8.762778282165527,3.49314022064209,-26.0772705078125,4.241943359375,-4.8980712890625
19.769999900000002,-1.048660397529602,-8.853757858276367,3.5266590118408203,-28.7322998046875,5.7373046875,-7.1258544921875
19.7899999,-0.9744400978088379,-9.205705642700195,3.2824504375457764,-17.5323486328125,5.2032470703125,-4.8065185546875
19.8099999,-0.9241618514060974,-9.619902610778809,2.808398485183716,-0.6866455078125,2.593994140625,2.01416015625
19.8299999,-0.8738836050033569,-9.859322547912598,2.4468741416931152,8.1787109375,-2.4871826171875,2.532958984375
19.8499999,-0.8930372595787048,-9.832986831665039,2.27209734916687,2.716064453125,-0.0457763671875,3.021240234375
19.8699999,-0.9983820915222168,-9.68694019317627,2.408566951751709,-3.4637451171875,0.0152587890625,3.2806396484375
19.8899999,-1.0199298858642578,-9.519346237182617,2.5977089405059814,-3.753662109375,0.1068115234375,-2.197265625
19.909999900000003,-1.0965443849563599,-9.47146224975586,2.765302896499634,0.0152587890625,-1.129150390625,-4.364013671875
19.929999900000002,-0.9959878921508789,-9.622296333312988,2.8107926845550537,8.7890625,-3.173828125,-7.0037841796875
19.9499999,-0.9840168952941895,-9.732429504394531,2.734178304672241,22.03369140625,-1.556396484375,-1.0986328125
19.9699999,-0.8954314589500427,-9.78989028930664,2.7317841053009033,28.80859375,-1.9989013671875,-0.18310546875
19.9899999,-0.8810662031173706,-9.730035781860352,2.7557260990142822,21.6827392578125,1.77001953125,0.2593994140625
20.0099999,-0.9911994934082031,-9.44752025604248,3.043030261993408,11.0015869140625,0,1.1444091796875
