# Time (seconds),Accel_X,Accel_Y,Accel_Z,Gyro_X,Gyro_Y,Gyro_Z
0.0099999,0.06464344263076782,-9.93354320526123,0.6967126727104187,0.2288818359375,1.251220703125,3.3111572265625
0.029999900000000003,0.1412578970193863,-9.93354320526123,0.6967126727104187,0.8697509765625,1.3885498046875,3.570556640625
0.0499999,0.08140286058187485,-9.93354320526123,0.6799532771110535,-0.48828125,0.1983642578125,1.2359619140625
0.0699999,-0.028730420395731926,-9.904812812805176,0.7398083209991455,0.79345703125,0.6103515625,-2.4261474609375
0.08999990000000001,-0.05746084079146385,-9.909601211547852,0.7422025203704834,-0.18310546875,0.54931640625,-2.3651123046875
0.10999990000000001,0.047884032130241394,-9.940725326538086,0.7206547260284424,-1.9073486328125,0.42724609375,1.708984375
0.1299999,0.16519992053508759,-9.947908401489258,0.7493851184844971,-0.2288818359375,2.593994140625,6.317138671875
0.14999990000000002,0.14604631066322327,-9.93593692779541,0.7182605266571045,-0.8697509765625,5.6610107421875,4.547119140625
0.1699999,-0.019153613597154617,-9.919178009033203,0.7086837291717529,-0.5340576171875,3.173828125,-3.0059814453125
0.1899999,-0.22505496442317963,-9.876082420349121,0.6919242739677429,1.4190673828125,-5.6915283203125,-5.584716796875
0.20999990000000002,-0.3495534360408783,-9.907206535339355,0.6105214357376099,1.2359619140625,-7.4462890625,-2.5177001953125
0.2299999,-0.3256114423274994,-9.940725326538086,0.5578489899635315,2.5482177734375,-12.420654296875,1.6632080078125
0.2499999,-0.21308395266532898,-10.010157585144043,0.49799394607543945,2.8228759765625,-25.5584716796875,7.4920654296875
0.2699999,-0.08619125932455063,-10.06043529510498,0.5386953949928284,1.2664794921875,-25.8636474609375,8.23974609375
0.28999990000000003,0.033518824726343155,-10.108319282531738,0.6392518281936646,-1.007080078125,-12.0391845703125,9.857177734375
0.3099999,0.1843535304069519,-10.170568466186523,0.7829039692878723,-4.57763671875,-0.6561279296875,17.63916015625
0.3299999,0.33518823981285095,-10.244789123535156,0.8619126081466675,-5.6610107421875,9.063720703125,24.8565673828125
0.34999990000000003,0.3687070608139038,-10.400412559509277,0.8427590131759644,-2.62451171875,8.4075927734375,33.2183837890625
0.3699999,0.26815059781074524,-10.599130630493164,0.7469909191131592,2.01416015625,-5.4473876953125,44.281005859375
0.3899999,0.014365210197865963,-10.891223907470703,0.5889736413955688,5.0506591796875,-14.4805908203125,49.3316650390625
0.40999990000000003,-0.4692635238170624,-11.109095573425293,0.569819986820221,3.41796875,-8.8958740234375,45.34912109375
0.4299999,-0.9385270476341248,-11.365275382995605,0.5746083855628967,1.2664794921875,11.5203857421875,30.487060546875
0.4499999,-1.4867992401123047,-11.520898818969727,0.6631938815116882,-1.8157958984375,29.35791015625,10.1470947265625
0.4699999,-1.9177556037902832,-11.690886497497559,0.751779317855835,1.5869140625,19.3023681640625,-8.30078125
0.4899999,-2.1595699787139893,-11.87763500213623,0.8427590131759644,3.5247802734375,1.983642578125,-19.6990966796875
0.5099999,-2.1523873805999756,-12.016498565673828,0.993593692779541,-1.220703125,-3.3721923828125,-25.7720947265625
0.5299999,-1.8483237028121948,-12.040440559387207,1.2042834758758545,-15.0909423828125,7.2479248046875,-30.517578125
0.5499999,-1.4077905416488647,-11.985373497009277,1.3838485479354858,-27.984619140625,16.9525146484375,-34.85107421875
0.5699999,-0.9696516990661621,-11.834539413452148,1.4389152526855469,-32.3944091796875,12.4359130859375,-37.384033203125
0.5899998999999999,-0.6344634294509888,-11.669339179992676,1.3287819623947144,-31.005859375,-0.4730224609375,-39.2608642578125
0.6099998999999999,-0.4620809257030487,-11.535264015197754,1.0869675874710083,-30.70068359375,-6.7291259765625,-40.9088134765625
0.6299999,-0.3232172429561615,-11.417947769165039,0.8427590131759644,-34.9273681640625,-7.9498291015625,-38.055419921875
0.6499999,-0.12210428714752197,-11.26950740814209,0.646434485912323,-40.52734375,-9.2620849609375,-29.84619140625
0.6699999,0.11252748221158981,-11.116278648376465,0.45250412821769714,-41.50390625,1.52587890625,-23.712158203125
0.6899999,0.31124621629714966,-10.915165901184082,0.15801730751991272,-35.2020263671875,19.134521484375,-26.79443359375
0.7099999,0.5099649429321289,-10.72841739654541,-0.26336219906806946,-15.9912109375,21.392822265625,-37.1551513671875
0.7299998999999999,0.6272808313369751,-10.594342231750488,-0.6991068720817566,9.124755859375,8.5906982421875,-45.1507568359375
0.7499998999999999,0.7637503147125244,-10.520122528076172,-1.0797849893569946,29.266357421875,0.30517578125,-42.3736572265625
0.7699999,0.9528923034667969,-10.474632263183594,-1.1971008777618408,41.9921875,-18.4173583984375,-31.0211181640625
0.7899999,1.170764684677124,-10.393229484558105,-1.05105459690094,47.30224609375,-32.0587158203125,-18.951416015625
0.8099999,1.381454348564148,-10.225635528564453,-0.6655880808830261,46.2188720703125,-27.099609375,-12.0391845703125
0.8299999,1.4628572463989258,-9.988609313964844,-0.11252748221158981,44.0673828125,-14.3280029296875,-11.7034912109375
0.8499998999999999,1.3431471586227417,-9.710882186889648,0.4357447028160095,38.6962890625,-5.828857421875,-16.4642333984375
0.8699998999999999,1.0654197931289673,-9.497797966003418,0.9050082564353943,32.318115234375,-3.204345703125,-27.374267578125
0.8899999,0.6607996821403503,-9.334992408752441,1.173158884048462,24.8565673828125,7.1258544921875,-43.6248779296875
0.9099999,0.2561795711517334,-9.251194953918457,1.2401964664459229,21.78955078125,10.986328125,-61.9354248046875
0.9299999,0.038307227194309235,-9.191340446472168,1.1563993692398071,24.0020751953125,-3.47900390625,-77.239990234375
0.9499999,0.08858546614646912,-9.093177795410156,1.072602391242981,23.834228515625,-29.541015625,-85.5712890625
0.9699998999999999,0.45010992884635925,-8.968679428100586,1.0582371950149536,14.984130859375,-40.34423828125,-85.205078125
0.9899998999999999,1.1085153818130493,-8.834604263305664,1.1204863786697388,2.0599365234375,-33.1268310546875,-74.5086669921875
1.0099999,1.9033904075622559,-8.655038833618164,1.2856862545013428,-8.8653564453125,-36.376953125,-55.96923828125
1.0299999,2.5929205417633057,-8.537723541259766,1.3742717504501343,-17.8070068359375,-39.9169921875,-39.886474609375
1.0499999,3.043030261993408,-8.415618896484375,1.3718775510787964,-23.040771484375,-35.82763671875,-29.8309326171875
1.0699999,3.251325845718384,-8.307879447937012,1.2880805730819702,-25.4974365234375,-28.25927734375,-25.2838134765625
1.0899999,3.2154128551483154,-8.259995460510254,1.1085153818130493,-26.85546875,-12.3291015625,-25.1617431640625
1.1099999,3.028665065765381,-8.26478385925293,0.8619126081466675,-24.71923828125,2.9754638671875,-25.146484375
1.1299999,2.8131868839263916,-8.29590892791748,0.5793967843055725,-18.3868408203125,9.521484375,-25.7110595703125
1.1499999,2.5953147411346436,-8.360552787780762,0.2801215946674347,-9.82666015625,10.3302001953125,-30.4412841796875
1.1699998999999999,2.4660277366638184,-8.429984092712402,0.031124621629714966,-1.64794921875,7.2174072265625,-35.3851318359375
1.1899998999999999,2.470816135406494,-8.482656478881836,-0.11013327538967133,4.0130615234375,-1.5716552734375,-33.5540771484375
1.2099999,2.6384103298187256,-8.506598472595215,-0.10534487664699554,5.79833984375,-6.805419921875,-28.4423828125
1.2299999,2.894589900970459,-8.513781547546387,0.011971008032560349,3.8299560546875,1.5411376953125,-25.909423828125
1.2499999,3.1747114658355713,-8.480262756347656,0.2106897532939911,0.0762939453125,14.0380859375,-23.92578125
1.2699999,3.3470940589904785,-8.451532363891602,0.3734954595565796,-5.8135986328125,15.2435302734375,-20.20263671875
1.2899999,3.426102638244629,-8.403648376464844,0.47405192255973816,-10.009765625,7.843017578125,-19.1802978515625
1.3099999,3.31118106842041,-8.372523307800293,0.47165772318840027,-12.26806640625,5.7220458984375,-22.7203369140625
1.3299999,3.2537200450897217,-8.291120529174805,0.43095630407333374,-14.923095703125,2.99072265625,-29.2205810546875
1.3499999,3.224989652633667,-8.259995460510254,0.36152446269989014,-19.6380615234375,2.9296875,-31.5093994140625
1.3699999,3.3039982318878174,-8.252813339233398,0.2561795711517334,-24.7039794921875,0.91552734375,-27.8472900390625
1.3899999,3.4787750244140625,-8.327033042907715,0.14365209639072418,-24.6429443359375,-6.1798095703125,-23.0560302734375
1.4099999,3.6822822093963623,-8.461109161376953,-0.014365210197865963,-22.5067138671875,-5.9814453125,-20.8740234375
1.4299998999999999,3.861847400665283,-8.619126319885254,-0.1867477297782898,-20.3704833984375,-0.7781982421875,-20.5230712890625
1.4499999,4.022258758544922,-8.760383605957031,-0.3423708379268646,-17.730712890625,2.4261474609375,-18.5546875
1.4699999,4.122815132141113,-8.846575736999512,-0.5003881454467773,-12.5579833984375,-1.708984375,-15.0146484375
1.4899999,4.14915132522583,-8.899248123168945,-0.6248866319656372,-7.720947265625,-10.009765625,-11.16943359375
1.5099999,4.201824188232422,-8.825027465820312,-0.6943184733390808,-6.072998046875,-9.521484375,-11.1541748046875
1.5299999,4.228160381317139,-8.75080680847168,-0.7038952708244324,-6.744384765625,3.6773681640625,-15.1214599609375
1.5499999,4.2975921630859375,-8.640673637390137,-0.6607996821403503,-6.8206787109375,14.251708984375,-16.8304443359375
1.5699999,4.426878929138184,-8.547300338745117,-0.6033388376235962,-5.8746337890625,11.7034912109375,-14.862060546875
1.5899999,4.568136692047119,-8.485051155090332,-0.524330198764801,-4.7149658203125,6.2713623046875,-11.6424560546875
1.6099999,4.6734819412231445,-8.42040729522705,-0.4429273009300232,-4.5928955078125,4.638671875,-6.6070556640625
1.6299999,4.714183330535889,-8.339004516601562,-0.35913026332855225,-6.2408447265625,8.392333984375,-4.08935546875
1.6499999,4.671087741851807,-8.269572257995605,-0.2753331959247589,-6.3323974609375,11.41357421875,-9.002685546875
1.6699999,4.627991676330566,-8.209717750549316,-0.22505496442317963,-4.0740966796875,13.48876953125,-15.0146484375
1.6899998999999999,4.5825018882751465,-8.202534675598145,-0.19393034279346466,-2.0599365234375,14.2669677734375,-16.5557861328125
1.7099999,4.632780075073242,-8.202534675598145,-0.181959331035614,-0.1373291015625,6.988525390625,-13.092041015625
1.7299999,4.7405195236206055,-8.243236541748047,-0.1412578970193863,0.335693359375,-5.06591796875,-9.1552734375
1.7499999,4.898536682128906,-8.20492935180664,-0.08858546614646912,-3.3416748046875,-3.631591796875,-8.026123046875
1.7699999,5.027823448181152,-8.185775756835938,-0.031124621629714966,-8.2855224609375,5.706787109375,-6.8359375
1.7899999,5.116408824920654,-8.142680168151855,-0.040701430290937424,-11.322021484375,8.087158203125,-3.173828125
1.8099999,5.085284233093262,-8.123526573181152,-0.11971008777618408,-10.8184814453125,-4.94384765625,-1.4495849609375
1.8299999,5.023035049438477,-8.154650688171387,-0.2537853717803955,-8.880615234375,-13.5955810546875,-4.2877197265625
1.8499999,4.955997467041016,-8.192957878112793,-0.3902548849582672,-8.026123046875,-3.173828125,-7.598876953125
1.8699999,4.929661273956299,-8.26478385925293,-0.49559974670410156,-8.4075927734375,8.056640625,-8.0718994140625
1.8899999,4.948814868927002,-8.360552787780762,-0.5841852426528931,-7.26318359375,6.195068359375,-6.2713623046875
1.9099999,4.948814868927002,-8.470685958862305,-0.646434485912323,-4.608154296875,-3.6468505859375,-3.5858154296875
1.9299998999999999,4.991910457611084,-8.542511940002441,-0.6751648783683777,-4.1046142578125,-6.1187744140625,-2.99072265625
1.9499999,5.023035049438477,-8.580819129943848,-0.6607996821403503,-5.126953125,0.8087158203125,-4.7454833984375
1.9699999,5.080495834350586,-8.537723541259766,-0.6248866319656372,-5.767822265625,5.218505859375,-5.7220458984375
1.9899999,5.104437828063965,-8.449137687683105,-0.6057330369949341,-5.06591796875,4.6844482421875,-5.9661865234375
2.0099999,5.1116204261779785,-8.339004516601562,-0.6033388376235962,-2.9449462890625,1.9073486328125,-6.65283203125
2.0299999,5.118803024291992,-8.245630264282227,-0.6129156351089478,-0.6866455078125,-3.0364990234375,-5.615234375
2.0499999,5.123591423034668,-8.188169479370117,-0.5937620401382446,-0.732421875,-7.598876953125,-2.5634765625
2.0699999,5.149928092956543,-8.152256965637207,-0.5578489899635315,-2.593994140625,-3.387451171875,-1.251220703125
2.0899999,5.147533416748047,-8.152256965637207,-0.5339069962501526,-3.7384033203125,5.4779052734375,-2.8839111328125
2.1099999,5.130774021148682,-8.169015884399414,-0.5339069962501526,-2.44140625,6.3323974609375,-3.7078857421875
2.1299999,5.07570743560791,-8.221688270568848,-0.5770025849342346,0.6103515625,-1.8463134765625,-1.129150390625
2.1499999,5.013458251953125,-8.245630264282227,-0.6177040338516235,1.7852783203125,-9.368896484375,2.227783203125
2.1699999,5.011064052581787,-8.29590892791748,-0.6200982332229614,0.457763671875,-6.195068359375,1.7242431640625
2.1899999,5.015852451324463,-8.315062522888184,-0.608127236366272,-0.640869140625,3.8299560546875,-0.8392333984375
2.2099999,5.020640850067139,-8.33182144165039,-0.5937620401382446,-0.79345703125,6.7596435546875,-0.4425048828125
2.2299999,5.04218864440918,-8.355764389038086,-0.6009446382522583,0.42724609375,1.8463134765625,0.8697509765625
2.2499999,5.035006046295166,-8.403648376464844,-0.6153098344802856,1.4495849609375,0.06103515625,-0.79345703125
2.2699999,5.013458251953125,-8.406042098999023,-0.6488286852836609,1.15966796875,6.8817138671875,-3.7384033203125
2.2899999,5.0469770431518555,-8.415618896484375,-0.6488286852836609,1.0986328125,9.857177734375,-4.180908203125
2.3099999,5.073313236236572,-8.456320762634277,-0.6536170840263367,1.800537109375,6.5155029296875,-3.0364990234375
2.3299999,5.0900726318359375,-8.458714485168457,-0.6512228846549988,2.3651123046875,5.096435546875,-3.23486328125
2.3499999,5.149928092956543,-8.487444877624512,-0.6344634294509888,2.471923828125,6.0577392578125,-4.4708251953125
2.3699999,5.178658485412598,-8.506598472595215,-0.6033388376235962,2.105712890625,6.6375732421875,-4.119873046875
2.3899999,5.2049946784973145,-8.437167167663574,-0.5793967843055725,1.40380859375,7.6141357421875,-3.4332275390625
2.4099999,5.257667064666748,-8.398859977722168,-0.5386953949928284,1.46484375,8.6212158203125,-3.9825439453125
2.4299999,5.25527286529541,-8.334216117858887,-0.5027823448181152,2.5482177734375,6.1798095703125,-4.08935546875
2.4499999,5.293580055236816,-8.216899871826172,-0.4620809257030487,2.9144287109375,2.86865234375,-2.6397705078125
2.4699999,5.310339450836182,-8.180987358093262,-0.3974374830722809,1.0833740234375,5.0506591796875,-1.77001953125
2.4899999,5.30076265335083,-8.08043098449707,-0.35913026332855225,-0.67138671875,8.6212158203125,-2.8228759765625
2.5099999,5.322310447692871,-8.042123794555664,-0.31842881441116333,-0.9765625,9.002685546875,-3.41796875
2.5299999,5.30076265335083,-8.042123794555664,-0.2944868206977844,0.0457763671875,3.6468505859375,-0.030517578125
2.5499999,5.307945251464844,-8.066065788269043,-0.272938996553421,-0.213623046875,-1.28173828125,4.9896240234375
2.5699999,5.262455463409424,-8.121131896972656,-0.24899697303771973,-1.983642578125,2.50244140625,4.852294921875
2.5899999,5.2265424728393555,-8.219294548034668,-0.2346317619085312,-2.13623046875,9.2620849609375,0.42724609375
2.6099999,5.092466831207275,-8.348581314086914,-0.26575639843940735,2.6092529296875,4.730224609375,-1.8157958984375
2.6299999,5.102043628692627,-8.38688850402832,-0.2777273952960968,3.96728515625,2.38037109375,-0.1220703125
2.6499999,5.137956619262695,-8.38688850402832,-0.2561795711517334,3.631591796875,2.38037109375,0.6256103515625
2.6699999,5.2049946784973145,-8.370129585266113,-0.2082955539226532,2.288818359375,4.5623779296875,0.457763671875
2.6899999,5.274426460266113,-8.327033042907715,-0.16519992053508759,1.89208984375,4.547119140625,0.518798828125
2.7099999,5.295974254608154,-8.315062522888184,-0.1412578970193863,2.44140625,2.349853515625,1.3885498046875
2.7299999,5.315127849578857,-8.307879447937012,-0.1388636976480484,3.021240234375,-0.0457763671875,2.8228759765625
2.7499999,5.30076265335083,-8.305485725402832,-0.13168109953403473,2.471923828125,-1.739501953125,3.96728515625
2.7699999,5.295974254608154,-8.291120529174805,-0.1149216815829277,0.518798828125,-1.9378662109375,3.173828125
2.7899999,5.250484466552734,-8.276755332946777,-0.09816227108240128,-1.373291015625,1.5106201171875,1.434326171875
2.8099999,5.228936672210693,-8.312667846679688,-0.09576806426048279,-2.0751953125,2.9144287109375,1.3885498046875
2.8299999,5.193023681640625,-8.382100105285645,-0.11252748221158981,-1.3427734375,-1.0986328125,2.8533935546875
2.8499999,5.178658485412598,-8.453926086425781,-0.15562310814857483,-0.885009765625,-3.2958984375,3.0517578125
2.8699999,5.157110691070557,-8.480262756347656,-0.19632454216480255,-1.190185546875,-2.99072265625,1.2664794921875
2.8899999,5.149928092956543,-8.463502883911133,-0.22026655077934265,-1.953125,-2.960205078125,-0.6103515625
2.9099999,5.147533416748047,-8.427590370178223,-0.24660277366638184,-2.44140625,-1.8768310546875,-0.91552734375
2.9299999,5.149928092956543,-8.413225173950195,-0.2585737705230713,-2.0904541015625,-2.6092529296875,-0.1068115234375
2.9499999,5.157110691070557,-8.422801971435547,-0.2801215946674347,-2.0904541015625,-3.173828125,0.244140625
2.9699999,5.1595048904418945,-8.439560890197754,-0.3064578175544739,-1.983642578125,-2.4566650390625,0.0762939453125
2.9899999,5.147533416748047,-8.453926086425781,-0.31603461503982544,-1.983642578125,-3.204345703125,-0.1220703125
3.0099999,5.1595048904418945,-8.434772491455078,-0.33279404044151306,-2.6092529296875,-3.9825439453125,-0.640869140625
3.0299999,5.16429328918457,-8.394071578979492,-0.33758243918418884,-3.41796875,-1.129150390625,-1.922607421875
3.0499999,5.188235282897949,-8.365341186523438,-0.35434186458587646,-3.448486328125,0.9002685546875,-1.5869140625
3.0699999,5.197812080383301,-8.310274124145508,-0.38307225704193115,-2.8533935546875,-0.396728515625,1.40380859375
3.0899999,5.1810526847839355,-8.286332130432129,-0.42856210470199585,-2.44140625,-2.7923583984375,3.753662109375
3.1099999,5.145139217376709,-8.259995460510254,-0.4572925269603729,-2.166748046875,-5.035400390625,3.5552978515625
3.1299999,5.097255229949951,-8.257601737976074,-0.4668693244457245,-1.708984375,-4.5928955078125,1.922607421875
3.1499999,5.07570743560791,-8.274360656738281,-0.44532153010368347,-1.52587890625,-1.64794921875,1.312255859375
3.1699999,5.0876784324646,-8.315062522888184,-0.42856210470199585,-1.3427734375,-0.030517578125,1.89208984375
3.1899999,5.1116204261779785,-8.35097599029541,-0.4141969084739685,-1.0528564453125,0.1220703125,2.777099609375
3.2099999,5.125985622406006,-8.343792915344238,-0.43335050344467163,-0.823974609375,0.518798828125,3.5400390625
3.2299999,5.106832027435303,-8.322244644165039,-0.4381389021873474,-0.9307861328125,-1.251220703125,3.997802734375
3.2499999,5.0469770431518555,-8.286332130432129,-0.44532153010368347,-1.5106201171875,-1.89208984375,3.4942626953125
3.2699999,4.9799394607543945,-8.29830265045166,-0.4213795065879822,-1.89208984375,-0.3204345703125,2.5787353515625
3.2899999,4.95120906829834,-8.343792915344238,-0.40940847992897034,-2.2125244140625,0.7171630859375,2.38037109375
3.3099999,4.965574264526367,-8.396465301513672,-0.40462008118629456,-2.25830078125,0.3509521484375,3.2196044921875
3.3299999000000002,4.991910457611084,-8.406042098999023,-0.42377370595932007,-2.532958984375,-1.40380859375,5.4473876953125
3.3499999,5.035006046295166,-8.370129585266113,-0.4357447028160095,-4.0435791015625,-3.0059814453125,6.744384765625
3.3699999,5.035006046295166,-8.322244644165039,-0.47644615173339844,-5.2032470703125,-0.8087158203125,5.7220458984375
3.3899999,5.006275653839111,-8.310274124145508,-0.5003881454467773,-5.2490234375,1.922607421875,4.5318603515625
3.4099999,4.975151062011719,-8.360552787780762,-0.5410895943641663,-4.57763671875,0.4425048828125,4.6539306640625
3.4299999,4.967968463897705,-8.456320762634277,-0.569819986820221,-3.692626953125,-3.021240234375,6.195068359375
3.4499999,4.960785865783691,-8.540117263793945,-0.6009446382522583,-3.5858154296875,-1.983642578125,6.8359375
3.4699999,4.960785865783691,-8.583212852478027,-0.6033388376235962,-3.6468505859375,1.129150390625,5.7220458984375
3.4899999,4.9368438720703125,-8.585607528686523,-0.6177040338516235,-2.74658203125,1.6326904296875,4.7607421875
3.5099999,4.888959884643555,-8.576030731201172,-0.6200982332229614,-1.2359619140625,-2.227783203125,5.2490234375
3.5299999,4.838681697845459,-8.585607528686523,-0.6105214357376099,-0.640869140625,-3.4637451171875,5.279541015625
3.5499999,4.819528102874756,-8.614337921142578,-0.6224924325942993,-1.1749267578125,1.5411376953125,3.4942626953125
3.5699999,4.807557106018066,-8.643068313598633,-0.6129156351089478,-0.91552734375,4.6539306640625,1.953125
3.5899999,4.8051629066467285,-8.662221908569336,-0.6129156351089478,0.2288818359375,0.9613037109375,2.4261474609375
3.6099999,4.786009311676025,-8.640673637390137,-0.6153098344802856,1.220703125,-3.570556640625,3.8909912109375
3.6299999,4.771644115447998,-8.62630844116211,-0.5889736413955688,0.5645751953125,-3.60107421875,3.2958984375
3.6499999,4.774038314819336,-8.619126319885254,-0.5746083855628967,-0.8697509765625,1.64794921875,0.9918212890625
3.6699999,4.81473970413208,-8.609549522399902,-0.5578489899635315,-1.3275146484375,4.33349609375,0.732421875
3.6899999,4.821922302246094,-8.59997272491455,-0.5650315880775452,-0.7781982421875,1.40380859375,3.3721923828125
3.7099999,4.809951305389404,-8.583212852478027,-0.5841852426528931,-0.1373291015625,-2.716064453125,5.2490234375
3.7299999,4.764461517333984,-8.571242332458496,-0.608127236366272,-0.5950927734375,-3.5552978515625,3.936767578125
3.7499999,4.7189717292785645,-8.525752067565918,-0.6320692300796509,-1.6326904296875,-1.556396484375,1.5411376953125
3.7699999,4.69024133682251,-8.530540466308594,-0.6512228846549988,-2.227783203125,2.38037109375,0.6256103515625
3.7899999,4.697423934936523,-8.552088737487793,-0.6823474764823914,-1.3885498046875,2.410888671875,2.166748046875
3.8099999,4.709394931793213,-8.561665534973145,-0.7086837291717529,-0.3204345703125,-0.762939453125,5.279541015625
3.8299999000000002,4.6950297355651855,-8.588001251220703,-0.7254431247711182,-0.823974609375,-2.166748046875,7.14111328125
3.8499999,4.680664539337158,-8.635885238647461,-0.727837324142456,-2.0751953125,0.42724609375,6.683349609375
3.8699999,4.642356872558594,-8.62630844116211,-0.7469909191131592,-2.5482177734375,3.0975341796875,4.913330078125
3.8899999,4.577713489532471,-8.650250434875488,-0.7613561153411865,-1.861572265625,4.119873046875,3.448486328125
3.9099999,4.55616569519043,-8.702922821044922,-0.7709329724311829,-0.3814697265625,4.0435791015625,3.2958984375
3.9299999,4.55616569519043,-8.69095230102539,-0.7852981686592102,0.701904296875,1.7242431640625,4.8065185546875
3.9499999,4.553771495819092,-8.707711219787598,-0.7469909191131592,0.213623046875,0.7171630859375,5.9051513671875
3.9699999,4.6040496826171875,-8.722076416015625,-0.7086837291717529,-0.7781982421875,4.119873046875,4.7607421875
3.9899999,4.606443881988525,-8.674192428588867,-0.6751648783683777,-0.9613037109375,5.706787109375,3.5400390625
4.0099999,4.606443881988525,-8.710105895996094,-0.6440402865409851,-0.4119873046875,3.204345703125,3.5400390625
4.029999900000001,4.632780075073242,-8.719682693481445,-0.6320692300796509,0.42724609375,1.64794921875,4.486083984375
4.0499999,4.608838081359863,-8.707711219787598,-0.6200982332229614,0.1220703125,2.532958984375,4.974365234375
4.069999900000001,4.606443881988525,-8.777143478393555,-0.5985504388809204,-1.068115234375,5.2947998046875,4.0740966796875
4.0899999000000005,4.580107688903809,-8.777143478393555,-0.5793967843055725,-1.556396484375,6.3018798828125,2.105712890625
4.1099999,4.532223701477051,-8.810662269592285,-0.5817909836769104,-0.91552734375,4.180908203125,0.640869140625
4.1299999000000005,4.525041103363037,-8.889671325683594,-0.569819986820221,-0.274658203125,2.4871826171875,0.4730224609375
4.1499999,4.529829502105713,-8.858546257019043,-0.5841852426528931,-0.2899169921875,3.72314453125,1.0223388671875
4.1699999000000005,4.525041103363037,-8.899248123168945,-0.569819986820221,-0.8544921875,5.9356689453125,0.946044921875
4.1899999,4.577713489532471,-8.848969459533691,-0.5674257874488831,-0.9307861328125,6.16455078125,-0.42724609375
4.209999900000001,4.5394062995910645,-8.808267593383789,-0.569819986820221,-0.5340576171875,6.16455078125,-1.708984375
4.2299999,4.5609540939331055,-8.820239067077637,-0.5650315880775452,-0.091552734375,6.1798095703125,-1.983642578125
4.249999900000001,4.5609540939331055,-8.743624687194824,-0.5985504388809204,0.823974609375,5.6915283203125,-1.9989013671875
4.2699999,4.575319290161133,-8.765172004699707,-0.5961562395095825,2.01416015625,4.486083984375,-1.800537109375
4.289999900000001,4.623203277587891,-8.681375503540039,-0.6248866319656372,2.8533935546875,4.058837890625,-0.030517578125
4.3099999,4.6734819412231445,-8.69095230102539,-0.6057330369949341,3.5400390625,2.0599365234375,2.685546875
4.329999900000001,4.683058738708496,-8.662221908569336,-0.608127236366272,3.662109375,3.3416748046875,4.6539306640625
4.3499999,4.659116744995117,-8.667010307312012,-0.6105214357376099,4.5318603515625,5.126953125,5.67626953125
4.369999900000001,4.568136692047119,-8.681375503540039,-0.6129156351089478,5.5999755859375,5.340576171875,5.5389404296875
4.3899999,4.4508209228515625,-8.705317497253418,-0.6224924325942993,7.1563720703125,5.126953125,4.5318603515625
4.409999900000001,4.364629745483398,-8.755595207214355,-0.6177040338516235,8.3160400390625,5.06591796875,3.631591796875
4.4299999,4.321534156799316,-8.78193187713623,-0.5674257874488831,7.8582763671875,5.584716796875,2.6702880859375
4.449999900000001,4.2760443687438965,-8.834604263305664,-0.5195417404174805,6.9580078125,8.72802734375,0.91552734375
4.4699999,4.326322555541992,-8.825027465820312,-0.4429273009300232,6.77490234375,9.1705322265625,0.518798828125
4.489999900000001,4.302380561828613,-8.865729331970215,-0.3758896589279175,6.6986083984375,5.2642822265625,2.166748046875
4.5099999,4.357447147369385,-8.925583839416504,-0.38067805767059326,6.6375732421875,3.570556640625,3.84521484375
4.529999900000001,4.345476150512695,-9.035717010498047,-0.569819986820221,16.41845703125,0.9613037109375,3.7841796875
4.5499999,4.424484729766846,-9.102754592895508,-0.6177040338516235,39.1693115234375,-0.8544921875,2.8533935546875
4.569999900000001,4.49870491027832,-9.097966194152832,-0.6703764796257019,43.1365966796875,10.772705078125,4.69970703125
4.5899999000000005,4.608838081359863,-8.975862503051758,-0.43335050344467163,33.3709716796875,15.2587890625,7.9345703125
4.609999900000001,4.6950297355651855,-8.75080680847168,0.014365210197865963,20.3399658203125,13.2598876953125,10.07080078125
4.6299999000000005,4.6734819412231445,-8.513781547546387,0.48602294921875,5.7525634765625,15.1824951171875,8.9111328125
4.6499999,4.5394062995910645,-8.33182144165039,0.871489405632019,-8.2550048828125,16.6778564453125,5.3253173828125
4.6699999000000005,4.32871675491333,-8.248024940490723,1.0821791887283325,-18.4326171875,12.4053955078125,1.3580322265625
4.6899999,4.106055736541748,-8.291120529174805,1.0965443849563599,-24.5819091796875,5.828857421875,-2.777099609375
4.709999900000001,3.9217023849487305,-8.429984092712402,0.9528923034667969,-27.587890625,1.434326171875,-6.378173828125
4.7299999,3.84269380569458,-8.628703117370605,0.7230489253997803,-28.1219482421875,-0.244140625,-8.7890625
4.749999900000001,3.8738183975219727,-8.841787338256836,0.4644751250743866,-26.4892578125,-1.46484375,-9.4451904296875
4.7699999,3.9671921730041504,-9.035717010498047,0.21308395266532898,-23.4832763671875,-3.326416015625,-7.7972412109375
4.789999900000001,4.108449935913086,-9.17936897277832,-0.002394201699644327,-20.4620361328125,-5.279541015625,-5.4779052734375
4.8099999,4.247313976287842,-9.253589630126953,-0.17477671802043915,-16.326904296875,-7.720947265625,-4.33349609375
4.829999900000001,4.369418144226074,-9.246406555175781,-0.29209262132644653,-11.53564453125,-9.4451904296875,-3.96728515625
4.8499999,4.458003520965576,-9.172186851501465,-0.3663128614425659,-7.4462890625,-7.7056884765625,-3.570556640625
4.869999900000001,4.501099109649658,-9.069235801696777,-0.40940847992897034,-4.0435791015625,-4.45556640625,-3.35693359375
4.8899999,4.503493309020996,-8.959102630615234,-0.4357447028160095,-0.8087158203125,-2.9144287109375,-3.753662109375
4.909999900000001,4.477157115936279,-8.858546257019043,-0.44771572947502136,2.166748046875,-2.9296875,-4.791259765625
4.9299999,4.455609321594238,-8.769960403442383,-0.4405331015586853,4.3792724609375,-2.8839111328125,-5.31005859375
4.949999900000001,4.460397720336914,-8.700529098510742,-0.4189853072166443,5.218505859375,-2.7313232421875,-4.5928955078125
4.9699999,4.484339714050293,-8.655038833618164,-0.3926490843296051,4.669189453125,-1.8157958984375,-2.50244140625
4.989999900000001,4.501099109649658,-8.631096839904785,-0.3758896589279175,4.0283203125,-1.7242431640625,-0.48828125
5.0099999,4.486733913421631,-8.62630844116211,-0.37828385829925537,3.8299560546875,-3.3416748046875,-0.091552734375
5.029999900000001,4.467580318450928,-8.62630844116211,-0.3878606855869293,3.60107421875,-6.6986083984375,-0.3204345703125
5.0499999,4.448426723480225,-8.633491516113281,-0.3998316824436188,2.2125244140625,-6.2713623046875,-0.2593994140625
5.069999900000001,4.469974517822266,-8.647856712341309,-0.40222588181495667,0.152587890625,-1.4190673828125,0.1678466796875
5.0899999000000005,4.508281707763672,-8.669404029846191,-0.40701428055763245,-1.5411376953125,1.1749267578125,1.3885498046875
5.109999900000001,4.541800498962402,-8.688557624816895,-0.4189853072166443,-2.8228759765625,-0.274658203125,2.777099609375
5.1299999000000005,4.55616569519043,-8.702922821044922,-0.4405331015586853,-3.9215087890625,-2.1209716796875,2.8533935546875
5.1499999,4.551377296447754,-8.71489429473877,-0.4668693244457245,-5.18798828125,-1.0986328125,2.0751953125
5.1699999000000005,4.5394062995910645,-8.731653213500977,-0.4908113479614258,-6.3018798828125,1.6326904296875,1.4801025390625
5.1899999,4.532223701477051,-8.757989883422852,-0.5099649429321289,-6.2713623046875,2.3040771484375,1.983642578125
5.209999900000001,4.537012100219727,-8.793902397155762,-0.5099649429321289,-5.828857421875,0.4425048828125,3.2196044921875
5.2299999,4.54419469833374,-8.822632789611816,-0.49799394607543945,-6.195068359375,-0.6561279296875,5.157470703125
5.249999900000001,4.54419469833374,-8.834604263305664,-0.4692635238170624,-7.110595703125,1.5106201171875,6.439208984375
5.2699999,4.520252704620361,-8.832210540771484,-0.4405331015586853,-7.2021484375,4.2266845703125,6.011962890625
5.289999900000001,4.462791919708252,-8.825027465820312,-0.42856210470199585,-6.134033203125,4.1046142578125,4.8370361328125
5.3099999,4.3861775398254395,-8.825027465820312,-0.43095630407333374,-4.2877197265625,0.54931640625,4.119873046875
5.329999900000001,4.316745758056641,-8.83939266204834,-0.4357447028160095,-2.7923583984375,-1.46484375,3.60107421875
5.3499999,4.268861770629883,-8.863334655761719,-0.43095630407333374,-1.8157958984375,1.678466796875,2.838134765625
5.369999900000001,4.2329487800598145,-8.89685344696045,-0.4189853072166443,-0.701904296875,4.8980712890625,2.5634765625
5.3899999,4.2090067863464355,-8.923190116882324,-0.3998316824436188,1.0223388671875,1.922607421875,2.899169921875
5.409999900000001,4.1874589920043945,-8.937555313110352,-0.37828385829925537,2.6397705078125,-2.532958984375,2.74658203125
5.4299999,4.177882194519043,-8.942343711853027,-0.36152446269989014,3.6773681640625,-1.9683837890625,1.953125
5.449999900000001,4.194641590118408,-8.923190116882324,-0.3280056416988373,3.814697265625,-0.4119873046875,1.4801025390625
5.4699999,4.225766181945801,-8.887276649475098,-0.26815059781074524,2.9754638671875,1.5106201171875,0.79345703125
5.489999900000001,4.24970817565918,-8.822632789611816,-0.17238251864910126,-1.495361328125,2.960205078125,0.335693359375
5.5099999,4.280832767486572,-8.683769226074219,-0.031124621629714966,-11.077880859375,2.38037109375,0.0457763671875
5.529999900000001,4.264073371887207,-8.60236644744873,0.11013327538967133,-23.2086181640625,4.1351318359375,-1.190185546875
5.5499999,4.230554580688477,-8.456320762634277,0.17238251864910126,-32.379150390625,6.744384765625,-2.288818359375
5.569999900000001,4.156333923339844,-8.463502883911133,0.05985504388809204,-37.8570556640625,2.105712890625,-3.0517578125
5.5899999000000005,4.050989151000977,-8.56645393371582,-0.18914192914962769,-35.9344482421875,-10.3607177734375,-4.45556640625
5.609999900000001,4.02465295791626,-8.731653213500977,-0.5889736413955688,-26.1688232421875,-16.9830322265625,-6.2408447265625
5.6299999000000005,4.048594951629639,-9.042900085449219,-0.9792284965515137,-15.7470703125,-12.3748779296875,-6.805419921875
5.6499999,4.14915132522583,-9.224859237670898,-1.338358759880066,-5.43212890625,-8.6212158203125,-3.72314453125
5.6699999000000005,4.280832767486572,-9.445125579833984,-1.5729905366897583,4.5928955078125,-12.664794921875,1.220703125
5.6899999,4.390965938568115,-9.433155059814453,-1.6950948238372803,12.298583984375,-16.54052734375,3.7841796875
5.709999900000001,4.443638324737549,-9.344569206237793,-1.6711528301239014,16.2506103515625,-10.6964111328125,2.685546875
5.7299999,4.458003520965576,-9.169792175292969,-1.5610195398330688,18.12744140625,-4.547119140625,0.7171630859375
5.749999900000001,4.458003520965576,-8.98543930053711,-1.4221558570861816,18.85986328125,-4.1961669921875,0.1983642578125
5.7699999,4.4532151222229,-8.813055992126465,-1.2641384601593018,18.6614990234375,-7.3089599609375,1.2359619140625
5.789999900000001,4.458003520965576,-8.683769226074219,-1.0989385843276978,15.1824951171875,-9.7503662109375,2.5482177734375
5.8099999,4.469974517822266,-8.549694061279297,-0.9313444495201111,8.8958740234375,-6.16455078125,2.655029296875
5.829999900000001,4.462791919708252,-8.480262756347656,-0.7829039692878723,2.8533935546875,0.2288818359375,1.739501953125
5.8499999,4.4077253341674805,-8.482656478881836,-0.6943184733390808,-1.46484375,2.9754638671875,0.9765625
5.869999900000001,4.355052947998047,-8.544905662536621,-0.7110779285430908,-3.4637451171875,-0.8087158203125,1.556396484375
5.8899999,4.2760443687438965,-8.616731643676758,-0.7565677165985107,-5.584716796875,-5.9967041015625,1.5716552734375
5.909999900000001,4.20421838760376,-8.681375503540039,-0.8307880163192749,-8.4381103515625,-3.4332275390625,-0.42724609375
5.9299999,4.163516521453857,-8.736441612243652,-0.9169792532920837,-10.406494140625,1.28173828125,-1.8463134765625
5.949999900000001,4.168305397033691,-8.822632789611816,-1.0007762908935547,-10.2691650390625,0.5340576171875,-1.5869140625
5.9699999,4.182670593261719,-8.913613319396973,-1.1061211824417114,-8.30078125,-4.3487548828125,-0.06103515625
5.989999900000001,4.235342979431152,-8.942343711853027,-1.1779472827911377,-7.049560546875,-6.988525390625,0.9765625
6.0099999,4.242525577545166,-8.947132110595703,-1.213860273361206,-7.049560546875,-2.7313232421875,-0.18310546875
6.029999900000001,4.247313976287842,-8.93037223815918,-1.2282254695892334,-6.0272216796875,2.0904541015625,-1.52587890625
6.0499999,4.24970817565918,-8.937555313110352,-1.2401964664459229,-3.35693359375,2.0751953125,-1.373291015625
6.069999900000001,4.24970817565918,-8.968679428100586,-1.278503656387329,0.1373291015625,-0.9307861328125,0.152587890625
6.0899999000000005,4.252102375030518,-8.96389102935791,-1.2880805730819702,2.3956298828125,-3.23486328125,0.762939453125
6.109999900000001,4.2329487800598145,-8.925583839416504,-1.2737152576446533,2.50244140625,-1.129150390625,-0.3509521484375
6.1299999000000005,4.201824188232422,-8.860940933227539,-1.2282254695892334,1.6937255859375,2.288818359375,-1.6632080078125
6.149999900000001,4.1874589920043945,-8.834604263305664,-1.1827356815338135,1.373291015625,2.8533935546875,-2.5177001953125
6.1699999000000005,4.197035789489746,-8.820239067077637,-1.170764684677124,2.105712890625,-0.030517578125,-2.166748046875
6.1899999,4.230554580688477,-8.791508674621582,-1.1468225717544556,2.5177001953125,-2.349853515625,-1.495361328125
6.209999900000001,4.280832767486572,-8.734047889709473,-1.113303780555725,1.220703125,-0.0457763671875,-2.044677734375
6.2299999,4.316745758056641,-8.688557624816895,-1.0773907899856567,-0.6561279296875,5.18798828125,-1.8157958984375
6.249999900000001,4.369418144226074,-8.700529098510742,-1.0582371950149536,-0.3509521484375,2.62451171875,1.1444091796875
6.2699999,4.378994941711426,-8.698134422302246,-1.0821791887283325,1.0528564453125,1.52587890625,0.823974609375
6.289999900000001,4.371812343597412,-8.688557624816895,-1.0821791887283325,1.2054443359375,0.2288818359375,1.5411376953125
6.3099999,4.352658748626709,-8.650250434875488,-1.0558429956436157,0.457763671875,1.52587890625,2.3651123046875
6.329999900000001,4.333505153656006,-8.678980827331543,-1.0295066833496094,0.67138671875,4.0283203125,1.7852783203125
6.3499999,4.292803764343262,-8.743624687194824,-1.0103530883789062,2.105712890625,3.2958984375,1.2664794921875
6.369999900000001,4.278438568115234,-8.808267593383789,-1.0079588890075684,3.4027099609375,-0.06103515625,2.471923828125
6.3899999,4.2544965744018555,-8.825027465820312,-0.9816226959228516,2.899169921875,-1.5106201171875,3.2501220703125
6.409999900000001,4.2090067863464355,-8.832210540771484,-0.9576807022094727,1.2054443359375,1.7852783203125,2.0599365234375
6.4299999,4.170699596405029,-8.848969459533691,-0.9313444495201111,0.579833984375,3.2806396484375,1.0528564453125
6.449999900000001,4.144362926483154,-8.908824920654297,-0.9193734526634216,0.91552734375,1.739501953125,1.03759765625
6.4699999,4.113238334655762,-8.983044624328613,-0.9361328482627869,1.068115234375,0.5035400390625,1.4801025390625
6.489999900000001,4.125209331512451,-8.992621421813965,-0.9433154463768005,0.518798828125,-0.6866455078125,1.1749267578125
6.5099999,4.098873138427734,-8.983044624328613,-0.950498104095459,-0.1678466796875,1.03759765625,-0.3509521484375
6.529999900000001,4.079719543457031,-8.951920509338379,-0.9552865028381348,0.2593994140625,2.0599365234375,-1.6632080078125
6.5499999,4.1180267333984375,-8.966285705566406,-0.9840168952941895,1.3580322265625,0.6866455078125,-1.373291015625
6.569999900000001,4.153939723968506,-8.975862503051758,-0.9911994934082031,2.044677734375,0.3509521484375,-0.213623046875
6.5899999000000005,4.20421838760376,-8.956708908081055,-0.9959878921508789,2.1209716796875,-1.5411376953125,0.3509521484375
6.609999900000001,4.235342979431152,-8.911218643188477,-0.9696516990661621,0.9765625,-1.220703125,-0.2899169921875
6.6299999000000005,4.199429988861084,-8.853757858276367,-0.9481038451194763,0.1983642578125,0.823974609375,-1.495361328125
6.649999900000001,4.201824188232422,-8.853757858276367,-0.9313444495201111,0.518798828125,0.701904296875,-2.01416015625
6.6699999000000005,4.2090067863464355,-8.863334655761719,-0.9457096457481384,0.91552734375,-0.54931640625,-1.312255859375
6.6899999,4.223371982574463,-8.868123054504395,-0.9481038451194763,0.79345703125,-0.8087158203125,-0.18310546875
6.709999900000001,4.230554580688477,-8.83939266204834,-0.9648633003234863,-0.3662109375,0.518798828125,-0.0152587890625
6.7299999,4.201824188232422,-8.813055992126465,-0.9672574996948242,-1.007080078125,1.6021728515625,-0.762939453125
6.749999900000001,4.1874589920043945,-8.81784439086914,-0.9864110946655273,-0.4425048828125,1.8157958984375,-1.251220703125
6.7699999,4.185064792633057,-8.848969459533691,-1.0079588890075684,0.274658203125,1.5411376953125,-0.946044921875
6.789999900000001,4.2090067863464355,-8.858546257019043,-1.0438719987869263,1.15966796875,-0.4119873046875,0.1068115234375
6.8099999,4.216189384460449,-8.846575736999512,-1.0462661981582642,0.8544921875,-1.03759765625,0.48828125
6.829999900000001,4.228160381317139,-8.810662269592285,-1.0558429956436157,-0.274658203125,1.6937255859375,0.0457763671875
6.8499999,4.228160381317139,-8.810662269592285,-1.0462661981582642,-0.457763671875,4.0740966796875,-0.6866455078125
6.869999900000001,4.211400985717773,-8.83939266204834,-1.0678139925003052,0.213623046875,6.0577392578125,-0.7171630859375
6.8899999,4.230554580688477,-8.87051773071289,-1.0678139925003052,1.9989013671875,4.3487548828125,-0.244140625
6.909999900000001,4.201824188232422,-8.877699851989746,-1.0749965906143188,3.4332275390625,0.7781982421875,0.2593994140625
6.9299999,4.252102375030518,-8.899248123168945,-1.039083480834961,2.9144287109375,0.5645751953125,1.2359619140625
6.949999900000001,4.228160381317139,-8.834604263305664,-1.0079588890075684,1.0833740234375,4.8828125,1.9073486328125
6.9699999,4.280832767486572,-8.860940933227539,-0.9672574996948242,0.244140625,7.5225830078125,2.13623046875
6.989999900000001,4.242525577545166,-8.83699893951416,-0.933738648891449,1.03759765625,5.4779052734375,2.7313232421875
7.0099999,4.225766181945801,-8.815450668334961,-0.9026140570640564,1.6021728515625,2.3193359375,3.0975341796875
7.029999900000001,4.206612586975098,-8.83699893951416,-0.8690952062606812,1.03759765625,1.5869140625,2.349853515625
7.0499999,4.185064792633057,-8.856152534484863,-0.8475474119186401,0.152587890625,2.593994140625,1.8310546875
7.069999900000001,4.182670593261719,-8.889671325683594,-0.8331822156906128,-0.518798828125,3.173828125,2.349853515625
7.0899999000000005,4.132391929626465,-8.916007041931152,-0.8403648138046265,-0.213623046875,3.082275390625,2.3345947265625
7.109999900000001,4.110844135284424,-8.927978515625,-0.8451532125473022,0.8697509765625,0.4119873046875,1.9989013671875
7.1299999000000005,4.065354347229004,-8.916007041931152,-0.8188169598579407,0.5035400390625,-0.823974609375,1.861572265625
7.149999900000001,4.0749311447143555,-8.9064302444458,-0.8068459630012512,-1.1138916015625,1.6632080078125,1.6632080078125
7.1699999000000005,4.084507942199707,-8.916007041931152,-0.7876923680305481,-1.9989013671875,4.638671875,-0.030517578125
7.1899999,4.122815132141113,-8.939949035644531,-0.8068459630012512,-1.129150390625,4.1351318359375,-2.0294189453125
7.209999900000001,4.146757125854492,-8.951920509338379,-0.8092401623725891,0.8087158203125,1.89208984375,-1.7852783203125
7.2299999,4.206612586975098,-8.954314231872559,-0.8259995579719543,1.4801025390625,-1.617431640625,0.9613037109375
7.249999900000001,4.230554580688477,-8.935160636901855,-0.7972691655158997,-0.274658203125,-0.579833984375,2.86865234375
7.2699999,4.242525577545166,-8.892065048217773,-0.7852981686592102,-1.678466796875,2.99072265625,1.5869140625
7.289999900000001,4.20421838760376,-8.875306129455566,-0.7829039692878723,-1.2054443359375,3.4942626953125,-1.129150390625
7.3099999,4.175487995147705,-8.848969459533691,-0.8164227604866028,0.8544921875,0.213623046875,-1.983642578125
7.329999900000001,4.141968727111816,-8.865729331970215,-0.8164227604866028,1.9683837890625,-3.0975341796875,0.2593994140625
7.3499999,4.14915132522583,-8.87291145324707,-0.8188169598579407,0.1373291015625,-1.8310546875,2.1514892578125
7.369999900000001,4.134786128997803,-8.880094528198242,-0.7924807667732239,-2.3956298828125,3.0364990234375,1.4495849609375
7.3899999,4.120420932769775,-8.889671325683594,-0.7972691655158997,-2.7008056640625,4.058837890625,0.274658203125
7.409999900000001,4.089296340942383,-8.911218643188477,-0.8236053586006165,-0.946044921875,-0.3204345703125,0.5645751953125
7.4299999,4.050989151000977,-8.93037223815918,-0.8738836050033569,0.9307861328125,-2.471923828125,1.3275146484375
7.449999900000001,4.027047157287598,-8.949525833129883,-0.9050082564353943,1.2969970703125,-1.4801025390625,1.556396484375
7.4699999,4.0078935623168945,-8.96149730682373,-0.8930372595787048,0.30517578125,-1.03759765625,0.7476806640625
7.489999900000001,4.017470359802246,-8.949525833129883,-0.8762778043746948,-0.732421875,-0.823974609375,-0.48828125
7.5099999,4.036623954772949,-8.956708908081055,-0.8403648138046265,-1.5716552734375,1.0986328125,-0.3662109375
7.529999900000001,4.079719543457031,-8.96149730682373,-0.8379706144332886,-1.983642578125,1.617431640625,1.2359619140625
7.5499999,4.127603530883789,-8.959102630615234,-0.8595184087753296,-1.64794921875,0.6256103515625,1.9989013671875
7.569999900000001,4.151545524597168,-8.954314231872559,-0.8858546018600464,-1.4495849609375,-0.244140625,1.3580322265625
7.5899999000000005,4.180276393890381,-8.947132110595703,-0.933738648891449,-1.800537109375,1.9683837890625,-0.0762939453125
7.609999900000001,4.177882194519043,-8.932766914367676,-0.9744400978088379,-1.312255859375,3.6468505859375,-0.5645751953125
7.6299999000000005,4.158728122711182,-8.942343711853027,-0.993593692779541,0.152587890625,2.655029296875,0.335693359375
7.649999900000001,4.151545524597168,-8.93037223815918,-1.0295066833496094,1.495361328125,2.288818359375,1.1444091796875
7.6699999000000005,4.106055736541748,-8.932766914367676,-1.015141487121582,2.3345947265625,4.058837890625,1.129150390625
7.6899999,4.079719543457031,-8.937555313110352,-1.0031704902648926,2.74658203125,3.3111572265625,0.6866455078125
7.709999900000001,4.05817174911499,-8.947132110595703,-0.9552865028381348,2.5634765625,1.983642578125,0.5645751953125
7.7299999,4.02465295791626,-8.983044624328613,-0.9145850539207458,2.4871826171875,1.983642578125,1.40380859375
7.749999900000001,4.005499362945557,-9.009381294250488,-0.8738836050033569,2.0904541015625,3.8299560546875,1.068115234375
7.7699999,3.974374771118164,-9.035717010498047,-0.8595184087753296,2.9754638671875,3.23486328125,-0.54931640625
7.789999900000001,3.974374771118164,-9.047688484191895,-0.8259995579719543,4.119873046875,-0.1983642578125,-1.312255859375
7.8099999,3.995922565460205,-9.040505409240723,-0.8020575642585754,3.0364990234375,-1.0986328125,-0.4730224609375
7.829999900000001,4.034229755401611,-9.004592895507812,-0.751779317855835,0.8087158203125,1.4801025390625,0.1220703125
7.8499999,4.062960147857666,-8.956708908081055,-0.7158663272857666,-1.373291015625,5.126953125,-0.9765625
7.869999900000001,4.055777549743652,-8.899248123168945,-0.7110779285430908,-1.5869140625,6.34765625,-2.5177001953125
7.8899999,4.02465295791626,-8.87051773071289,-0.730231523513794,-0.762939453125,4.9285888671875,-2.6702880859375
7.909999900000001,4.010287761688232,-8.877699851989746,-0.7493851184844971,0,2.0599365234375,-0.8544921875
7.9299999,4.0294413566589355,-8.87291145324707,-0.7781155705451965,-0.4425048828125,0.4425048828125,0.67138671875
7.949999900000001,4.0533833503723145,-8.877699851989746,-0.768538773059845,-1.800537109375,2.716064453125,0.4119873046875
7.9699999,4.082113742828369,-8.865729331970215,-0.7781155705451965,-1.89208984375,5.2032470703125,-0.6866455078125
7.989999900000001,4.101267337799072,-8.880094528198242,-0.7757213711738586,-0.457763671875,4.7760009765625,-0.396728515625
8.0099999,4.122815132141113,-8.908824920654297,-0.7996633648872375,1.2664794921875,2.471923828125,1.007080078125
8.0299999,4.127603530883789,-8.923190116882324,-0.8092401623725891,1.922607421875,1.434326171875,1.8310546875
8.049999900000001,4.110844135284424,-8.956708908081055,-0.8044517636299133,1.007080078125,2.685546875,1.3885498046875
8.069999900000001,4.079719543457031,-8.978256225585938,-0.7876923680305481,-0.18310546875,4.974365234375,0.2288818359375
8.0899999,4.048594951629639,-8.999804496765137,-0.7637503147125244,0.2288818359375,3.96728515625,-0.5645751953125
8.1099999,4.019864559173584,-9.038111686706543,-0.7541735172271729,1.739501953125,0.885009765625,-0.518798828125
8.129999900000001,4.019864559173584,-9.071630477905273,-0.7398083209991455,2.44140625,0.1983642578125,0.274658203125
8.149999900000001,4.02465295791626,-9.074024200439453,-0.7374141216278076,1.7547607421875,1.8157958984375,0.42724609375
8.1699999,4.019864559173584,-9.047688484191895,-0.7182605266571045,0.67138671875,2.7008056640625,-1.64794921875
8.1899999,4.000710964202881,-9.042900085449219,-0.7158663272857666,0.6866455078125,2.227783203125,-3.631591796875
8.2099999,4.003105163574219,-9.040505409240723,-0.7134721279144287,0.9307861328125,-0.701904296875,-3.3111572265625
8.229999900000001,4.0294413566589355,-9.016563415527344,-0.727837324142456,0.79345703125,-4.638671875,-2.6397705078125
8.2499999,4.079719543457031,-9.011775016784668,-0.730231523513794,-1.28173828125,-2.1514892578125,-3.662109375
8.2699999,4.1395745277404785,-8.999804496765137,-0.730231523513794,-4.21142578125,2.6092529296875,-3.9520263671875
8.2899999,4.2090067863464355,-8.98543930053711,-0.7398083209991455,-5.79833984375,1.739501953125,-3.082275390625
8.309999900000001,4.220977783203125,-8.954314231872559,-0.730231523513794,-5.889892578125,-2.7008056640625,-3.5858154296875
8.3299999,4.240131378173828,-8.939949035644531,-0.6991068720817566,-8.1329345703125,2.2125244140625,-6.4544677734375
8.3499999,4.244919776916504,-8.918401718139648,-0.6943184733390808,-12.237548828125,11.5814208984375,-7.781982421875
8.3699999,4.20421838760376,-8.860940933227539,-0.6871358752250671,-12.603759765625,9.552001953125,-5.8135986328125
8.389999900000001,4.175487995147705,-8.904036521911621,-0.7374141216278076,-9.5977783203125,-0.2899169921875,-3.7994384765625
8.4099999,4.106055736541748,-8.87291145324707,-0.7996633648872375,-7.0037841796875,-2.2125244140625,-5.4931640625
8.4299999,4.0964789390563965,-8.920795440673828,-0.8690952062606812,-4.94384765625,3.0059814453125,-7.9193115234375
8.4499999,4.108449935913086,-8.949525833129883,-0.9241618514060974,-2.0294189453125,5.7373046875,-6.8817138671875
8.469999900000001,4.168305397033691,-8.951920509338379,-0.9648633003234863,2.13623046875,1.77001953125,-4.0130615234375
8.4899999,4.206612586975098,-8.942343711853027,-0.9624691009521484,5.6304931640625,-0.6561279296875,-3.0059814453125
8.5099999,4.252102375030518,-8.89685344696045,-0.9385270476341248,6.5155029296875,2.471923828125,-4.0283203125
8.5299999,4.2951979637146,-8.856152534484863,-0.8738836050033569,6.3323974609375,5.5999755859375,-4.1046142578125
8.549999900000001,4.331110954284668,-8.83699893951416,-0.8188169598579407,6.103515625,8.148193359375,-2.899169921875
8.569999900000001,4.343081951141357,-8.832210540771484,-0.8044517636299133,6.805419921875,14.373779296875,-3.35693359375
8.5899999,4.326322555541992,-8.796297073364258,-0.7996633648872375,9.6282958984375,14.2059326171875,-5.0048828125
8.6099999,4.285621166229248,-8.724471092224121,-0.7829039692878723,12.725830078125,2.6702880859375,-5.2947998046875
8.629999900000001,4.3406877517700195,-8.664615631103516,-0.6919242739677429,12.115478515625,-1.983642578125,-3.2806396484375
8.649999900000001,4.426878929138184,-8.604761123657227,-0.5841852426528931,6.9122314453125,8.270263671875,0.213623046875
8.6699999,4.529829502105713,-8.5903959274292,-0.47405192255973816,2.1820068359375,15.5181884765625,5.2947998046875
8.6899999,4.529829502105713,-8.552088737487793,-0.3998316824436188,1.40380859375,3.35693359375,10.2996826171875
8.709999900000001,4.4077253341674805,-8.525752067565918,-0.3495534360408783,1.52587890625,-15.7012939453125,11.04736328125
8.729999900000001,4.2329487800598145,-8.53532886505127,-0.3016694188117981,-1.8310546875,-14.7857666015625,5.8135986328125
8.7499999,4.072536945343018,-8.609549522399902,-0.2777273952960968,-7.2174072265625,0.701904296875,-0.8087158203125
8.7699999,4.000710964202881,-8.743624687194824,-0.304063618183136,-8.941650390625,6.7291259765625,-3.2806396484375
8.7899999,3.998316764831543,-8.9064302444458,-0.3998316824436188,-5.9814453125,0.0152587890625,-2.5482177734375
8.809999900000001,4.0294413566589355,-9.057265281677246,-0.5554547905921936,-3.4027099609375,-2.9296875,-2.6397705078125
8.8299999,4.120420932769775,-9.188945770263672,-0.7374141216278076,-1.495361328125,4.3792724609375,-5.218505859375
8.8499999,4.206612586975098,-9.255983352661133,-0.9145850539207458,3.204345703125,10.528564453125,-8.544921875
8.8699999,4.352658748626709,-9.313444137573242,-1.0606313943862915,11.1236572265625,7.7362060546875,-6.9122314453125
8.889999900000001,4.460397720336914,-9.239224433898926,-1.1420341730117798,17.0440673828125,2.01416015625,-2.593994140625
8.9099999,4.606443881988525,-9.217676162719727,-1.3048399686813354,19.927978515625,0.1373291015625,0.732421875
8.9299999,4.637568473815918,-9.184157371520996,-1.4053963422775269,35.308837890625,-3.8909912109375,0.8087158203125
8.9499999,4.730942726135254,-9.102754592895508,-1.4317326545715332,61.798095703125,-5.5389404296875,1.3427734375
8.969999900000001,4.752490520477295,-9.002198219299316,-1.2473790645599365,66.8182373046875,8.60595703125,6.1798095703125
8.9899999,4.802768707275391,-8.743624687194824,-0.7709329724311829,50.2471923828125,18.524169921875,9.979248046875
9.0099999,4.807557106018066,-8.415618896484375,-0.10773907601833344,29.5257568359375,22.2015380859375,11.4593505859375
9.0299999,4.709394931793213,-8.121131896972656,0.5554547905921936,10.6353759765625,23.0255126953125,11.3067626953125
9.049999900000001,4.479551315307617,-7.934384346008301,1.048660397529602,-7.9498291015625,23.8494873046875,9.063720703125
9.069999900000001,4.170699596405029,-7.905653953552246,1.314416766166687,-23.49853515625,21.240234375,2.9144287109375
9.0899999,3.8594532012939453,-8.020575523376465,1.3455413579940796,-33.905029296875,15.3350830078125,-4.9591064453125
9.1099999,3.646369218826294,-8.243236541748047,1.192312479019165,-38.3758544921875,9.3841552734375,-9.002685546875
9.129999900000001,3.5889084339141846,-8.523358345031738,0.9193734526634216,-39.1998291015625,4.547119140625,-7.8582763671875
9.149999900000001,3.6750996112823486,-8.813055992126465,0.5937620401382446,-38.39111328125,2.0599365234375,-4.638671875
9.1699999,3.8379054069519043,-9.078812599182129,0.2585737705230713,-35.2783203125,1.3427734375,-1.8157958984375
9.1899999,4.003105163574219,-9.26795482635498,-0.05746084079146385,-30.70068359375,0.9307861328125,-0.3509521484375
9.209999900000001,4.110844135284424,-9.378087997436523,-0.33997663855552673,-24.0631103515625,-1.6632080078125,-0.030517578125
9.229999900000001,4.153939723968506,-9.406818389892578,-0.5602431893348694,-16.448974609375,-4.730224609375,-0.4425048828125
9.2499999,4.144362926483154,-9.375694274902344,-0.7158663272857666,-9.4146728515625,-4.0283203125,-1.7852783203125
9.2699999,4.108449935913086,-9.318233489990234,-0.7948749661445618,-3.0975341796875,-2.777099609375,-3.1585693359375
9.2899999,4.041412353515625,-9.253589630126953,-0.811634361743927,2.9296875,-5.9051513671875,-3.570556640625
9.309999900000001,3.97916316986084,-9.17697525024414,-0.7733271718025208,8.7890625,-16.021728515625,-4.9591064453125
9.3299999,3.9600095748901367,-9.08838939666748,-0.6584054827690125,11.8408203125,-25.421142578125,-9.09423828125
9.3499999,4.017470359802246,-8.990227699279785,-0.4908113479614258,10.7574462890625,-20.965576171875,-13.397216796875
9.3699999,4.1874589920043945,-8.89445972442627,-0.29209262132644653,7.1868896484375,-8.9263916015625,-14.8162841796875
9.389999900000001,4.402936935424805,-8.820239067077637,-0.12928688526153564,4.6844482421875,-4.21142578125,-12.4664306640625
9.4099999,4.639962673187256,-8.753201484680176,-0.019153613597154617,3.6773681640625,-10.2081298828125,-6.9732666015625
9.4299999,4.8267107009887695,-8.686163902282715,0.011971008032560349,0.3204345703125,-13.641357421875,-2.2125244140625
9.4499999,4.948814868927002,-8.604761123657227,-0.004788403399288654,-4.3487548828125,-9.4757080078125,0.640869140625
9.469999900000001,4.977545261383057,-8.530540466308594,-0.06703764945268631,-8.1939697265625,-5.5084228515625,2.3651123046875
9.4899999,4.922478675842285,-8.470685958862305,-0.16998831927776337,-10.4217529296875,-5.340576171875,3.692626953125
9.5099999,4.817133903503418,-8.453926086425781,-0.304063618183136,-10.6964111328125,-5.2642822265625,3.9520263671875
9.5299999,4.683058738708496,-8.485051155090332,-0.45489832758903503,-10.894775390625,-1.7242431640625,4.058837890625
9.549999900000001,4.541800498962402,-8.547300338745117,-0.608127236366272,-10.6658935546875,1.8157958984375,5.340576171875
9.569999900000001,4.41969633102417,-8.635885238647461,-0.7493851184844971,-9.3536376953125,-0.7781982421875,6.011962890625
9.5899999,4.299986362457275,-8.741230010986328,-0.8786720037460327,-6.683349609375,-4.2877197265625,4.974365234375
9.6099999,4.201824188232422,-8.832210540771484,-0.9768342971801758,-2.3956298828125,-4.974365234375,4.7607421875
9.629999900000001,4.173093795776367,-8.89685344696045,-0.9289502501487732,2.288818359375,-8.9263916015625,6.439208984375
9.649999900000001,4.2090067863464355,-8.81784439086914,-0.6607996821403503,-8.087158203125,-7.965087890625,9.6588134765625
9.6699999,4.189853191375732,-8.746018409729004,-0.3926490843296051,-33.172607421875,9.5062255859375,13.18359375
9.6899999,4.077325344085693,-8.619126319885254,-0.20350714027881622,-42.8314208984375,7.6446533203125,9.7503662109375
9.709999900000001,3.885789394378662,-8.65743350982666,-0.27054479718208313,-36.92626953125,-17.6239013671875,2.99072265625
9.729999900000001,3.670311212539673,-8.7484130859375,-0.6033388376235962,-25.7568359375,-34.8358154296875,-1.1749267578125
9.7499999,3.6176388263702393,-8.98543930053711,-1.015141487121582,-17.9901123046875,-26.5350341796875,-5.0811767578125
9.7699999,3.756502389907837,-9.191340446472168,-1.3886369466781616,-10.2691650390625,-1.1749267578125,-9.8114013671875
9.7899999,3.9863457679748535,-9.390059471130371,-1.7381904125213623,1.2664794921875,14.373779296875,-11.2762451171875
9.809999900000001,4.14915132522583,-9.493009567260742,-2.051830768585205,15.380859375,11.4593505859375,-11.2457275390625
9.8299999,4.220977783203125,-9.548076629638672,-2.315192937850952,30.3192138671875,-3.082275390625,-12.5732421875
9.8499999,4.211400985717773,-9.593565940856934,-2.6144683361053467,44.4183349609375,-15.13671875,-13.0767822265625
9.8699999,4.309563159942627,-9.557653427124023,-2.7557260990142822,68.115234375,-23.5748291015625,-11.688232421875
9.889999900000001,4.58968448638916,-9.454702377319336,-2.609679937362671,91.949462890625,-15.533447265625,-6.103515625
9.9099999,4.963180065155029,-9.193734169006348,-2.1715409755706787,90.02685546875,12.786865234375,4.8980712890625
9.9299999,5.307945251464844,-8.746018409729004,-1.3407529592514038,70.404052734375,33.2794189453125,14.5263671875
9.9499999,5.396530628204346,-8.233659744262695,-0.3902548849582672,45.1812744140625,39.031982421875,18.1427001953125
9.969999900000001,4.754884719848633,-7.496245384216309,1.070208191871643,-1.2359619140625,21.026611328125,10.4217529296875
9.9899999,4.259284973144531,-7.438784599304199,1.3766659498214722,-19.9737548828125,17.486572265625,4.2724609375
10.0099999,3.845088005065918,-7.608773231506348,1.4053963422775269,-35.308837890625,20.751953125,-1.6021728515625
10.0299999,3.5936968326568604,-7.929595947265625,1.2186486721038818,-44.43359375,20.111083984375,-4.6539306640625
10.049999900000001,3.507505416870117,-8.35336971282959,0.871489405632019,-44.98291015625,12.7105712890625,-4.08935546875
10.069999900000001,3.552995204925537,-8.78193187713623,0.44532153010368347,-40.83251953125,2.4261474609375,-0.8544921875
10.0899999,3.6942532062530518,-9.150638580322266,0.009576806798577309,-36.865234375,-3.5858154296875,2.7313232421875
10.1099999,3.869029998779297,-9.418789863586426,-0.37828385829925537,-30.8380126953125,-3.23486328125,4.7149658203125
10.129999900000001,4.01268196105957,-9.5624418258667,-0.6967126727104187,-22.735595703125,-0.06103515625,5.2642822265625
10.149999900000001,4.094084739685059,-9.583989143371582,-0.9385270476341248,-13.7939453125,0.5645751953125,4.8980712890625
10.1699999,4.120420932769775,-9.526528358459473,-1.1013327836990356,-3.6773681640625,-1.5869140625,2.899169921875
10.1899999,4.1180267333984375,-9.41400146484375,-1.170764684677124,6.2255859375,-3.11279296875,0.4119873046875
10.209999900000001,4.153939723968506,-9.277531623840332,-1.139639973640442,13.0767822265625,-2.1209716796875,-0.244140625
10.229999900000001,4.228160381317139,-9.141061782836914,-1.015141487121582,15.9149169921875,1.068115234375,1.6021728515625
10.2499999,4.3191399574279785,-9.014169692993164,-0.8355764150619507,15.472412109375,4.7760009765625,4.45556640625
10.2699999,4.381389141082764,-8.908824920654297,-0.6392518281936646,13.8092041015625,7.4310302734375,6.1798095703125
10.2899999,4.371812343597412,-8.825027465820312,-0.4644751250743866,11.505126953125,8.4381103515625,6.378173828125
10.309999900000001,4.299986362457275,-8.765172004699707,-0.3256114423274994,8.9874267578125,7.8277587890625,5.6915283203125
10.3299999,4.185064792633057,-8.738836288452148,-0.22026655077934265,6.3018798828125,7.3394775390625,4.5623779296875
10.3499999,4.055777549743652,-8.757989883422852,-0.15562310814857483,3.143310546875,7.720947265625,3.47900390625
10.3699999,3.936067581176758,-8.813055992126465,-0.11971008777618408,-0.213623046875,7.8887939453125,2.5634765625
10.389999900000001,3.847482204437256,-8.889671325683594,-0.11252748221158981,-3.2958984375,7.9193115234375,1.4190673828125
10.4099999,3.801992416381836,-8.959102630615234,-0.11971008777618408,-5.645751953125,6.34765625,0.335693359375
10.4299999,3.8091750144958496,-9.009381294250488,-0.14604631066322327,-7.01904296875,4.6539306640625,0.4730224609375
10.4499999,3.8522706031799316,-9.033323287963867,-0.1843535304069519,-7.0953369140625,3.47900390625,2.1209716796875
10.469999900000001,3.9001545906066895,-9.026140213012695,-0.2346317619085312,-6.500244140625,2.4566650390625,4.82177734375
10.4899999,3.9480385780334473,-8.983044624328613,-0.28730419278144836,-6.1187744140625,1.8463134765625,6.3323974609375
10.5099999,3.9815573692321777,-8.9064302444458,-0.33279404044151306,-5.706787109375,3.96728515625,6.011962890625
10.5299999,4.005499362945557,-8.808267593383789,-0.3711012601852417,-4.425048828125,8.2855224609375,6.103515625
10.549999900000001,4.010287761688232,-8.702922821044922,-0.3998316824436188,-2.0294189453125,9.2620849609375,8.575439453125
10.569999900000001,3.995922565460205,-8.635885238647461,-0.42616790533065796,1.129150390625,4.6844482421875,12.420654296875
10.5899999,3.9600095748901367,-8.60236644744873,-0.43335050344467163,3.7384033203125,0.0457763671875,16.1895751953125
10.6099999,3.9025487899780273,-8.633491516113281,-0.4189853072166443,4.1351318359375,2.8839111328125,18.829345703125
10.629999900000001,3.8498764038085938,-8.71489429473877,-0.3758896589279175,3.936767578125,9.8114013671875,20.8740234375
10.649999900000001,3.7469255924224854,-8.853757858276367,-0.3256114423274994,4.852294921875,12.3138427734375,22.4151611328125
10.6699999,3.6798880100250244,-8.980650901794434,-0.1604115068912506,5.645751953125,10.1318359375,22.8424072265625
10.6899999,3.603273630142212,-9.040505409240723,0.15801730751991272,-5.889892578125,23.6358642578125,20.782470703125
10.709999900000001,3.4308910369873047,-9.121908187866211,0.4189853072166443,-30.70068359375,49.9267578125,17.8070068359375
10.729999900000001,3.1723172664642334,-9.193734169006348,0.5219359993934631,-41.7022705078125,37.5518798828125,9.4451904296875
10.7499999,2.868253707885742,-9.375694274902344,0.3711012601852417,-28.3355712890625,-5.767822265625,-1.2664794921875
10.7699999,2.6815059185028076,-9.643844604492188,-0.011971008032560349,-13.0767822265625,-29.6478271484375,-7.7056884765625
10.7899999,2.734178304672241,-9.938331604003906,-0.3734954595565796,-9.46044921875,-12.1612548828125,-7.4920654296875
10.809999900000001,3.00711727142334,-10.129867553710938,-0.6200982332229614,-7.110595703125,9.3994140625,-4.4097900390625
10.8299999,3.3470940589904785,-10.228029251098633,-0.7182605266571045,-0.823974609375,0.244140625,0.885009765625
10.8499999,3.6320040225982666,-10.091560363769531,-0.7422025203704834,5.9814453125,-24.444580078125,5.9967041015625
10.8699999,3.7708675861358643,-9.84495735168457,-0.667982280254364,4.547119140625,-22.8271484375,6.591796875
10.889999900000001,3.8115692138671875,-9.569623947143555,-0.5578489899635315,-0.30517578125,1.953125,-0.0457763671875
10.9099999,3.689464807510376,-9.363722801208496,-0.49559974670410156,-0.91552734375,19.5159912109375,-9.0179443359375
10.9299999,3.426102638244629,-9.30386734008789,-0.5386953949928284,5.9967041015625,6.927490234375,-14.923095703125
10.9499999,3.179499864578247,-9.344569206237793,-0.6847416758537292,16.1285400390625,-27.5421142578125,-17.3797607421875
10.969999900000001,3.0334534645080566,-9.579200744628906,-1.0223240852355957,24.078369140625,-47.8363037109375,-17.181396484375
10.9899999,3.1435868740081787,-9.72285270690918,-1.2114660739898682,42.4041748046875,-41.595458984375,-12.054443359375
11.0099999,3.56017804145813,-9.832986831665039,-1.2473790645599365,61.4166259765625,-22.735595703125,-2.5177001953125
11.0299999,4.019864559173584,-9.691728591918945,-0.9864110946655273,55.877685546875,1.9378662109375,7.415771484375
11.049999900000001,4.410119533538818,-9.311050415039062,-0.45250412821769714,38.75732421875,15.1214599609375,13.641357421875
11.069999900000001,4.489128112792969,-8.798690795898438,0.1412578970193863,19.4244384765625,18.8446044921875,15.0146484375
11.0899999,4.2329487800598145,-8.334216117858887,0.608127236366272,0.9307861328125,14.068603515625,10.528564453125
11.1099999,3.804386615753174,-8.037335395812988,0.8810662031173706,-12.2528076171875,1.2664794921875,1.953125
11.129999900000001,3.375824451446533,-7.975085735321045,0.9528923034667969,-24.0478515625,-1.7852783203125,-6.2255859375
11.149999900000001,3.1100680828094482,-8.11634349822998,0.8667010068893433,-35.0341796875,10.7421875,-10.498046875
11.1699999,3.050212860107422,-8.42040729522705,0.6584054827690125,-39.4287109375,19.2413330078125,-10.894775390625
11.1899999,3.1220390796661377,-8.803479194641113,0.33518823981285095,-37.6129150390625,14.434814453125,-8.056640625
11.209999900000001,3.251325845718384,-9.196128845214844,-0.05267243832349777,-33.0963134765625,-0.335693359375,-2.5634765625
11.229999900000001,3.3854012489318848,-9.524134635925293,-0.43335050344467163,-28.9764404296875,-12.0849609375,2.838134765625
11.2499999,3.4835634231567383,-9.742006301879883,-0.7493851184844971,-23.98681640625,-10.162353515625,5.2032470703125
11.2699999,3.552995204925537,-9.821015357971191,-0.9648633003234863,-16.754150390625,-2.1820068359375,3.11279296875
11.2899999,3.584120035171509,-9.797073364257812,-1.094150185585022,-8.30078125,3.387451171875,0.1373291015625
11.309999900000001,3.576937437057495,-9.713275909423828,-1.161187767982483,0.9002685546875,2.0294189453125,0.213623046875
11.3299999,3.5697548389434814,-9.593565940856934,-1.161187767982483,8.270263671875,-2.5177001953125,2.0294189453125
11.3499999,3.5697548389434814,-9.464279174804688,-1.0989385843276978,12.542724609375,-2.3040771484375,2.4261474609375
11.3699999,3.5960910320281982,-9.32302188873291,-0.9720458984375,13.7176513671875,1.8463134765625,1.6021728515625
11.389999900000001,3.641580820083618,-9.193734169006348,-0.8068459630012512,13.24462890625,4.302978515625,2.349853515625
11.4099999,3.687070608139038,-9.095572471618652,-0.6248866319656372,11.71875,5.2642822265625,4.7760009765625
11.4299999,3.6942532062530518,-9.042900085449219,-0.4620809257030487,9.9639892578125,6.4849853515625,6.0272216796875
11.4499999,3.6583402156829834,-9.01895809173584,-0.3256114423274994,8.30078125,7.0648193359375,5.615234375
11.469999900000001,3.579331636428833,-9.02135181427002,-0.21787235140800476,6.1492919921875,6.40869140625,4.5013427734375
11.4899999,3.4835634231567383,-9.033323287963867,-0.14365209639072418,2.9296875,6.011962890625,3.41796875
11.5099999,3.397372245788574,-9.05247688293457,-0.10055647045373917,-1.068115234375,6.4849853515625,1.46484375
11.5299999,3.337517261505127,-9.090784072875977,-0.08140286058187485,-4.058837890625,6.317138671875,-0.8544921875
11.549999900000001,3.313575267791748,-9.14345645904541,-0.0933738648891449,-5.462646484375,6.7138671875,-0.244140625
11.569999900000001,3.3063924312591553,-9.21288776397705,-0.12449848651885986,-5.43212890625,3.41796875,1.0833740234375
11.5899999,3.318363666534424,-9.275136947631836,-0.1604115068912506,-5.5694580078125,3.0364990234375,2.3193359375
11.6099999,3.3279404640197754,-9.313444137573242,-0.2106897532939911,-5.1727294921875,5.6610107421875,1.373291015625
11.629999900000001,3.3207578659057617,-9.32541561126709,-0.24899697303771973,-3.173828125,5.859375,-0.640869140625
11.649999900000001,3.3016040325164795,-9.32302188873291,-0.28730419278144836,-0.18310546875,3.387451171875,-0.5340576171875
11.6699999,3.2585084438323975,-9.301473617553711,-0.28969839215278625,2.7008056640625,-0.0457763671875,-0.0762939453125
11.6899999,3.2609026432037354,-9.263166427612305,-0.2561795711517334,4.638671875,-1.2969970703125,-1.678466796875
11.709999900000001,3.337517261505127,-9.121908187866211,0.05027823522686958,1.678466796875,2.8533935546875,-1.64794921875
11.729999900000001,3.4404678344726562,-8.904036521911621,0.33039984107017517,-21.78955078125,25.2227783203125,3.692626953125
11.7499999,3.4620156288146973,-8.755595207214355,0.5889736413955688,-46.8597412109375,29.022216796875,4.8980712890625
11.7699999,3.380612850189209,-8.640673637390137,0.5770025849342346,-52.032470703125,4.8828125,-0.335693359375
11.7899999,3.1483752727508545,-8.798690795898438,0.19393034279346466,-41.961669921875,-23.1781005859375,-0.48828125
11.809999900000001,2.9903578758239746,-9.078812599182129,-0.3471592366695404,-32.745361328125,-39.276123046875,2.4566650390625
11.8299999,2.9328970909118652,-9.425971984863281,-0.871489405632019,-21.575927734375,-25.146484375,-0.8087158203125
11.8499999,2.9735984802246094,-9.763554573059082,-1.3455413579940796,-9.6282958984375,0.2593994140625,-6.4697265625
11.8699999,3.026270866394043,-9.986215591430664,-1.6543933153152466,3.6773681640625,-1.8310546875,-8.7127685546875
11.889999900000001,3.047818660736084,-10.137049674987793,-1.889025092124939,16.9219970703125,-20.2789306640625,-9.58251953125
11.9099999,3.0813376903533936,-10.137049674987793,-2.013523578643799,28.167724609375,-35.491943359375,-10.2386474609375
11.9299999,3.179499864578247,-9.99100399017334,-1.9393033981323242,34.3017578125,-44.2657470703125,-9.8114013671875
11.9499999,3.3877954483032227,-9.967061996459961,-2.030282974243164,39.6881103515625,-41.7633056640625,-7.1563720703125
11.969999900000001,3.7038300037384033,-9.737217903137207,-1.8626888990402222,58.9599609375,-37.384033203125,-2.960205078125
11.9899999,4.043806552886963,-9.607931137084961,-1.7118542194366455,74.432373046875,-22.8271484375,3.5552978515625
12.0099999,4.3406877517700195,-9.313444137573242,-1.292868971824646,64.697265625,1.89208984375,10.498046875
12.0299999,4.486733913421631,-8.918401718139648,-0.6631938815116882,44.5709228515625,17.0440673828125,15.289306640625
12.049999900000001,4.393360137939453,-8.51138687133789,0,22.7203369140625,18.951416015625,16.0369873046875
12.069999900000001,4.072536945343018,-8.202534675598145,0.5315127968788147,2.5634765625,13.702392578125,12.6953125
12.0899999,3.6296098232269287,-8.066065788269043,0.849941611289978,-13.9312744140625,7.476806640625,7.14111328125
12.1099999,3.1962592601776123,-8.11634349822998,0.9313444495201111,-28.289794921875,8.6517333984375,1.190185546875
12.129999900000001,2.889801502227783,-8.31985092163086,0.8259995579719543,-37.53662109375,11.1236572265625,-3.2501220703125
12.149999900000001,2.7485435009002686,-8.631096839904785,0.5602431893348694,-39.5660400390625,8.5906982421875,-3.3416748046875
12.1699999,2.7461493015289307,-8.990227699279785,0.2106897532939911,-39.5355224609375,4.364013671875,-0.1983642578125
12.1899999,2.8227639198303223,-9.349357604980469,-0.18914192914962769,-35.858154296875,1.2359619140625,3.326416015625
12.209999900000001,2.9089550971984863,-9.643844604492188,-0.5746083855628967,-30.181884765625,-1.7242431640625,5.31005859375
12.229999900000001,2.9735984802246094,-9.837775230407715,-0.9074024558067322,-22.7508544921875,-5.3558349609375,5.859375
12.2499999,3.023876667022705,-9.914389610290527,-1.1492167711257935,-14.83154296875,-7.4005126953125,5.2947998046875
12.2699999,3.0597896575927734,-9.892841339111328,-1.2952631711959839,-7.6751708984375,-5.5084228515625,4.3182373046875
12.289999900000002,3.1100680828094482,-9.801861763000488,-1.3455413579940796,-1.434326171875,-2.410888671875,3.1280517578125
12.309999900000001,3.1435868740081787,-9.703699111938477,-1.3335703611373901,4.6539306640625,-0.1373291015625,1.89208984375
12.3299999,3.1890766620635986,-9.59835433959961,-1.2689268589019775,10.162353515625,-0.2593994140625,2.0599365234375
12.3499999,3.2154128551483154,-9.500192642211914,-1.1803414821624756,12.939453125,0.8087158203125,1.678466796875
12.3699999,3.2393548488616943,-9.425971984863281,-1.072602391242981,13.763427734375,1.9989013671875,0.6256103515625
12.389999900000001,3.2776620388031006,-9.346963882446289,-0.9528923034667969,13.7939453125,2.2430419921875,1.46484375
12.4099999,3.31118106842041,-9.294290542602539,-0.8355764150619507,12.4053955078125,3.90625,3.1890869140625
12.4299999,3.332728862762451,-9.26795482635498,-0.7230489253997803,10.6658935546875,4.4708251953125,4.8980712890625
12.4499999,3.332728862762451,-9.241618156433105,-0.608127236366272,7.5836181640625,3.570556640625,6.0882568359375
12.469999900000001,3.2848446369171143,-9.229647636413574,-0.5123591423034668,3.72314453125,4.3182373046875,6.439208984375
12.4899999,3.19865345954895,-9.220070838928223,-0.43335050344467163,0.701904296875,3.5247802734375,5.55419921875
12.5099999,3.0885202884674072,-9.220070838928223,-0.3878606855869293,-2.7008056640625,4.57763671875,3.814697265625
12.5299999,2.9759926795959473,-9.246406555175781,-0.37828385829925537,-5.6915283203125,7.4462890625,1.2664794921875
12.549999900000001,2.892195701599121,-9.299078941345215,-0.40222588181495667,-6.0272216796875,6.439208984375,-1.4801025390625
12.569999900000001,2.8395233154296875,-9.373299598693848,-0.44532153010368347,-5.3558349609375,3.4942626953125,-2.105712890625
12.5899999,2.82515811920166,-9.454702377319336,-0.5027823448181152,-4.0130615234375,2.4261474609375,-1.4801025390625
12.6099999,2.8347349166870117,-9.521739959716797,-0.5602431893348694,-1.64794921875,2.0294189453125,-1.6937255859375
12.629999900000001,2.8562827110290527,-9.557653427124023,-0.6177040338516235,1.251220703125,-0.3662109375,-1.9378662109375
12.649999900000001,2.8802247047424316,-9.57441234588623,-0.6727706789970398,5.5694580078125,-6.7138671875,-0.6561279296875
12.6699999,2.8778305053710938,-9.567230224609375,-0.6919242739677429,9.9945068359375,-15.106201171875,1.800537109375
12.6899999,2.956839084625244,-9.536105155944824,-0.6584054827690125,11.7645263671875,-16.9525146484375,4.7760009765625
12.709999900000001,3.141192674636841,-9.399636268615723,-0.3758896589279175,8.23974609375,-7.4005126953125,8.1787109375
12.729999900000001,3.3063924312591553,-9.10993766784668,-0.033518824726343155,-14.4500732421875,31.2042236328125,9.70458984375
12.7499999,3.339911460876465,-8.863334655761719,0.2825157940387726,-39.2913818359375,49.8046875,9.002685546875
12.7699999,3.1651346683502197,-8.645462036132812,0.3902548849582672,-44.281005859375,6.9427490234375,3.997802734375
12.789999900000002,2.8419175148010254,-8.662221908569336,0.17956513166427612,-40.1611328125,-26.153564453125,-0.396728515625
12.809999900000001,2.5665841102600098,-8.923190116882324,-0.26575639843940735,-34.5611572265625,-15.07568359375,-3.7994384765625
12.8299999,2.4660277366638184,-9.258378028869629,-0.8020575642585754,-25.9552001953125,8.056640625,-8.3465576171875
12.8499999,2.52109432220459,-9.691728591918945,-1.359906554222107,-11.322021484375,9.9639892578125,-8.85009765625
12.8699999,2.5689783096313477,-10.000580787658691,-1.8148049116134644,5.035400390625,-5.3558349609375,-6.6680908203125
12.889999900000001,2.6216509342193604,-10.256759643554688,-2.183511972427368,19.7906494140625,-17.822265625,-6.34765625
12.9099999,2.6647465229034424,-10.319009780883789,-2.3367409706115723,32.2723388671875,-27.679443359375,-8.8043212890625
12.9299999,2.760514497756958,-10.218452453613281,-2.2457611560821533,41.168212890625,-37.2467041015625,-9.58251953125
12.9499999,3.00711727142334,-10.098742485046387,-2.0638017654418945,43.0450439453125,-35.9954833984375,-5.1116943359375
12.969999900000001,3.3039982318878174,-9.904812812805176,-1.8531121015548706,50.384521484375,-29.571533203125,1.2969970703125
12.9899999,3.643975019454956,-9.742006301879883,-1.5514427423477173,69.1986083984375,-25.7568359375,7.0037841796875
13.0099999,3.8762125968933105,-9.50498104095459,-1.1994950771331787,74.951171875,-6.4544677734375,13.916015625
13.0299999,3.9240965843200684,-9.172186851501465,-0.7110779285430908,56.732177734375,14.22119140625,16.11328125
13.049999900000001,3.7636849880218506,-8.772355079650879,-0.08140286058187485,34.4696044921875,18.9208984375,12.847900390625
13.069999900000001,3.4332852363586426,-8.429984092712402,0.5099649429321289,12.054443359375,17.5323486328125,7.1258544921875
13.0899999,3.0334534645080566,-8.233659744262695,0.9409212470054626,-9.70458984375,16.5863037109375,0.9307861328125
13.1099999,2.695871114730835,-8.236053466796875,1.1563993692398071,-26.519775390625,15.3045654296875,-4.45556640625
13.129999900000001,2.4875755310058594,-8.413225173950195,1.1492167711257935,-38.0859375,13.5345458984375,-7.4310302734375
13.149999900000001,2.4229321479797363,-8.710105895996094,0.9385270476341248,-42.8466796875,9.185791015625,-5.2337646484375
13.1699999,2.4803929328918457,-9.057265281677246,0.6057330369949341,-43.0755615234375,1.9989013671875,-0.7171630859375
13.1899999,2.583343744277954,-9.399636268615723,0.19871874153614044,-40.58837890625,0.9002685546875,2.3956298828125
13.209999900000001,2.691082715988159,-9.68694019317627,-0.21308395266532898,-34.4390869140625,1.6937255859375,2.716064453125
13.229999900000001,2.7700912952423096,-9.892841339111328,-0.5961562395095825,-26.7486572265625,-0.152587890625,3.2806396484375
13.2499999,2.8155810832977295,-10.010157585144043,-0.912190854549408,-17.913818359375,-3.692626953125,4.302978515625
13.2699999,2.827552318572998,-10.04846477508545,-1.137245774269104,-8.6669921875,-2.8839111328125,2.685546875
13.289999900000002,2.82515811920166,-10.019734382629395,-1.259350061416626,0.8087158203125,-0.4119873046875,-0.48828125
13.309999900000001,2.829946517944336,-9.947908401489258,-1.2761094570159912,8.72802734375,-2.01416015625,-1.3275146484375
13.3299999,2.8634653091430664,-9.84495735168457,-1.1994950771331787,13.9007568359375,-5.2032470703125,0.67138671875
13.3499999,2.920926094055176,-9.72285270690918,-1.048660397529602,16.0064697265625,-3.90625,2.685546875
13.3699999,2.978386878967285,-9.59596061706543,-0.8595184087753296,15.13671875,3.0517578125,2.62451171875
13.389999900000001,2.999934673309326,-9.481039047241211,-0.6775590777397156,13.2293701171875,7.293701171875,1.8463134765625
13.4099999,2.9688100814819336,-9.387664794921875,-0.524330198764801,11.8865966796875,3.631591796875,2.0751953125
13.4299999,2.9041666984558105,-9.327810287475586,-0.40462008118629456,9.918212890625,-0.54931640625,1.64794921875
13.4499999,2.8395233154296875,-9.294290542602539,-0.3232172429561615,6.4239501953125,2.0904541015625,-0.4730224609375
13.469999900000001,2.7916390895843506,-9.289502143859863,-0.2753331959247589,2.471923828125,6.072998046875,-2.044677734375
13.4899999,2.7724854946136475,-9.311050415039062,-0.2585737705230713,-0.8544921875,3.936767578125,-1.2664794921875
13.5099999,2.760514497756958,-9.35654067993164,-0.2801215946674347,-3.0670166015625,-0.244140625,0.579833984375
13.5299999,2.7509377002716064,-9.411606788635254,-0.3208230137825012,-4.57763671875,-0.701904296875,0.9002685546875
13.549999900000001,2.7461493015289307,-9.461885452270508,-0.37828385829925537,-5.6304931640625,0.885009765625,-0.3662109375
13.569999900000001,2.741360902786255,-9.502586364746094,-0.4429273009300232,-5.37109375,-0.0457763671875,-1.1138916015625
13.5899999,2.7509377002716064,-9.524134635925293,-0.5123591423034668,-3.7841796875,-2.3193359375,-0.2288818359375
13.6099999,2.7700912952423096,-9.531316757202148,-0.5770025849342346,-1.5716552734375,-1.1749267578125,-0.18310546875
13.629999900000001,2.7748796939849854,-9.533711433410645,-0.6272808313369751,1.4495849609375,0.9765625,-0.5645751953125
13.649999900000001,2.738966703414917,-9.5408935546875,-0.6560112833976746,5.615234375,-7.0343017578125,2.25830078125
13.6699999,2.7724854946136475,-9.50737476348877,-0.5889736413955688,7.4310302734375,-21.97265625,7.659912109375
13.6899999,2.918531894683838,-9.315838813781738,-0.23702596127986908,0.335693359375,-12.8631591796875,9.9639892578125
13.709999900000001,2.9879636764526367,-9.071630477905273,0.14844051003456116,-26.79443359375,35.7818603515625,8.941650390625
13.729999900000001,2.736572504043579,-8.710105895996094,0.5027823448181152,-54.6112060546875,19.5465087890625,-2.471923828125
13.7499999,2.3918075561523438,-8.901641845703125,0.15322890877723694,-45.8221435546875,-20.1873779296875,-9.94873046875
13.7699999,2.1571757793426514,-9.184157371520996,-0.4357447028160095,-36.4990234375,-19.5465087890625,-12.2528076171875
13.789999900000002,2.1499931812286377,-9.667786598205566,-1.0127472877502441,-27.0538330078125,-14.46533203125,-10.4827880859375
13.809999900000001,2.2912509441375732,-10.000580787658691,-1.4963760375976562,-14.34326171875,-14.8162841796875,-7.0037841796875
13.8299999,2.5019407272338867,-10.383652687072754,-1.8698714971542358,-0.335693359375,-19.22607421875,-6.53076171875
13.8499999,2.6599581241607666,-10.45547866821289,-2.126051187515259,15.44189453125,-24.5208740234375,-6.256103515625
13.8699999,2.8203697204589844,-10.41956615447998,-2.233790159225464,28.472900390625,-33.0657958984375,-3.3111572265625
13.889999900000001,2.983175277709961,-10.26394271850586,-2.1547815799713135,35.09521484375,-36.712646484375,0.457763671875
13.9099999,3.1651346683502197,-10.053253173828125,-2.255337953567505,42.724609375,-31.55517578125,3.0975341796875
13.9299999,3.318363666534424,-9.821015357971191,-2.075772762298584,61.6455078125,-31.768798828125,3.9825439453125
13.9499999,3.4739866256713867,-9.528923034667969,-1.9273324012756348,77.728271484375,-20.0042724609375,8.11767578125
13.969999900000001,3.5051112174987793,-9.17936897277832,-1.4867992401123047,66.4520263671875,1.15966796875,11.8408203125
13.9899999,3.4356794357299805,-8.777143478393555,-0.8140285611152649,42.938232421875,13.5040283203125,11.6119384765625
14.0099999,3.224989652633667,-8.456320762634277,-0.10773907601833344,19.04296875,13.427734375,7.904052734375
14.0299999,2.937685489654541,-8.288725852966309,0.45489832758903503,-1.77001953125,9.27734375,3.0975341796875
14.049999900000001,2.674323320388794,-8.300697326660156,0.7757213711738586,-18.646240234375,8.60595703125,-0.518798828125
14.069999900000001,2.497152328491211,-8.482656478881836,0.8403648138046265,-32.28759765625,14.129638671875,-2.1820068359375
14.0899999,2.4013843536376953,-8.774748802185059,0.6560112833976746,-39.886474609375,17.6544189453125,-0.91552734375
14.1099999,2.341529369354248,-9.124302864074707,0.2968810200691223,-39.703369140625,9.46044921875,1.9989013671875
14.129999900000001,2.2912509441375732,-9.461885452270508,-0.1604115068912506,-34.72900390625,-3.448486328125,4.486083984375
14.149999900000001,2.255337953567505,-9.746794700622559,-0.6153098344802856,-28.1982421875,-8.4228515625,4.8675537109375
14.1699999,2.2577321529388428,-9.947908401489258,-1.0007762908935547,-21.270751953125,-2.7618408203125,3.3721923828125
14.1899999,2.2840683460235596,-10.062829971313477,-1.280897855758667,-13.702392578125,2.4261474609375,1.708984375
14.209999900000001,2.3343467712402344,-10.091560363769531,-1.45806884765625,-5.279541015625,0.7476806640625,1.3427734375
14.229999900000001,2.389413356781006,-10.0580415725708,-1.5418659448623657,2.899169921875,-0.9613037109375,0.2899169921875
14.2499999,2.449268341064453,-9.974244117736816,-1.53707754611969,9.3994140625,1.678466796875,-1.0833740234375
14.2699999,2.5234885215759277,-9.856928825378418,-1.4628572463989258,13.641357421875,4.852294921875,-0.9765625
14.289999900000002,2.6001031398773193,-9.732429504394531,-1.3287819623947144,15.80810546875,5.218505859375,0.2899169921875
14.309999900000001,2.669534921646118,-9.612719535827637,-1.1635819673538208,16.7236328125,6.256103515625,1.2664794921875
14.3299999,2.7054479122161865,-9.512163162231445,-0.9864110946655273,16.8914794921875,9.674072265625,1.312255859375
14.3499999,2.7293899059295654,-9.433155059814453,-0.8068459630012512,15.7623291015625,12.5579833984375,1.129150390625
14.3699999,2.7246015071868896,-9.38048267364502,-0.6488286852836609,13.6566162109375,13.36669921875,1.5106201171875
14.389999900000001,2.695871114730835,-9.346963882446289,-0.5123591423034668,11.444091796875,11.505126953125,2.6092529296875
14.4099999,2.6647465229034424,-9.339780807495117,-0.40222588181495667,8.6212158203125,10.1165771484375,3.4027099609375
14.4299999,2.626439332962036,-9.351752281188965,-0.31603461503982544,5.2337646484375,10.3912353515625,3.9215087890625
14.4499999,2.585737943649292,-9.3828763961792,-0.2513911724090576,1.739501953125,9.9639892578125,5.1116943359375
14.469999900000001,2.542642116546631,-9.425971984863281,-0.2106897532939911,-1.3885498046875,8.7890625,6.072998046875
14.4899999,2.4851813316345215,-9.481039047241211,-0.20111294090747833,-2.9754638671875,9.368896484375,5.157470703125
14.5099999,2.4205379486083984,-9.53849983215332,-0.22026655077934265,-2.86865234375,10.4217529296875,3.204345703125
14.5299999,2.3295583724975586,-9.600749015808105,-0.2537853717803955,-2.044677734375,7.7972412109375,2.410888671875
14.549999900000001,2.2577321529388428,-9.646238327026367,-0.2944868206977844,-1.5106201171875,3.5858154296875,2.532958984375
14.569999900000001,2.1954829692840576,-9.68694019317627,-0.3256114423274994,-1.220703125,3.41796875,0.4119873046875
14.5899999,2.1523873805999756,-9.696516990661621,-0.33279404044151306,-0.30517578125,9.4146728515625,-3.5400390625
14.6099999,2.1356279850006104,-9.6989107131958,-0.33758243918418884,1.77001953125,10.0555419921875,-7.0343017578125
14.629999900000001,2.188300371170044,-9.600749015808105,-0.1412578970193863,1.3427734375,1.5106201171875,-8.392333984375
14.649999900000001,2.3487119674682617,-9.452308654785156,0.1412578970193863,-14.190673828125,10.223388671875,-8.331298828125
14.6699999,2.5330653190612793,-9.260771751403809,0.40222588181495667,-35.5682373046875,38.970947265625,-6.622314453125
14.6899999,2.695871114730835,-9.133879661560059,0.5171475410461426,-49.74365234375,48.7823486328125,-8.4075927734375
14.709999900000001,2.7676970958709717,-9.162610054016113,0.22266076505184174,-48.27880859375,25.2532958984375,-8.819580078125
14.729999900000001,2.7126305103302,-9.373299598693848,-0.2968810200691223,-31.707763671875,-9.5672607421875,-3.7994384765625
14.7499999,2.650381326675415,-9.624691009521484,-0.9169792532920837,-19.22607421875,-18.06640625,0.8544921875
14.7699999,2.607285737991333,-9.938331604003906,-1.4245500564575195,-5.37109375,-10.6353759765625,2.0599365234375
14.789999900000002,2.609679937362671,-10.053253173828125,-1.721431016921997,7.32421875,-15.0909423828125,2.2430419921875
14.809999900000001,2.671929121017456,-10.122684478759766,-1.7956513166427612,16.693115234375,-19.0582275390625,3.5552978515625
14.8299999,2.7557260990142822,-10.0580415725708,-1.7094600200653076,21.4996337890625,-4.8828125,4.486083984375
14.8499999,2.7964274883270264,-9.897629737854004,-1.4987702369689941,22.0794677734375,8.056640625,4.669189453125
14.8699999,2.7916390895843506,-9.710882186889648,-1.2210428714752197,23.345947265625,0.8697509765625,4.425048828125
14.889999900000001,2.7030537128448486,-9.514557838439941,-0.9481038451194763,22.796630859375,-9.27734375,4.608154296875
14.9099999,2.58813214302063,-9.363722801208496,-0.6727706789970398,16.9219970703125,-4.0283203125,2.197265625
14.9299999,2.494758129119873,-9.272743225097656,-0.45010992884635925,8.9263916015625,9.9945068359375,-2.5177001953125
14.9499999,2.4396915435791016,-9.244012832641602,-0.29209262132644653,3.936767578125,14.434814453125,-4.852294921875
14.969999900000001,2.3989901542663574,-9.265560150146484,-0.22266076505184174,0.5035400390625,4.57763671875,-4.3792724609375
14.9899999,2.389413356781006,-9.32302188873291,-0.21787235140800476,-0.9918212890625,-3.997802734375,-3.1890869140625
15.0099999,2.432508945465088,-9.399636268615723,-0.26575639843940735,-3.5552978515625,-2.5482177734375,-2.1820068359375
15.0299999,2.52109432220459,-9.488221168518066,-0.3471592366695404,-6.7138671875,2.1514892578125,-2.3345947265625
15.049999900000001,2.5905263423919678,-9.533711433410645,-0.42616790533065796,-8.4228515625,5.401611328125,-1.3885498046875
15.069999900000001,2.647987127304077,-9.5408935546875,-0.5267243981361389,-7.415771484375,1.556396484375,-0.30517578125
15.0899999,2.63362193107605,-9.536105155944824,-0.6033388376235962,-4.4403076171875,-3.0670166015625,-0.5035400390625
15.1099999,2.609679937362671,-9.550470352172852,-0.6631938815116882,-1.77001953125,-3.5858154296875,0.18310546875
15.129999900000001,2.6024973392486572,-9.57441234588623,-0.7230489253997803,-0.1220703125,-2.0599365234375,1.0833740234375
15.149999900000001,2.5737667083740234,-9.583989143371582,-0.7326257228851318,1.678466796875,0,1.40380859375
15.1699999,2.557007312774658,-9.557653427124023,-0.730231523513794,3.326416015625,-1.6937255859375,1.8157958984375
15.1899999,2.5067291259765625,-9.533711433410645,-0.6847416758537292,3.7078857421875,-4.302978515625,2.25830078125
15.209999900000001,2.4684219360351562,-9.536105155944824,-0.6129156351089478,3.72314453125,-4.119873046875,2.5634765625
15.229999900000001,2.456450939178467,-9.588777542114258,-0.5530605912208557,3.5247802734375,-0.1068115234375,1.6632080078125
15.2499999,2.4468741416931152,-9.624691009521484,-0.5147533416748047,3.448486328125,2.5634765625,0.2593994140625
15.2699999,2.4468741416931152,-9.62947940826416,-0.49320554733276367,3.8604736328125,-2.0904541015625,0.3814697265625
15.289999900000002,2.454056739807129,-9.583989143371582,-0.4884171485900879,3.0517578125,-5.8746337890625,1.2054443359375
15.309999900000001,2.4588451385498047,-9.567230224609375,-0.5003881454467773,1.068115234375,-2.4871826171875,0.6103515625
15.3299999,2.4827871322631836,-9.57441234588623,-0.5267243981361389,-0.3662109375,3.1890869140625,-0.5645751953125
15.3499999,2.513911724090576,-9.593565940856934,-0.5913678407669067,-0.06103515625,3.4637451171875,-0.2593994140625
15.3699999,2.518700122833252,-9.593565940856934,-0.6344634294509888,1.52587890625,-2.62451171875,1.7547607421875
15.389999900000001,2.518700122833252,-9.555258750915527,-0.6607996821403503,1.678466796875,-4.8065185546875,1.800537109375
15.4099999,2.5282769203186035,-9.524134635925293,-0.6584054827690125,0.0457763671875,2.0294189453125,-0.091552734375
15.4299999,2.537853717803955,-9.524134635925293,-0.646434485912323,-1.1444091796875,7.9803466796875,-0.2899169921875
15.4499999,2.5450363159179688,-9.548076629638672,-0.6751648783683777,-0.1068115234375,5.523681640625,1.3427734375
15.469999900000001,2.5306711196899414,-9.550470352172852,-0.6799532771110535,2.2125244140625,-0.5340576171875,2.3345947265625
15.4899999,2.4803929328918457,-9.548076629638672,-0.6823474764823914,2.74658203125,-0.1983642578125,1.312255859375
15.5099999,2.4444799423217773,-9.550470352172852,-0.6440402865409851,1.6632080078125,5.31005859375,0.274658203125
15.5299999,2.4205379486083984,-9.581595420837402,-0.5770025849342346,1.617431640625,6.7901611328125,0.6561279296875
15.549999900000001,2.4444799423217773,-9.619902610778809,-0.5530605912208557,2.7618408203125,4.3792724609375,1.0833740234375
15.569999900000001,2.4372973442077637,-9.636661529541016,-0.5003881454467773,4.3792724609375,1.556396484375,1.220703125
15.5899999,2.434903144836426,-9.605537414550781,-0.4668693244457245,4.2877197265625,0.1068115234375,0.9002685546875
15.6099999,2.387019157409668,-9.579200744628906,-0.4189853072166443,2.4871826171875,2.5482177734375,0.4730224609375
15.629999900000001,2.363077163696289,-9.583989143371582,-0.3758896589279175,1.46484375,4.730224609375,-0.2593994140625
15.649999900000001,2.3726539611816406,-9.610325813293457,-0.3663128614425659,1.8463134765625,3.9520263671875,-0.6866455078125
15.6699999,2.3989901542663574,-9.615114212036133,-0.3471592366695404,2.25830078125,2.1209716796875,0.457763671875
15.6899999,2.434903144836426,-9.583989143371582,-0.33039984107017517,1.64794921875,0.0152587890625,1.3580322265625
15.709999900000001,2.4468741416931152,-9.533711433410645,-0.31842881441116333,0.335693359375,1.5411376953125,1.220703125
15.729999900000001,2.4444799423217773,-9.521739959716797,-0.304063618183136,0.1220703125,2.3193359375,0.1068115234375
15.7499999,2.4468741416931152,-9.555258750915527,-0.3280056416988373,0.335693359375,1.861572265625,0.1983642578125
15.7699999,2.449268341064453,-9.583989143371582,-0.3495534360408783,0.579833984375,0.7781982421875,0.9613037109375
15.789999900000002,2.4420857429504395,-9.591172218322754,-0.36152446269989014,0.0762939453125,0.396728515625,0.6103515625
15.809999900000001,2.427720546722412,-9.552865028381348,-0.3734954595565796,-0.48828125,2.471923828125,-1.1138916015625
15.8299999,2.403778553009033,-9.548076629638672,-0.37828385829925537,0.1068115234375,3.9520263671875,-2.01416015625
15.8499999,2.425326347351074,-9.583989143371582,-0.40701428055763245,1.0528564453125,3.47900390625,-0.4730224609375
15.869999900000002,2.4468741416931152,-9.62947940826416,-0.42377370595932007,1.8310546875,2.899169921875,2.410888671875
15.889999900000001,2.4684219360351562,-9.66299819946289,-0.42377370595932007,1.8157958984375,0.9002685546875,3.448486328125
15.9099999,2.473210334777832,-9.651026725769043,-0.40940847992897034,1.46484375,1.3275146484375,1.3885498046875
15.9299999,2.434903144836426,-9.627084732055664,-0.38067805767059326,1.800537109375,2.7008056640625,-0.274658203125
15.9499999,2.43011474609375,-9.641449928283691,-0.3758896589279175,3.082275390625,2.6092529296875,-0.030517578125
15.969999900000001,2.3918075561523438,-9.624691009521484,-0.3711012601852417,4.3792724609375,0.579833984375,0.579833984375
15.9899999,2.4181437492370605,-9.694122314453125,-0.3687070608139038,4.7760009765625,-0.79345703125,0.4730224609375
16.0099999,2.3726539611816406,-9.63187313079834,-0.33518823981285095,4.4403076171875,-1.2359619140625,0.6256103515625
16.0299999,2.3942017555236816,-9.655815124511719,-0.2944868206977844,2.7313232421875,-0.0457763671875,0.9918212890625
16.0499999,2.3535003662109375,-9.617507934570312,-0.24181437492370605,0.823974609375,2.86865234375,-0.5035400390625
16.0699999,2.3487119674682617,-9.59596061706543,-0.21547815203666687,-0.091552734375,4.669189453125,-3.8909912109375
16.089999900000002,2.3487119674682617,-9.600749015808105,-0.19632454216480255,-0.1983642578125,1.3427734375,-5.3253173828125
16.109999900000002,2.363077163696289,-9.576807022094727,-0.181959331035614,-1.3275146484375,-3.8299560546875,-3.1280517578125
16.1299999,2.3965959548950195,-9.560047149658203,-0.1604115068912506,-4.486083984375,-2.50244140625,-0.5035400390625
16.1499999,2.4157495498657227,-9.550470352172852,-0.16519992053508759,-7.0648193359375,4.1656494140625,-1.46484375
16.1699999,2.456450939178467,-9.560047149658203,-0.17956513166427612,-7.01904296875,6.2713623046875,-3.9520263671875
16.1899999,2.47560453414917,-9.560047149658203,-0.24420857429504395,-4.7760009765625,2.8533935546875,-4.21142578125
16.2099999,2.456450939178467,-9.583989143371582,-0.3064578175544739,-2.044677734375,-1.190185546875,-2.410888671875
16.2299999,2.5043349266052246,-9.59596061706543,-0.3519476354122162,-1.373291015625,0.152587890625,-3.23486328125
16.249999900000002,2.4612393379211426,-9.591172218322754,-0.3734954595565796,-1.373291015625,2.86865234375,-5.767822265625
16.269999900000002,2.537853717803955,-9.617507934570312,-0.35913026332855225,-1.2664794921875,3.4637451171875,-5.126953125
16.2899999,2.516305923461914,-9.612719535827637,-0.3519476354122162,-0.274658203125,-0.3814697265625,-0.9613037109375
16.3099999,2.5761611461639404,-9.600749015808105,-0.33279404044151306,0.1068115234375,-2.13623046875,1.007080078125
16.3299999,2.5258827209472656,-9.564835548400879,-0.2992752194404602,-0.2288818359375,-3.6468505859375,-0.67138671875
16.3499999,2.542642116546631,-9.461885452270508,-0.2106897532939911,-3.2958984375,-3.60107421875,-3.0670166015625
16.3699999,2.492363929748535,-9.394847869873047,-0.11252748221158981,-9.5977783203125,-0.457763671875,-3.021240234375
16.3899999,2.5115175247192383,-9.35893440246582,-0.031124621629714966,-15.472412109375,1.0986328125,-1.89208984375
16.4099999,2.5043349266052246,-9.32302188873291,-0.031124621629714966,-17.3492431640625,0.3662109375,-2.6702880859375
16.429999900000002,2.516305923461914,-9.445125579833984,-0.13168109953403473,-16.7236328125,-1.7242431640625,-2.0599365234375
16.4499999,2.4875755310058594,-9.452308654785156,-0.29209262132644653,-16.3116455078125,-8.8043212890625,1.800537109375
16.4699999,2.4684219360351562,-9.550470352172852,-0.4620809257030487,-15.93017578125,-13.9007568359375,2.0751953125
16.4899999,2.47560453414917,-9.617507934570312,-0.6177040338516235,-14.7857666015625,-6.8206787109375,-3.204345703125
16.5099999,2.5067291259765625,-9.651026725769043,-0.7565677165985107,-12.8021240234375,5.523681640625,-7.1868896484375
16.5299999,2.5689783096313477,-9.701305389404297,-0.9074024558067322,-9.0789794921875,5.7220458984375,-5.279541015625
16.5499999,2.612074136734009,-9.730035781860352,-1.01753568649292,-3.60107421875,-3.9520263671875,-1.220703125
16.5699999,2.6575639247894287,-9.734824180603027,-1.1180921792984009,-0.5035400390625,-7.7056884765625,-0.9918212890625
16.589999900000002,2.7030537128448486,-9.734824180603027,-1.1492167711257935,0.06103515625,-0.5645751953125,-3.5858154296875
16.609999900000002,2.7724854946136475,-9.701305389404297,-1.173158884048462,1.129150390625,6.8817138671875,-4.3487548828125
16.6299999,2.8347349166870117,-9.66299819946289,-1.1875240802764893,4.7454833984375,8.697509765625,-2.685546875
16.6499999,2.829946517944336,-9.607931137084961,-1.2066776752471924,10.31494140625,6.2255859375,-0.4425048828125
16.6699999,2.8227639198303223,-9.581595420837402,-1.1851298809051514,14.312744140625,-3.8299560546875,1.15966796875
16.6899999,2.7988216876983643,-9.536105155944824,-1.1180921792984009,13.24462890625,-6.7901611328125,2.0904541015625
16.7099999,2.786850690841675,-9.473855972290039,-0.9864110946655273,10.1165771484375,-0.5035400390625,2.3040771484375
16.7299999,2.779668092727661,-9.394847869873047,-0.8307880163192749,6.5460205078125,6.011962890625,2.685546875
16.749999900000002,2.7102363109588623,-9.334992408752441,-0.7110779285430908,4.3487548828125,7.1868896484375,4.0130615234375
16.769999900000002,2.6431987285614014,-9.332598686218262,-0.5937620401382446,4.302978515625,-0.5340576171875,5.0811767578125
16.7899999,2.5713725090026855,-9.351752281188965,-0.5315127968788147,2.8839111328125,-4.3792724609375,4.5928955078125
16.8099999,2.5091233253479004,-9.38048267364502,-0.47644615173339844,-0.42724609375,1.1749267578125,3.2196044921875
16.8299999,2.473210334777832,-9.378087997436523,-0.4572925269603729,-3.448486328125,7.7056884765625,1.5716552734375
16.8499999,2.406172752380371,-9.402029991149902,-0.4644751250743866,-3.4942626953125,8.5906982421875,0.9765625
16.8699999,2.389413356781006,-9.44752025604248,-0.4908113479614258,-0.885009765625,0.1068115234375,2.3193359375
16.8899999,2.382230758666992,-9.531316757202148,-0.5123591423034668,0.2899169921875,-3.5858154296875,3.60107421875
16.9099999,2.3989901542663574,-9.586383819580078,-0.5315127968788147,-0.3204345703125,-0.152587890625,3.387451171875
16.929999900000002,2.4181437492370605,-9.59596061706543,-0.5386953949928284,-0.396728515625,2.0751953125,1.678466796875
16.9499999,2.4013843536376953,-9.57201862335205,-0.5530605912208557,1.2359619140625,1.5716552734375,0.42724609375
16.9699999,2.410961151123047,-9.57201862335205,-0.569819986820221,4.3182373046875,-3.6163330078125,1.1138916015625
16.9899999,2.4181437492370605,-9.560047149658203,-0.569819986820221,5.9356689453125,-7.293701171875,2.5482177734375
17.0099999,2.4229321479797363,-9.603142738342285,-0.5554547905921936,4.5928955078125,-4.2724609375,3.265380859375
17.0299999,2.4660277366638184,-9.59596061706543,-0.5410895943641663,2.4871826171875,1.800537109375,1.8157958984375
17.0499999,2.432508945465088,-9.617507934570312,-0.5315127968788147,1.861572265625,4.1351318359375,-0.4119873046875
17.0699999,2.410961151123047,-9.579200744628906,-0.5386953949928284,2.6702880859375,-0.0457763671875,-0.3204345703125
17.089999900000002,2.4157495498657227,-9.583989143371582,-0.545877993106842,2.0751953125,-2.838134765625,0.8392333984375
17.109999900000002,2.4133553504943848,-9.557653427124023,-0.5626373887062073,-0.396728515625,-0.0457763671875,0.42724609375
17.1299999,2.434903144836426,-9.57441234588623,-0.569819986820221,-2.532958984375,3.5400390625,-1.3885498046875
17.1499999,2.451662540435791,-9.579200744628906,-0.5961562395095825,-2.9449462890625,3.5400390625,-1.983642578125
17.1699999,2.4636335372924805,-9.619902610778809,-0.6440402865409851,-1.7547607421875,1.8157958984375,-0.6256103515625
17.1899999,2.4612393379211426,-9.627084732055664,-0.6607996821403503,0.0152587890625,-3.1585693359375,1.312255859375
17.2099999,2.47560453414917,-9.634267807006836,-0.6919242739677429,-0.0152587890625,-1.1138916015625,1.251220703125
17.2299999,2.4827871322631836,-9.617507934570312,-0.6943184733390808,-0.1220703125,3.448486328125,-0.1678466796875
17.249999900000002,2.4588451385498047,-9.593565940856934,-0.6823474764823914,0.335693359375,3.5552978515625,-1.220703125
17.269999900000002,2.4372973442077637,-9.600749015808105,-0.6560112833976746,1.0833740234375,1.556396484375,-0.762939453125
17.2899999,2.425326347351074,-9.567230224609375,-0.6224924325942993,1.983642578125,0.79345703125,1.251220703125
17.3099999,2.3535003662109375,-9.576807022094727,-0.5554547905921936,0.9918212890625,2.166748046875,1.190185546875
17.3299999,2.3726539611816406,-9.57441234588623,-0.48602294921875,-0.18310546875,4.4708251953125,-1.4495849609375
17.3499999,2.319981336593628,-9.536105155944824,-0.4381389021873474,-0.5645751953125,4.5623779296875,-3.8604736328125
17.3699999,2.360682964324951,-9.569623947143555,-0.3758896589279175,-0.9765625,3.1585693359375,-4.7760009765625
17.3899999,2.346317768096924,-9.569623947143555,-0.3734954595565796,-0.579833984375,2.166748046875,-3.8299560546875
17.409999900000003,2.408566951751709,-9.603142738342285,-0.35434186458587646,-0.2288818359375,0.91552734375,-1.678466796875
17.429999900000002,2.4133553504943848,-9.57201862335205,-0.33997663855552673,-3.6163330078125,-1.953125,-1.2054443359375
17.4499999,2.449268341064453,-9.531316757202148,-0.2585737705230713,-7.38525390625,5.7830810546875,-4.5623779296875
17.4699999,2.4636335372924805,-9.430760383605957,-0.22026655077934265,-12.1612548828125,12.847900390625,-6.65283203125
17.4899999,2.4660277366638184,-9.354146003723145,-0.20111294090747833,-14.7552490234375,6.40869140625,-4.150390625
17.5099999,2.497152328491211,-9.363722801208496,-0.2561795711517334,-15.6402587890625,-4.6539306640625,-1.0528564453125
17.5299999,2.470816135406494,-9.337387084960938,-0.36152446269989014,-17.39501953125,-5.8441162109375,-1.190185546875
17.5499999,2.4875755310058594,-9.452308654785156,-0.5003881454467773,-17.4713134765625,-2.3956298828125,-1.64794921875
17.5699999,2.5043349266052246,-9.531316757202148,-0.6512228846549988,-15.9454345703125,-6.89697265625,1.2969970703125
17.589999900000002,2.5019407272338867,-9.612719535827637,-0.7948749661445618,-13.519287109375,-10.5438232421875,2.4871826171875
17.609999900000002,2.5115175247192383,-9.691728591918945,-0.9552865028381348,-10.31494140625,-3.8604736328125,-0.54931640625
17.6299999,2.5043349266052246,-9.730035781860352,-1.0869675874710083,-6.561279296875,1.64794921875,-3.0364990234375
17.6499999,2.516305923461914,-9.75397777557373,-1.194706678390503,-2.62451171875,-3.4027099609375,-2.105712890625
17.6699999,2.540247917175293,-9.739612579345703,-1.256955862045288,-0.3814697265625,-9.2315673828125,-0.4425048828125
17.6899999,2.580949544906616,-9.6989107131958,-1.2832920551300049,-0.3814697265625,-4.1961669921875,-2.3040771484375
17.7099999,2.6024973392486572,-9.63187313079834,-1.2737152576446533,-0.7171630859375,5.4779052734375,-5.462646484375
17.7299999,2.6647465229034424,-9.593565940856934,-1.2521674633026123,1.3275146484375,3.509521484375,-4.486083984375
17.749999900000002,2.695871114730835,-9.593565940856934,-1.2330138683319092,3.2806396484375,-3.326416015625,-1.068115234375
17.769999900000002,2.741360902786255,-9.59596061706543,-1.2330138683319092,3.5552978515625,-0.0762939453125,0.4119873046875
17.7899999,2.7724854946136475,-9.579200744628906,-1.2425906658172607,3.753662109375,8.148193359375,-1.708984375
17.8099999,2.75812029838562,-9.548076629638672,-1.2641384601593018,5.1116943359375,12.0086669921875,-4.4403076171875
17.8299999,2.7317841053009033,-9.543288230895996,-1.2952631711959839,9.0484619140625,7.7056884765625,-2.6092529296875
17.8499999,2.7054479122161865,-9.564835548400879,-1.2976573705673218,12.420654296875,-3.204345703125,2.288818359375
17.8699999,2.6839001178741455,-9.555258750915527,-1.2401964664459229,12.481689453125,-6.622314453125,4.7607421875
17.8899999,2.674323320388794,-9.521739959716797,-1.1300631761550903,10.55908203125,0.2899169921875,4.2572021484375
17.909999900000003,2.6647465229034424,-9.452308654785156,-0.993593692779541,8.6669921875,6.1187744140625,3.7994384765625
17.929999900000002,2.609679937362671,-9.41400146484375,-0.8475474119186401,7.8887939453125,4.241943359375,5.7830810546875
17.9499999,2.5498247146606445,-9.390059471130371,-0.7374141216278076,7.8125,-2.7618408203125,7.7362060546875
17.9699999,2.4468741416931152,-9.3828763961792,-0.6392518281936646,6.1187744140625,-3.631591796875,6.28662109375
17.9899999,2.3511061668395996,-9.361329078674316,-0.5506663918495178,3.4332275390625,1.0833740234375,2.6397705078125
18.0099999,2.276885747909546,-9.363722801208496,-0.4836287498474121,1.15966796875,3.692626953125,0.91552734375
18.0299999,2.229001760482788,-9.406818389892578,-0.44532153010368347,-0.1983642578125,4.3792724609375,1.068115234375
18.0499999,2.233790159225464,-9.478644371032715,-0.44771572947502136,0.518798828125,1.0833740234375,0.3509521484375
18.0699999,2.255337953567505,-9.548076629638672,-0.4596867263317108,2.13623046875,-1.1749267578125,-0.0152587890625
18.089999900000002,2.3319525718688965,-9.660603523254395,-0.4908113479614258,3.0517578125,-3.326416015625,2.62451171875
18.109999900000002,2.3750481605529785,-9.648633003234863,-0.5147533416748047,2.288818359375,-3.7994384765625,5.401611328125
18.1299999,2.427720546722412,-9.684545516967773,-0.5267243981361389,1.4190673828125,-0.640869140625,5.8441162109375
18.1499999,2.4468741416931152,-9.643844604492188,-0.5554547905921936,1.922607421875,-1.2664794921875,4.45556640625
18.1699999,2.4157495498657227,-9.615114212036133,-0.545877993106842,2.838134765625,-4.669189453125,2.5177001953125
18.1899999,2.408566951751709,-9.588777542114258,-0.5674257874488831,3.0975341796875,-5.2490234375,1.3885498046875
18.2099999,2.3774423599243164,-9.591172218322754,-0.5578489899635315,1.9073486328125,-2.5787353515625,0.9918212890625
18.2299999,2.3798365592956543,-9.560047149658203,-0.5722141861915588,0.0457763671875,1.373291015625,0.6103515625
18.249999900000002,2.33913516998291,-9.57441234588623,-0.5961562395095825,-0.3662109375,2.5482177734375,1.15966796875
18.269999900000002,2.341529369354248,-9.569623947143555,-0.6129156351089478,-0.213623046875,-1.8463134765625,1.922607421875
18.2899999,2.2577321529388428,-9.583989143371582,-0.6488286852836609,-0.5950927734375,-4.4097900390625,1.2969970703125
18.3099999,2.298433542251587,-9.593565940856934,-0.6392518281936646,-1.15966796875,-2.0904541015625,-0.3509521484375
18.3299999,2.276885747909546,-9.612719535827637,-0.6416460275650024,-2.1209716796875,2.1820068359375,-1.556396484375
18.3499999,2.3056161403656006,-9.605537414550781,-0.6584054827690125,-2.1820068359375,3.11279296875,-1.2359619140625
18.3699999,2.2888567447662354,-9.612719535827637,-0.6799532771110535,-0.5645751953125,0.640869140625,0.2288818359375
18.3899999,2.2601263523101807,-9.605537414550781,-0.7158663272857666,0.640869140625,-3.5400390625,1.1138916015625
18.409999900000003,2.2242133617401123,-9.586383819580078,-0.7182605266571045,0.5340576171875,-3.753662109375,-0.4119873046875
18.429999900000002,2.233790159225464,-9.588777542114258,-0.6823474764823914,-0.2593994140625,-0.152587890625,-2.99072265625
18.4499999,2.274491548538208,-9.591172218322754,-0.6368576288223267,-0.640869140625,2.9754638671875,-3.7384033203125
18.4699999,2.3295583724975586,-9.593565940856934,-0.5889736413955688,0.1983642578125,2.3345947265625,-2.5482177734375
18.4899999,2.3511061668395996,-9.610325813293457,-0.5626373887062073,0.579833984375,0.5035400390625,-1.9073486328125
18.5099999,2.4013843536376953,-9.615114212036133,-0.5315127968788147,-0.274658203125,1.8310546875,-2.1514892578125
18.5299999,2.365471363067627,-9.593565940856934,-0.5099649429321289,-2.197265625,4.08935546875,-2.9754638671875
18.5499999,2.346317768096924,-9.634267807006836,-0.49799394607543945,-3.3111572265625,3.0517578125,-3.7384033203125
18.5699999,2.3487119674682617,-9.605537414550781,-0.4644751250743866,-2.960205078125,-2.288818359375,-4.4403076171875
18.589999900000002,2.365471363067627,-9.605537414550781,-0.4118026793003082,-4.5013427734375,-2.9449462890625,-5.18798828125
18.609999900000002,2.473210334777832,-9.53849983215332,-0.3256114423274994,-11.1236572265625,4.852294921875,-3.662109375
18.6299999,2.557007312774658,-9.452308654785156,-0.272938996553421,-20.3704833984375,12.603759765625,0.2593994140625
18.6499999,2.557007312774658,-9.334992408752441,-0.3016694188117981,-23.4375,5.79833984375,2.4871826171875
18.6699999,2.4875755310058594,-9.351752281188965,-0.4118026793003082,-22.247314453125,-7.904052734375,-0.1068115234375
18.6899999,2.33913516998291,-9.35893440246582,-0.6153098344802856,-20.81298828125,-9.246826171875,-5.035400390625
18.7099999,2.248155355453491,-9.5408935546875,-0.8164227604866028,-18.37158203125,-9.5062255859375,-6.2713623046875
18.7299999,2.2577321529388428,-9.710882186889648,-1.0271124839782715,-14.46533203125,-10.650634765625,-3.96728515625
18.749999900000002,2.3271639347076416,-9.821015357971191,-1.2018892765045166,-9.27734375,-4.913330078125,-2.7618408203125
18.769999900000002,2.4396915435791016,-9.885659217834473,-1.359906554222107,-3.96728515625,0.030517578125,-3.6773681640625
18.7899999,2.5330653190612793,-9.892841339111328,-1.4724340438842773,0.457763671875,-1.1749267578125,-4.5166015625
18.8099999,2.609679937362671,-9.849745750427246,-1.5322890281677246,4.180908203125,-2.3956298828125,-4.119873046875
18.8299999,2.6862943172454834,-9.785101890563965,-1.5514427423477173,6.65283203125,0.2899169921875,-4.180908203125
18.8499999,2.7461493015289307,-9.684545516967773,-1.5203180313110352,7.38525390625,5.7525634765625,-4.8828125
18.8699999,2.782062292098999,-9.5624418258667,-1.45806884765625,8.36181640625,5.55419921875,-3.265380859375
18.8899999,2.782062292098999,-9.466673851013184,-1.3838485479354858,9.3994140625,-0.335693359375,-0.2899169921875
18.909999900000003,2.765302896499634,-9.418789863586426,-1.3239935636520386,9.46044921875,-3.3111572265625,0
18.929999900000002,2.741360902786255,-9.39245319366455,-1.2665326595306396,8.575439453125,1.3427734375,-2.716064453125
18.9499999,2.734178304672241,-9.373299598693848,-1.2306196689605713,7.598876953125,8.97216796875,-3.9825439453125
18.9699999,2.6886885166168213,-9.3828763961792,-1.2018892765045166,7.537841796875,8.3160400390625,-0.9765625
18.9899999,2.669534921646118,-9.425971984863281,-1.170764684677124,8.4686279296875,-1.0223388671875,2.7618408203125
19.0099999,2.6575639247894287,-9.48343276977539,-1.139639973640442,8.026123046875,-4.7149658203125,3.6773681640625
19.0299999,2.6431987285614014,-9.500192642211914,-1.0773907899856567,5.8135986328125,1.434326171875,2.9144287109375
19.0499999,2.609679937362671,-9.469067573547363,-1.0007762908935547,3.90625,7.476806640625,2.777099609375
19.0699999,2.5450363159179688,-9.437943458557129,-0.912190854549408,4.425048828125,3.72314453125,3.3111572265625
19.089999900000002,2.473210334777832,-9.423578262329102,-0.8212111592292786,6.0272216796875,-4.302978515625,2.227783203125
19.109999900000002,2.4181437492370605,-9.433155059814453,-0.7469909191131592,5.4931640625,-3.0975341796875,1.0833740234375
19.1299999,2.406172752380371,-9.452308654785156,-0.6919242739677429,4.0435791015625,1.2664794921875,1.0223388671875
19.1499999,2.47560453414917,-9.454702377319336,-0.6607996821403503,3.0364990234375,1.7547607421875,1.617431640625
19.1699999,2.4827871322631836,-9.478644371032715,-0.6272808313369751,3.8604736328125,0.274658203125,3.9825439453125
19.1899999,2.5258827209472656,-9.476250648498535,-0.6105214357376099,4.7760009765625,-4.39453125,7.049560546875
19.2099999,2.494758129119873,-9.495404243469238,-0.5650315880775452,3.3721923828125,-4.0130615234375,8.60595703125
19.2299999,2.43011474609375,-9.48343276977539,-0.5482721924781799,1.9073486328125,0.518798828125,6.561279296875
19.249999900000002,2.3535003662109375,-9.493009567260742,-0.5363011956214905,1.5869140625,3.631591796875,2.38037109375
19.269999900000002,2.315192937850952,-9.531316757202148,-0.5506663918495178,2.4566650390625,2.1514892578125,0.79345703125
19.2899999,2.2864625453948975,-9.536105155944824,-0.5674257874488831,2.74658203125,-3.41796875,2.5482177734375
19.3099999,2.298433542251587,-9.605537414550781,-0.5578489899635315,0.48828125,-3.35693359375,2.9449462890625
19.3299999,2.2912509441375732,-9.581595420837402,-0.569819986820221,-1.800537109375,1.0833740234375,0.6866455078125
19.3499999,2.319981336593628,-9.600749015808105,-0.5817909836769104,-2.5634765625,2.74658203125,-0.701904296875
19.3699999,2.341529369354248,-9.600749015808105,-0.6153098344802856,-1.89208984375,-1.89208984375,1.3885498046875
19.3899999,2.367865562438965,-9.591172218322754,-0.6631938815116882,-1.0223388671875,-5.096435546875,4.2266845703125
19.409999900000003,2.3798365592956543,-9.603142738342285,-0.6991068720817566,-1.46484375,-5.3253173828125,5.0048828125
19.429999900000002,2.3726539611816406,-9.624691009521484,-0.730231523513794,-2.777099609375,-3.662109375,3.6468505859375
19.4499999,2.2888567447662354,-9.739612579345703,-0.9457096457481384,-0.6103515625,-2.86865234375,2.471923828125
19.4699999,2.3056161403656006,-9.804255485534668,-1.1755530834197998,18.463134765625,-11.9476318359375,1.9378662109375
19.4899999,2.3080103397369385,-9.928754806518555,-1.338358759880066,39.6575927734375,-14.2669677734375,3.7689208984375
19.5099999,2.3918075561523438,-9.892841339111328,-1.3407529592514038,37.2314453125,-0.67138671875,7.3089599609375
19.5299999,2.454056739807129,-9.761159896850586,-1.0271124839782715,24.2767333984375,10.8184814453125,9.368896484375
19.5499999,2.4612393379211426,-9.536105155944824,-0.5650315880775452,11.383056640625,15.1824951171875,8.72802734375
19.5699999,2.360682964324951,-9.301473617553711,-0.1364694982767105,0.9307861328125,15.3656005859375,5.37109375
19.589999900000002,2.1930887699127197,-9.14585018157959,0.15801730751991272,-7.1563720703125,10.894775390625,1.7242431640625
19.609999900000002,2.0207061767578125,-9.105149269104004,0.2849099934101105,-13.8092041015625,4.39453125,-1.52587890625
19.6299999,1.8962076902389526,-9.167398452758789,0.26815059781074524,-19.0582275390625,4.150390625,-3.662109375
19.6499999,1.8507179021835327,-9.306262016296387,0.13407529890537262,-22.369384765625,7.598876953125,-4.1351318359375
19.6699999,1.8770540952682495,-9.469067573547363,-0.06703764945268631,-23.0560302734375,6.744384765625,-2.593994140625
19.6899999,1.9321208000183105,-9.634267807006836,-0.3016694188117981,-20.751953125,1.312255859375,-0.06103515625
19.7099999,1.9919757843017578,-9.765948295593262,-0.5291185975074768,-17.8070068359375,-2.99072265625,1.373291015625
19.7299999,2.0398597717285156,-9.856928825378418,-0.7134721279144287,-14.739990234375,-3.0059814453125,0.54931640625
19.749999900000002,2.075772762298584,-9.9000244140625,-0.849941611289978,-11.29150390625,0.0152587890625,-0.9002685546875
19.769999900000002,2.1164743900299072,-9.9000244140625,-0.9361328482627869,-7.354736328125,1.6632080078125,-1.40380859375
19.7899999,2.1475989818573,-9.871294021606445,-0.9864110946655273,-2.8076171875,1.129150390625,-1.7547607421875
19.8099999,2.1978771686553955,-9.825803756713867,-1.0007762908935547,2.01416015625,-1.129150390625,-1.7547607421875
19.8299999,2.2409727573394775,-9.773131370544434,-0.9768342971801758,5.126953125,-1.4190673828125,-1.0223388671875
19.8499999,2.2912509441375732,-9.715670585632324,-0.9193734526634216,6.1798095703125,1.220703125,-0.274658203125
19.8699999,2.3367409706115723,-9.66539192199707,-0.8379706144332886,6.2713623046875,4.2266845703125,-0.8697509765625
19.8899999,2.367865562438965,-9.622296333312988,-0.7541735172271729,6.3934326171875,5.3253173828125,-1.4801025390625
19.909999900000003,2.38462495803833,-9.583989143371582,-0.6799532771110535,6.2255859375,3.0059814453125,-0.701904296875
19.929999900000002,2.3965959548950195,-9.557653427124023,-0.6177040338516235,4.82177734375,1.2664794921875,0.3509521484375
19.9499999,2.38462495803833,-9.548076629638672,-0.569819986820221,2.0904541015625,4.2266845703125,-0.1983642578125
19.9699999,2.3582887649536133,-9.564835548400879,-0.5410895943641663,-0.1068115234375,8.4991455078125,-1.678466796875
19.9899999,2.3104045391082764,-9.612719535827637,-0.5386953949928284,-0.67138671875,6.7291259765625,-1.40380859375
20.0099999,2.250549554824829,-9.679757118225098,-0.5506663918495178,-0.4730224609375,0.5950927734375,0.91552734375
20.0299999,2.2026655673980713,-9.737217903137207,-0.5746083855628967,-0.8392333984375,-0.9765625,1.495361328125
20.0499999,2.164358377456665,-9.765948295593262,-0.5961562395095825,-1.708984375,2.38037109375,-0.579833984375
20.0699999,2.1475989818573,-9.761159896850586,-0.6153098344802856,-1.708984375,2.593994140625,-2.2430419921875
20.089999900000002,2.140416383743286,-9.734824180603027,-0.6272808313369751,-0.7476806640625,-2.2735595703125,-1.3427734375
20.109999900000002,2.166752576828003,-9.696516990661621,-0.6320692300796509,-0.3814697265625,-3.753662109375,-0.213623046875
20.1299999,2.2002713680267334,-9.655815124511719,-0.6248866319656372,-1.007080078125,1.2664794921875,-1.0833740234375
20.1499999,2.2409727573394775,-9.617507934570312,-0.6177040338516235,-1.6326904296875,5.401611328125,-2.2430419921875
20.1699999,2.2697031497955322,-9.583989143371582,-0.6129156351089478,-1.2664794921875,2.9449462890625,-1.5716552734375
20.1899999,2.27209734916687,-9.560047149658203,-0.6200982332229614,-0.335693359375,-0.3814697265625,-0.8087158203125
20.2099999,2.2673089504241943,-9.548076629638672,-0.6344634294509888,0.213623046875,0.9765625,-1.77001953125
20.2299999,2.2601263523101807,-9.545681953430176,-0.646434485912323,0.6561279296875,3.1585693359375,-2.593994140625
20.249999900000002,2.2601263523101807,-9.557653427124023,-0.6536170840263367,1.2969970703125,1.4495849609375,-1.15966796875
