# Time (seconds),Accel_X,Accel_Y,Accel_Z,Gyro_X,Gyro_Y,Gyro_Z
0.0099999,-0.5386953949928284,-10.029311180114746,-1.7812861204147339,-2.197265625,15.716552734375,-76.0498046875
0.029999900000000003,-0.26096799969673157,-9.988609313964844,-1.766920804977417,-1.9683837890625,23.4832763671875,-79.4525146484375
0.0499999,0.026336219161748886,-9.921571731567383,-1.7860745191574097,-0.6256103515625,27.587890625,-82.7484130859375
0.0699999,0.2753331959247589,-9.84256362915039,-1.86508309841156,3.8299560546875,22.7203369140625,-87.1429443359375
0.08999990000000001,0.47644615173339844,-9.696516990661621,-1.9847931861877441,8.0108642578125,13.671875,-90.3472900390625
0.10999990000000001,0.6607996821403503,-9.485827445983887,-2.0901381969451904,11.1236572265625,8.0413818359375,-92.0867919921875
0.1299999,0.849941611289978,-9.196128845214844,-2.1332337856292725,14.3585205078125,9.6282958984375,-93.7957763671875
0.14999990000000002,1.0414776802062988,-8.846575736999512,-2.1308395862579346,18.4783935546875,11.1541748046875,-94.635009765625
0.1699999,1.256955862045288,-8.463502883911133,-2.078166961669922,21.97265625,5.096435546875,-94.8333740234375
0.1899999,1.5107412338256836,-8.099584579467773,-1.9776105880737305,23.49853515625,-1.5411376953125,-96.099853515625
0.20999990000000002,1.8195933103561401,-7.785943984985352,-1.821987509727478,23.8189697265625,-1.2969970703125,-96.7254638671875
0.2299999,2.1978771686553955,-7.527369976043701,-1.5945383310317993,23.0712890625,2.13623046875,-93.4600830078125
0.2499999,2.6001031398773193,-7.3669586181640625,-1.3503297567367554,21.3165283203125,3.143310546875,-86.761474609375
0.2699999,2.9712042808532715,-7.268796443939209,-1.1300631761550903,18.6004638671875,1.434326171875,-78.7200927734375
0.28999990000000003,3.265691041946411,-7.247248649597168,-0.9768342971801758,16.1895751953125,1.373291015625,-71.2127685546875
0.3099999,3.469198226928711,-7.259219646453857,-0.9026140570640564,14.22119140625,4.39453125,-65.3533935546875
0.3299999,3.627215623855591,-7.268796443939209,-0.8643068075180054,12.176513671875,7.965087890625,-61.0809326171875
0.34999990000000003,3.7708675861358643,-7.261613845825195,-0.8475474119186401,9.552001953125,11.0321044921875,-57.5103759765625
0.3699999,3.9408559799194336,-7.2113356590271,-0.8355764150619507,6.195068359375,11.138916015625,-51.727294921875
0.3899999,4.127603530883789,-7.1251444816589355,-0.8212111592292786,2.0904541015625,6.072998046875,-42.2210693359375
0.40999990000000003,4.345476150512695,-6.981492042541504,-0.7876923680305481,-2.777099609375,0.42724609375,-31.0211181640625
0.4299999,4.551377296447754,-6.787561893463135,-0.7589619159698486,-6.011962890625,1.708984375,-21.1944580078125
0.4499999,4.730942726135254,-6.550535678863525,-0.7445967197418213,-7.26318359375,3.96728515625,-13.427734375
0.4699999,4.888959884643555,-6.301538944244385,-0.7541735172271729,-8.7432861328125,-1.5869140625,-6.53076171875
0.4899999,5.027823448181152,-6.114790916442871,-0.7972691655158997,-11.749267578125,-11.71875,1.1444091796875
0.5099999,5.149928092956543,-6.04775333404541,-0.8643068075180054,-16.6473388671875,-20.233154296875,11.7950439453125
0.5299999,5.245696067810059,-6.1052141189575195,-0.9241618514060974,-23.0865478515625,-26.123046875,25.08544921875
0.5499999,5.317522048950195,-6.265625953674316,-0.9552865028381348,-30.0140380859375,-27.1759033203125,38.39111328125
0.5699999,5.305551052093506,-6.461950302124023,-0.9864110946655273,-36.376953125,-18.5394287109375,48.3856201171875
0.5899998999999999,5.202600479125977,-6.648698329925537,-1.05105459690094,-40.5426025390625,-6.8206787109375,53.985595703125
0.6099998999999999,4.99669885635376,-6.8043212890625,-1.1827356815338135,-41.4886474609375,-0.3204345703125,56.0760498046875
0.6299999,4.730942726135254,-6.943184852600098,-1.3886369466781616,-39.00146484375,2.8533935546875,55.9844970703125
0.6499999,4.4532151222229,-7.103596210479736,-1.6496049165725708,-33.538818359375,9.613037109375,54.3365478515625
0.6699999,4.216189384460449,-7.2783732414245605,-1.9081788063049316,-26.336669921875,16.0369873046875,53.22265625
0.6899999,4.055777549743652,-7.5201873779296875,-2.1547815799713135,-18.6309814453125,15.5792236328125,54.443359375
0.7099999,3.97916316986084,-7.8098859786987305,-2.346317768096924,-10.5133056640625,8.3160400390625,58.7158203125
0.7299998999999999,3.9480385780334473,-8.14028549194336,-2.470816135406494,-3.2196044921875,1.1444091796875,66.375732421875
0.7499998999999999,3.931279182434082,-8.501810073852539,-2.5306711196899414,1.312255859375,-3.3721923828125,76.7822265625
0.7699999,3.9217023849487305,-8.815450668334961,-2.4851813316345215,4.791259765625,-3.90625,88.7908935546875
0.7899999,3.8738183975219727,-9.069235801696777,-2.365471363067627,6.805419921875,3.2501220703125,97.8851318359375
0.8099999,3.780444383621216,-9.260771751403809,-2.188300371170044,7.2479248046875,16.54052734375,105.0262451171875
0.8299999,3.5865142345428467,-9.399636268615723,-2.0231003761291504,5.9967041015625,27.2674560546875,113.6016845703125
0.8499998999999999,3.292027235031128,-9.512163162231445,-1.8962076902389526,5.218505859375,30.670166015625,122.833251953125
0.8699998999999999,2.9065608978271484,-9.619902610778809,-1.8124107122421265,7.26318359375,35.369873046875,128.8299560546875
0.8899999,2.449268341064453,-9.734824180603027,-1.7693150043487549,10.772705078125,47.5921630859375,132.354736328125
0.9099999,1.9081788063049316,-9.837775230407715,-1.7836803197860718,12.3138427734375,56.182861328125,137.7716064453125
0.9299999,1.3024457693099976,-9.931148529052734,-1.845929503440857,14.129638671875,50.994873046875,143.1427001953125
0.9499999,0.6560112833976746,-9.979032516479492,-1.9369091987609863,19.1192626953125,42.4957275390625,143.4173583984375
0.9699998999999999,0.0071826050989329815,-9.967061996459961,-2.030282974243164,26.031494140625,43.9605712890625,140.5181884765625
0.9899998999999999,-0.6368576288223267,-9.880870819091797,-2.1092917919158936,33.721923828125,48.9654541015625,139.251708984375
1.0099999,-1.2473790645599365,-9.773131370544434,-2.118868589401245,43.8079833984375,48.2635498046875,137.054443359375
1.0299999,-1.9608511924743652,-9.691728591918945,-2.099714994430542,53.985595703125,48.7213134765625,133.2244873046875
1.0499999,-2.695871114730835,-9.569623947143555,-2.0015525817871094,60.2874755859375,51.6815185546875,129.94384765625
1.0699999,-3.40216064453125,-9.457097053527832,-1.7908629179000854,64.208984375,55.511474609375,122.98583984375
1.0899999,-4.079719543457031,-9.346963882446289,-1.53707754611969,66.2689208984375,59.38720703125,115.234375
1.1099999,-4.685452938079834,-9.222464561462402,-1.2880805730819702,68.450927734375,60.6842041015625,109.527587890625
1.1299999,-5.212177276611328,-9.14585018157959,-1.0438719987869263,72.9827880859375,63.446044921875,99.5025634765625
1.1499999,-5.638344764709473,-9.071630477905273,-0.8307880163192749,74.676513671875,71.6705322265625,84.136962890625
1.1699998999999999,-5.861005783081055,-8.96389102935791,-0.5674257874488831,72.1893310546875,74.981689453125,67.2760009765625
1.1899998999999999,-5.853823184967041,-8.841787338256836,-0.26815059781074524,65.4296875,70.7244873046875,53.802490234375
1.2099999,-5.671864032745361,-8.71728801727295,0.038307227194309235,54.3060302734375,64.9261474609375,47.119140625
1.2299999,-5.406107425689697,-8.686163902282715,0.2992752194404602,41.015625,63.53759765625,44.0521240234375
1.2499999,-5.142745018005371,-8.719682693481445,0.4668693244457245,27.6336669921875,65.948486328125,43.853759765625
1.2699999,-4.908113479614258,-8.798690795898438,0.5410895943641663,16.4337158203125,67.0318603515625,47.607421875
1.2899999,-4.714183330535889,-8.848969459533691,0.5267243981361389,7.4615478515625,65.4449462890625,52.2613525390625
1.3099999,-4.6471452713012695,-8.83699893951416,0.3974374830722809,-0.579833984375,59.4024658203125,55.938720703125
1.3299999,-4.6734819412231445,-8.722076416015625,0.22744916379451752,-6.5765380859375,46.0968017578125,57.4188232421875
1.3499999,-4.774038314819336,-8.561665534973145,0.05746084079146385,-9.3994140625,37.3687744140625,56.121826171875
1.3699999,-4.960785865783691,-8.396465301513672,-0.12928688526153564,-10.9710693359375,38.5284423828125,57.098388671875
1.3899999,-5.166687488555908,-8.221688270568848,-0.28969839215278625,-10.7269287109375,36.7584228515625,60.1348876953125
1.4099999,-5.351040840148926,-8.070854187011719,-0.42616790533065796,-6.4544677734375,28.4576416015625,58.837890625
1.4299998999999999,-5.4875102043151855,-7.934384346008301,-0.5171475410461426,-1.708984375,23.8189697265625,57.342529296875
1.4499999,-5.604825973510742,-7.817068576812744,-0.586579442024231,-1.1444091796875,24.078369140625,63.4002685546875
1.4699999,-5.669469833374023,-7.706935405731201,-0.5722141861915588,-0.457763671875,20.263671875,70.7855224609375
1.4899999,-5.760449409484863,-7.589619159698486,-0.5386953949928284,2.74658203125,17.3187255859375,72.662353515625
1.5099999,-5.849034786224365,-7.462726593017578,-0.4668693244457245,3.6163330078125,15.594482421875,75.2410888671875
1.5299999,-6.042964935302734,-7.359776020050049,-0.45010992884635925,0.457763671875,10.19287109375,84.381103515625
1.5499999,-6.315904140472412,-7.242460250854492,-0.4381389021873474,-0.274658203125,1.64794921875,91.217041015625
1.5699999,-6.694188117980957,-7.127538681030273,-0.5051765441894531,6.1187744140625,2.86865234375,86.7156982421875
1.5899999,-7.070077419281006,-7.003039836883545,-0.5961562395095825,15.13671875,10.5743408203125,77.3773193359375
1.6099999,-7.3693528175354,-6.868964672088623,-0.6919242739677429,21.42333984375,11.962890625,72.2503662109375
1.6299999,-7.508216381072998,-6.7708024978637695,-0.730231523513794,24.2462158203125,4.2572021484375,73.5321044921875
1.6499999,-7.522581577301025,-6.7061591148376465,-0.6823474764823914,21.8963623046875,-0.9002685546875,82.000732421875
1.6699999,-7.548917770385742,-6.641515731811523,-0.5913678407669067,12.9852294921875,3.0059814453125,95.0164794921875
1.6899998999999999,-7.63989782333374,-6.466738700866699,-0.4644751250743866,1.373291015625,8.2244873046875,103.5919189453125
1.7099999,-7.848193168640137,-6.208165168762207,-0.3687070608139038,-6.2408447265625,16.4031982421875,98.785400390625
1.7299999,-8.17380428314209,-5.858611583709717,-0.33758243918418884,-9.2620849609375,35.2935791015625,85.693359375
1.7499999,-8.62391471862793,-5.453991413116455,-0.4165911078453064,-11.5203857421875,57.6171875,70.7244873046875
1.7699999,-9.155426979064941,-5.063736438751221,-0.6248866319656372,-12.725830078125,66.0247802734375,53.22265625
1.7899999,-9.746794700622559,-4.707000732421875,-0.9672574996948242,-10.6048583984375,58.4564208984375,32.5469970703125
1.8099999,-10.316615104675293,-4.410119533538818,-1.4053963422775269,-5.18798828125,48.736572265625,12.0086669921875
1.8299999,-10.742782592773438,-4.19224739074707,-1.845929503440857,1.312255859375,41.3665771484375,-3.8299560546875
1.8499999,-10.891223907470703,-4.0749311447143555,-2.1811177730560303,6.2408447265625,32.1502685546875,-11.9781494140625
1.8699999,-10.737994194030762,-4.062960147857666,-2.3798365592956543,8.4381103515625,22.39990234375,-11.2762451171875
1.8899999,-10.309432983398438,-4.125209331512451,-2.425326347351074,9.5672607421875,15.899658203125,-3.509521484375
1.9099999,-9.72285270690918,-4.242525577545166,-2.33913516998291,10.467529296875,17.974853515625,7.38525390625
1.9299998999999999,-9.162610054016113,-4.355052947998047,-2.2457611560821533,12.2833251953125,25.0701904296875,17.2576904296875
1.9499999,-8.741230010986328,-4.400542736053467,-2.185906171798706,15.2130126953125,19.622802734375,22.94921875
1.9699999,-8.513781547546387,-4.4077253341674805,-2.1811177730560303,17.5018310546875,5.5084228515625,26.8402099609375
1.9899999,-8.487444877624512,-4.3406877517700195,-2.22660756111145,18.6004638671875,-3.11279296875,29.296875
2.0099999,-8.571242332458496,-4.240131378173828,-2.2433669567108154,19.2108154296875,-8.056640625,29.7088623046875
2.0299999,-8.702922821044922,-4.137180328369141,-2.209848165512085,20.294189453125,-13.4429931640625,27.862548828125
2.0499999,-8.860940933227539,-4.039018154144287,-2.145204782485962,21.209716796875,-16.54052734375,25.45166015625
2.0699999,-9.004592895507812,-3.952826976776123,-2.054224967956543,23.49853515625,-14.404296875,22.705078125
2.0899999,-9.11233139038086,-3.9025487899780273,-1.9488801956176758,26.5960693359375,-8.7738037109375,19.866943359375
2.1099999,-9.165003776550293,-3.8738183975219727,-1.824381709098816,27.77099609375,-4.6539306640625,18.7225341796875
2.1299999,-9.167398452758789,-3.869029998779297,-1.6831238269805908,26.3671875,-4.608154296875,20.355224609375
2.1499999,-9.126696586608887,-3.8786067962646484,-1.5203180313110352,23.4527587890625,-6.6070556640625,22.857666015625
2.1699999,-9.078812599182129,-3.8738183975219727,-1.338358759880066,20.6298828125,-7.2021484375,23.74267578125
2.1899999,-9.040505409240723,-3.8498764038085938,-1.1516109704971313,18.280029296875,-5.5999755859375,22.27783203125
2.2099999,-9.05247688293457,-3.797203779220581,-0.993593692779541,16.78466796875,-3.021240234375,20.050048828125
2.2299999,-9.100360870361328,-3.713406801223755,-0.8906430602073669,16.90673828125,-1.77001953125,17.2119140625
2.2499999,-9.198522567749023,-3.620033025741577,-0.8547300100326538,17.6239013671875,-2.4566650390625,13.3056640625
2.2699999,-9.3828763961792,-3.5266590118408203,-0.9002198576927185,16.510009765625,-2.44140625,10.3759765625
2.2899999,-9.660603523254395,-3.4165258407592773,-1.0295066833496094,14.3280029296875,-3.9520263671875,6.5765380859375
2.3099999,-9.962273597717285,-3.318363666534424,-1.194706678390503,12.8936767578125,-11.16943359375,-1.4495849609375
2.3299999,-10.18493366241455,-3.265691041946411,-1.3551181554794312,9.5672607421875,-15.19775390625,-8.8958740234375
2.3499999,-10.218452453613281,-3.270479440689087,-1.4293384552001953,2.5482177734375,-9.2010498046875,-10.467529296875
2.3699999,-10.031704902648926,-3.3423056602478027,-1.3742717504501343,-6.3018798828125,5.9051513671875,-9.521484375
2.3899999,-9.720458984375,-3.4548330307006836,-1.2521674633026123,-13.6871337890625,24.749755859375,-12.2222900390625
2.4099999,-9.387664794921875,-3.5913026332855225,-1.1180921792984009,-19.0277099609375,36.7431640625,-16.8304443359375
2.4299999,-9.129091262817383,-3.7277719974517822,-1.0606313943862915,-22.6287841796875,42.724609375,-18.7225341796875
2.4499999,-8.978256225585938,-3.869029998779297,-1.1180921792984009,-22.88818359375,45.0592041015625,-19.4091796875
2.4699999,-8.932766914367676,-3.998316764831543,-1.2641384601593018,-19.0887451171875,42.90771484375,-20.904541015625
2.4899999,-8.990227699279785,-4.106055736541748,-1.50355863571167,-13.3819580078125,38.57421875,-21.9268798828125
2.5099999,-9.107542991638184,-4.163516521453857,-1.7884687185287476,-6.927490234375,30.517578125,-20.751953125
2.5299999,-9.217676162719727,-4.211400985717773,-2.078166961669922,0.579833984375,17.791748046875,-18.1427001953125
2.5499999,-9.275136947631836,-4.240131378173828,-2.319981336593628,6.134033203125,4.94384765625,-14.22119140625
2.5699999,-9.255983352661133,-4.261679172515869,-2.4827871322631836,9.8876953125,-3.509521484375,-10.1165771484375
2.5899999,-9.138668060302734,-4.292803764343262,-2.5306711196899414,13.031005859375,-6.195068359375,-6.89697265625
2.6099999,-8.975862503051758,-4.314351558685303,-2.4827871322631836,16.1895751953125,-4.5623779296875,-4.150390625
2.6299999,-8.801085472106934,-4.314351558685303,-2.3702597618103027,18.85986328125,-2.5177001953125,-2.105712890625
2.6499999,-8.633491516113281,-4.309563159942627,-2.205059766769409,19.10400390625,-3.72314453125,-1.0833740234375
2.6699999,-8.525752067565918,-4.2760443687438965,-2.0183119773864746,16.4947509765625,-4.3487548828125,0.1983642578125
2.6899999,-8.489839553833008,-4.244919776916504,-1.8148049116134644,12.6953125,-1.3427734375,1.52587890625
2.7099999,-8.547300338745117,-4.197035789489746,-1.6089035272598267,8.209228515625,3.387451171875,1.2969970703125
2.7299999,-8.69334602355957,-4.151545524597168,-1.4317326545715332,3.7078857421875,5.92041015625,-1.9989013671875
2.7499999,-8.9064302444458,-4.110844135284424,-1.314416766166687,-0.0457763671875,3.7841796875,-8.0413818359375
2.7699999,-9.10993766784668,-4.084507942199707,-1.2473790645599365,-2.74658203125,-1.5869140625,-14.83154296875
2.7899999,-9.241618156433105,-4.110844135284424,-1.1899182796478271,-5.645751953125,-3.5247802734375,-20.0653076171875
2.8099999,-9.272743225097656,-4.182670593261719,-1.1276689767837524,-11.0931396484375,2.410888671875,-21.1029052734375
2.8299999,-9.215282440185547,-4.304774761199951,-1.0630255937576294,-18.280029296875,7.5836181640625,-19.8516845703125
2.8499999,-9.14345645904541,-4.458003520965576,-1.0462661981582642,-24.383544921875,3.6468505859375,-19.378662109375
2.8699999,-9.100360870361328,-4.596867084503174,-1.1324573755264282,-28.5797119140625,-7.32421875,-21.331787109375
2.8899999,-9.083600997924805,-4.716577529907227,-1.314416766166687,-31.005859375,-19.0277099609375,-25.665283203125
2.9099999,-8.973467826843262,-4.845864295959473,-1.778891921043396,-31.1279296875,-27.9541015625,-34.820556640625
2.9299999,-8.848969459533691,-4.910507678985596,-1.968033790588379,-28.778076171875,-24.139404296875,-37.2161865234375
2.9499999,-8.724471092224121,-4.989516258239746,-2.10210919380188,-26.2451171875,-18.035888671875,-40.46630859375
2.9699999,-8.633491516113281,-5.0900726318359375,-2.2026655673980713,-22.5067138671875,-13.48876953125,-46.08154296875
2.9899999,-8.573636054992676,-5.161899089813232,-2.2912509441375732,-18.3258056640625,-13.580322265625,-52.6580810546875
3.0099999,-8.518569946289062,-5.25527286529541,-2.346317768096924,-14.58740234375,-17.0135498046875,-58.3038330078125
3.0299999,-8.485051155090332,-5.374982833862305,-2.3774423599243164,-11.77978515625,-16.41845703125,-60.36376953125
3.0499999,-8.487444877624512,-5.513846397399902,-2.406172752380371,-7.6446533203125,-12.7410888671875,-63.079833984375
3.0699999,-8.501810073852539,-5.657498836517334,-2.4133553504943848,-0.2593994140625,-16.448974609375,-72.998046875
3.0899999,-8.49941635131836,-5.796362400054932,-2.410961151123047,6.4697265625,-25.93994140625,-85.3729248046875
3.1099999,-8.422801971435547,-5.935225963592529,-2.363077163696289,9.429931640625,-29.052734375,-92.0257568359375
3.1299999,-8.209717750549316,-6.110002517700195,-2.231395959854126,10.3912353515625,-22.27783203125,-93.8720703125
3.1499999,-7.908048152923584,-6.366182327270508,-2.0446481704711914,10.406494140625,-16.8914794921875,-93.7957763671875
3.1699999,-7.582436561584473,-6.646304130554199,-1.843535304069519,8.4686279296875,-21.7132568359375,-92.132568359375
3.1899999,-7.292738437652588,-6.94079065322876,-1.6927006244659424,5.5999755859375,-31.982421875,-92.22412109375
3.2099999,-7.094019412994385,-7.2137298583984375,-1.5897499322891235,1.739501953125,-41.046142578125,-94.05517578125
3.2299999,-6.981492042541504,-7.443572998046875,-1.4939818382263184,-4.486083984375,-43.243408203125,-95.4437255859375
3.2499999,-6.931213855743408,-7.6351094245910645,-1.3742717504501343,-12.1307373046875,-34.9578857421875,-96.1456298828125
3.2699999,-6.907271862030029,-7.82185697555542,-1.2545616626739502,-19.6075439453125,-24.1546630859375,-95.947265625
3.2899999,-6.864176273345947,-8.003816604614258,-1.173158884048462,-25.115966796875,-22.064208984375,-94.1619873046875
3.3099999,-6.766014099121094,-8.202534675598145,-1.173158884048462,-27.374267578125,-27.9083251953125,-92.071533203125
3.3299999000000002,-6.62236213684082,-8.4108304977417,-1.256955862045288,-27.1453857421875,-35.858154296875,-92.193603515625
3.3499999,-6.390124320983887,-8.640673637390137,-1.3623007535934448,-25.604248046875,-41.4581298828125,-95.21484375
3.3699999,-6.1052141189575195,-8.89445972442627,-1.4484920501708984,-23.7884521484375,-43.8995361328125,-98.0224609375
3.3899999,-5.791574001312256,-9.172186851501465,-1.4772224426269531,-22.64404296875,-42.54150390625,-97.5799560546875
3.4099999,-5.456385612487793,-9.454702377319336,-1.4484920501708984,-21.820068359375,-37.811279296875,-94.3603515625
3.4299999,-5.140350818634033,-9.684545516967773,-1.3766659498214722,-19.9127197265625,-31.9976806640625,-90.4083251953125
3.4499999,-4.836287498474121,-9.81143856048584,-1.2761094570159912,-16.7236328125,-26.7791748046875,-87.890625
3.4699999,-4.54419469833374,-9.823410034179688,-1.1659762859344482,-12.451171875,-24.23095703125,-86.97509765625
3.4899999,-4.271255970001221,-9.734824180603027,-1.0438719987869263,-7.110595703125,-26.4739990234375,-85.906982421875
3.5099999,-4.003105163574219,-9.605537414550781,-0.9361328482627869,-1.953125,-32.2113037109375,-83.740234375
3.5299999,-3.7229835987091064,-9.469067573547363,-0.8212111592292786,2.227783203125,-43.8385009765625,-79.16259765625
3.5499999,-3.404554843902588,-9.361329078674316,-0.6871358752250671,4.1656494140625,-57.464599609375,-71.35009765625
3.5699999,-3.0190882682800293,-9.26795482635498,-0.5003881454467773,3.631591796875,-64.94140625,-61.859130859375
3.5899999,-2.5665841102600098,-9.184157371520996,-0.2537853717803955,1.007080078125,-60.2569580078125,-53.314208984375
3.6099999,-2.1068975925445557,-9.114726066589355,0.014365210197865963,-1.1138916015625,-42.022705078125,-44.647216796875
3.6299999,-1.7166426181793213,-9.057265281677246,0.2082955539226532,-2.1820068359375,-21.148681640625,-33.355712890625
3.6499999,-1.5418659448623657,-9.028534889221191,0.22026655077934265,-0.9613037109375,-10.6964111328125,-22.1405029296875
3.6699999,-1.6184803247451782,-9.006986618041992,0.05267243832349777,4.4403076171875,-15.6707763671875,-16.0980224609375
3.6899999,-1.86508309841156,-8.975862503051758,-0.20350714027881622,12.6190185546875,-20.2178955078125,-16.5557861328125
3.7099999,-2.209848165512085,-8.956708908081055,-0.4596867263317108,20.9503173828125,-11.810302734375,-20.4315185546875
3.7299999,-2.494758129119873,-8.947132110595703,-0.5985504388809204,28.01513671875,-3.997802734375,-23.223876953125
3.7499999,-2.6024973392486572,-8.98543930053711,-0.5913678407669067,30.609130859375,-1.312255859375,-23.4527587890625
3.7699999,-2.5522189140319824,-9.042900085449219,-0.4812345504760742,30.1055908203125,7.32421875,-19.4244384765625
3.7899999,-2.341529369354248,-9.107542991638184,-0.2992752194404602,27.6947021484375,19.500732421875,-11.8865966796875
3.8099999,-2.1092917919158936,-9.138668060302734,-0.12449848651885986,24.4140625,22.552490234375,-2.1820068359375
3.8299999000000002,-2.0159177780151367,-9.083600997924805,-0.028730420395731926,22.03369140625,7.8582763671875,4.974365234375
3.8499999,-2.0685901641845703,-8.96149730682373,0.011971008032560349,21.2249755859375,-14.5263671875,-0.3204345703125
3.8699999,-2.2242133617401123,-8.81784439086914,0.043095629662275314,21.026611328125,-22.88818359375,-14.2669677734375
3.8899999,-2.3511061668395996,-8.736441612243652,0.17238251864910126,16.9219970703125,-16.9219970703125,-23.0712890625
3.9099999,-2.3367409706115723,-8.7484130859375,0.3974374830722809,5.950927734375,-5.767822265625,-22.4151611328125
3.9299999,-2.1978771686553955,-8.89685344696045,0.6560112833976746,-6.8817138671875,4.425048828125,-19.927978515625
3.9499999,-1.9800047874450684,-9.121908187866211,0.8595184087753296,-16.2200927734375,12.1612548828125,-18.2342529296875
3.9699999,-1.7381904125213623,-9.375694274902344,0.9265560507774353,-22.6593017578125,15.4876708984375,-13.7786865234375
3.9899999,-1.5131354331970215,-9.617507934570312,0.8571242094039917,-28.38134765625,12.7410888671875,-5.67626953125
4.0099999,-1.3311761617660522,-9.823410034179688,0.6703764796257019,-32.9437255859375,11.016845703125,3.1890869140625
4.029999900000001,-1.2617442607879639,-9.971850395202637,0.3974374830722809,-33.5540771484375,11.474609375,11.2762451171875
4.0499999,-1.2832920551300049,-10.0580415725708,0.09816227108240128,-30.3192138671875,5.4931640625,18.2647705078125
4.069999900000001,-1.4508862495422363,-10.08198356628418,-0.20111294090747833,-27.587890625,-4.8980712890625,24.0631103515625
4.0899999000000005,-1.7070658206939697,-10.041281700134277,-0.4884171485900879,-24.5208740234375,-6.3629150390625,25.7568359375
4.1099999,-1.9584569931030273,-9.964667320251465,-0.6991068720817566,-18.035888671875,3.448486328125,22.3846435546875
4.1299999000000005,-2.121262788772583,-9.861717224121094,-0.8475474119186401,-10.6201171875,19.22607421875,17.5323486328125
4.1499999,-2.164358377456665,-9.763554573059082,-0.9169792532920837,-3.692626953125,32.0281982421875,11.53564453125
4.1699999000000005,-2.1380221843719482,-9.677363395690918,-0.912190854549408,1.6937255859375,36.7431640625,2.7313232421875
4.1899999,-2.0590133666992188,-9.605537414550781,-0.8212111592292786,2.655029296875,31.92138671875,-6.7596435546875
4.209999900000001,-1.9081788063049316,-9.588777542114258,-0.667982280254364,-2.7313232421875,22.3846435546875,-11.688232421875
4.2299999,-1.6759412288665771,-9.627084732055664,-0.4836287498474121,-11.383056640625,17.913818359375,-8.9569091796875
4.249999900000001,-1.403002142906189,-9.68933391571045,-0.30885201692581177,-17.7764892578125,19.775390625,-3.72314453125
4.2699999,-1.1468225717544556,-9.794678688049316,-0.21308395266532898,-18.0816650390625,24.810791015625,-1.9683837890625
4.289999900000001,-1.0295066833496094,-9.84495735168457,-0.23942017555236816,-17.2119140625,23.7884521484375,-1.7547607421875
4.3099999,-1.0654197931289673,-9.895236015319824,-0.36152446269989014,-17.2882080078125,16.754150390625,-1.068115234375
4.329999900000001,-1.1803414821624756,-9.907206535339355,-0.5363011956214905,-16.5252685546875,12.0697021484375,0.6866455078125
4.3499999,-1.3072341680526733,-9.904812812805176,-0.6991068720817566,-14.312744140625,12.8326416015625,2.2735595703125
4.369999900000001,-1.4077905416488647,-9.859322547912598,-0.8092401623725891,-13.0462646484375,15.472412109375,4.1351318359375
4.3899999,-1.4628572463989258,-9.78989028930664,-0.8762778043746948,-13.4429931640625,15.2130126953125,7.0648193359375
4.409999900000001,-1.4772224426269531,-9.708487510681152,-0.9074024558067322,-13.6566162109375,12.39013671875,9.46044921875
4.4299999,-1.5083470344543457,-9.646238327026367,-0.9552865028381348,-13.336181640625,12.451171875,10.101318359375
4.449999900000001,-1.5753847360610962,-9.607931137084961,-1.0582371950149536,-11.8408203125,12.9547119140625,9.368896484375
4.4699999,-1.6424223184585571,-9.581595420837402,-1.213860273361206,-8.5906982421875,8.8043212890625,7.1868896484375
4.489999900000001,-1.699883222579956,-9.548076629638672,-1.400607943534851,-4.5623779296875,5.55419921875,3.35693359375
4.5099999,-1.7094600200653076,-9.48343276977539,-1.5849615335464478,-1.190185546875,8.0108642578125,-0.6561279296875
4.529999900000001,-1.723825216293335,-9.373299598693848,-1.723825216293335,0.4425048828125,11.53564453125,-3.1585693359375
4.5499999,-1.6639702320098877,-9.32541561126709,-1.6879122257232666,-1.8310546875,12.481689453125,-4.6539306640625
4.569999900000001,-1.5897499322891235,-9.315838813781738,-1.5610195398330688,-7.4005126953125,20.294189453125,-1.5869140625
4.5899999000000005,-1.4772224426269531,-9.368511199951172,-1.3503297567367554,-12.725830078125,35.0799560546875,3.021240234375
4.609999900000001,-1.3934253454208374,-9.445125579833984,-1.2306196689605713,-13.85498046875,47.1649169921875,2.8533935546875
4.6299999000000005,-1.4700398445129395,-9.502586364746094,-1.3263877630233765,-11.6424560546875,47.2259521484375,-2.1514892578125
4.6499999,-1.6759412288665771,-9.552865028381348,-1.656787633895874,-6.77490234375,20.1568603515625,-8.72802734375
4.6699999000000005,-1.9512743949890137,-9.581595420837402,-2.1092917919158936,0.9765625,-30.1361083984375,-14.190673828125
4.6899999,-2.0254945755004883,-9.648633003234863,-2.454056739807129,6.53076171875,-78.7811279296875,-14.617919921875
4.709999900000001,-1.8531121015548706,-9.715670585632324,-2.540247917175293,7.87353515625,-94.29931640625,-6.744384765625
4.7299999,-1.4293384552001953,-9.794678688049316,-2.363077163696289,7.5225830078125,-74.9969482421875,6.3323974609375
4.749999900000001,-0.9792284965515137,-9.825803756713867,-2.0231003761291504,10.43701171875,-44.37255859375,16.17431640625
4.7699999,-0.6775590777397156,-9.813833236694336,-1.702277421951294,15.4876708984375,-18.524169921875,15.533447265625
4.789999900000001,-0.646434485912323,-9.744400978088379,-1.4844050407409668,20.8282470703125,-1.495361328125,10.101318359375
4.8099999,-0.8020575642585754,-9.691728591918945,-1.3910311460494995,26.031494140625,16.1590576171875,7.781982421875
4.829999900000001,-1.0558429956436157,-9.679757118225098,-1.4173674583435059,31.2347412109375,37.2314453125,8.4381103515625
4.8499999,-1.4891934394836426,-9.694122314453125,-1.6424223184585571,29.4189453125,35.94970703125,11.9781494140625
4.869999900000001,-1.7405846118927002,-9.708487510681152,-1.7118542194366455,37.3992919921875,-20.6146240234375,6.8817138671875
4.8899999,-1.9249382019042969,-9.706093788146973,-1.6950948238372803,35.797119140625,-25.4058837890625,4.638671875
4.909999900000001,-1.9584569931030273,-9.670180320739746,-1.460463047027588,26.397705078125,11.8865966796875,6.6680908203125
4.9299999,-1.8483237028121948,-9.66539192199707,-1.0797849893569946,19.7296142578125,21.1639404296875,4.0435791015625
4.949999900000001,-1.7525556087493896,-9.684545516967773,-0.7350199222564697,13.9617919921875,-6.3018798828125,1.64794921875
4.9699999,-1.6927006244659424,-9.72285270690918,-0.4405331015586853,4.57763671875,-27.801513671875,4.2572021484375
4.989999900000001,-1.6400281190872192,-9.75397777557373,-0.17956513166427612,-8.6822509765625,-16.7083740234375,7.5836181640625
5.0099999,-1.6041151285171509,-9.773131370544434,0.009576806798577309,-21.8353271484375,8.3465576171875,5.828857421875
5.029999900000001,-1.625662922859192,-9.785101890563965,0.047884032130241394,-30.1055908203125,18.9056396484375,2.227783203125
5.0499999,-1.745373010635376,-9.775525093078613,-0.11013327538967133,-32.1807861328125,8.331298828125,0.152587890625
5.069999900000001,-1.8770540952682495,-9.780313491821289,-0.4429273009300232,-32.77587890625,-7.354736328125,-0.5645751953125
5.0899999000000005,-1.9105730056762695,-9.787496566772461,-0.7781155705451965,-32.8521728515625,-16.2200927734375,1.0528564453125
5.109999900000001,-1.845929503440857,-9.773131370544434,-1.0797849893569946,-32.073974609375,-4.5013427734375,5.5084228515625
5.1299999000000005,-1.7166426181793213,-9.751583099365234,-1.2976573705673218,-28.0303955078125,18.00537109375,8.636474609375
5.1499999,-1.647210717201233,-9.732429504394531,-1.50355863571167,-22.552490234375,32.2723388671875,9.2926025390625
5.1699999000000005,-1.7262194156646729,-9.696516990661621,-1.7381904125213623,-14.3890380859375,29.815673828125,6.0882568359375
5.1899999,-1.9273324012756348,-9.658209800720215,-1.987187385559082,-6.1187744140625,21.0418701171875,-0.091552734375
5.209999900000001,-2.1571757793426514,-9.622296333312988,-2.2002713680267334,0.1220703125,18.035888671875,-6.34765625
5.2299999,-2.3271639347076416,-9.564835548400879,-2.3104045391082764,3.143310546875,16.204833984375,-11.260986328125
5.249999900000001,-2.363077163696289,-9.526528358459473,-2.3056161403656006,3.5552978515625,11.4288330078125,-14.22119140625
5.2699999,-2.2577321529388428,-9.500192642211914,-2.1930887699127197,1.89208984375,8.3770751953125,-14.8773193359375
5.289999900000001,-2.0590133666992188,-9.493009567260742,-2.030282974243164,-1.007080078125,12.420654296875,-13.6566162109375
5.3099999,-1.8052281141281128,-9.50498104095459,-1.8602946996688843,-3.9215087890625,16.9525146484375,-11.322021484375
5.329999900000001,-1.5729905366897583,-9.521739959716797,-1.7334020137786865,-5.706787109375,13.702392578125,-7.965087890625
5.3499999,-1.381454348564148,-9.53849983215332,-1.6328455209732056,-7.50732421875,8.1939697265625,-4.2724609375
5.369999900000001,-1.2473790645599365,-9.545681953430176,-1.5658079385757446,-11.41357421875,12.4664306640625,-1.4801025390625
5.3899999,-1.1851298809051514,-9.528923034667969,-1.5107412338256836,-16.5252685546875,21.1029052734375,-0.762939453125
5.409999900000001,-1.173158884048462,-9.502586364746094,-1.4772224426269531,-20.93505859375,21.6522216796875,-0.396728515625
5.4299999,-1.2066776752471924,-9.485827445983887,-1.4939818382263184,-24.0020751953125,15.045166015625,2.227783203125
5.449999900000001,-1.2976573705673218,-9.481039047241211,-1.5945383310317993,-24.7344970703125,9.185791015625,7.1258544921875
5.4699999,-1.4173674583435059,-9.490615844726562,-1.7501614093780518,-23.37646484375,3.082275390625,11.749267578125
5.489999900000001,-1.5466543436050415,-9.509769439697266,-1.9512743949890137,-19.805908203125,-5.126953125,15.7318115234375
5.5099999,-1.6903064250946045,-9.536105155944824,-2.1787235736846924,-13.73291015625,-13.336181640625,20.08056640625
5.529999900000001,-1.8195933103561401,-9.543288230895996,-2.38462495803833,-5.279541015625,-17.7154541015625,24.261474609375
5.5499999,-1.9369091987609863,-9.548076629638672,-2.5665841102600098,4.82177734375,-18.157958984375,25.69580078125
5.569999900000001,-2.0685901641845703,-9.53849983215332,-2.719813108444214,16.5252685546875,-22.0489501953125,24.383544921875
5.5899999000000005,-2.1763293743133545,-9.512163162231445,-2.8179752826690674,29.0374755859375,-27.9693603515625,23.4222412109375
5.609999900000001,-2.248155355453491,-9.495404243469238,-2.832340717315674,40.374755859375,-26.18408203125,23.7579345703125
5.6299999000000005,-2.274491548538208,-9.473855972290039,-2.741360902786255,48.431396484375,-16.3421630859375,24.7344970703125
5.6499999,-2.2433669567108154,-9.459490776062012,-2.5522189140319824,52.886962890625,-7.659912109375,26.4739990234375
5.6699999000000005,-2.212242364883423,-9.430760383605957,-2.3032219409942627,54.99267578125,-5.6915283203125,30.09033203125
5.6899999,-2.1978771686553955,-9.370905876159668,-2.0207061767578125,54.74853515625,-5.5999755859375,34.1644287109375
5.709999900000001,-2.2194249629974365,-9.272743225097656,-1.7310078144073486,52.7496337890625,-2.5787353515625,37.017822265625
5.7299999,-2.2912509441375732,-9.148244857788086,-1.4484920501708984,48.9501953125,-0.0457763671875,39.031982421875
5.749999900000001,-2.3989901542663574,-9.002198219299316,-1.2066776752471924,46.1883544921875,-6.378173828125,41.412353515625
5.7699999,-2.5474305152893066,-8.875306129455566,-0.9816226959228516,44.9676513671875,-20.9197998046875,44.677734375
5.789999900000001,-2.760514497756958,-8.786720275878906,-0.7661445140838623,40.802001953125,-31.524658203125,50.2777099609375
5.8099999,-2.9951462745666504,-8.695740699768066,-0.5171475410461426,32.928466796875,-33.8134765625,56.7779541015625
5.829999900000001,-3.201047658920288,-8.62630844116211,-0.21547815203666687,25.5584716796875,-31.1737060546875,60.302734375
5.8499999,-3.3734302520751953,-8.578424453735352,0.07422025501728058,20.1873779296875,-26.3214111328125,62.591552734375
5.869999900000001,-3.5051112174987793,-8.571242332458496,0.31124621629714966,16.17431640625,-24.9786376953125,66.7266845703125
5.8899999,-3.6391866207122803,-8.592789649963379,0.4836287498474121,13.12255859375,-24.0325927734375,72.235107421875
5.909999900000001,-3.804386615753174,-8.607154846191406,0.5602431893348694,12.1307373046875,-18.218994140625,75.5615234375
5.9299999,-4.010287761688232,-8.580819129943848,0.5626373887062073,14.34326171875,-18.37158203125,77.2247314453125
5.949999900000001,-4.244919776916504,-8.556877136230469,0.5123591423034668,16.937255859375,-32.9742431640625,80.902099609375
5.9699999,-4.513070106506348,-8.497021675109863,0.5315127968788147,15.13671875,-47.8973388671875,87.8143310546875
5.989999900000001,-4.771644115447998,-8.418013572692871,0.6440402865409851,10.955810546875,-35.247802734375,93.3837890625
6.0099999,-5.080495834350586,-8.276755332946777,0.8427590131759644,8.4381103515625,-5.126953125,94.1314697265625
6.029999900000001,-5.43723201751709,-8.106766700744629,1.0223240852355957,7.75146484375,7.4005126953125,93.414306640625
6.0499999,-5.810727596282959,-7.879317760467529,1.1252747774124146,6.9122314453125,-3.72314453125,94.482421875
6.069999900000001,-6.172252178192139,-7.692570209503174,1.137245774269104,6.6070556640625,-9.0789794921875,95.8709716796875
6.0899999000000005,-6.528987884521484,-7.532158374786377,1.113303780555725,6.5155029296875,0.213623046875,99.2584228515625
6.109999900000001,-6.873753070831299,-7.378929615020752,1.1061211824417114,4.7607421875,2.716064453125,103.94287109375
6.1299999000000005,-7.261613845825195,-7.2137298583984375,1.1109095811843872,3.173828125,-4.0283203125,103.1951904296875
6.149999900000001,-7.69735860824585,-7.005434036254883,1.1180921792984009,3.692626953125,-7.293701171875,95.428466796875
6.1699999000000005,-8.094796180725098,-6.7708024978637695,1.1228805780410767,5.1422119140625,-4.2724609375,86.1358642578125
6.1899999,-8.396465301513672,-6.557718276977539,1.137245774269104,5.462646484375,-1.40380859375,79.7119140625
6.209999900000001,-8.611943244934082,-6.361393928527832,1.1037269830703735,5.5999755859375,0.091552734375,74.6002197265625
6.2299999,-8.7484130859375,-6.191405773162842,1.0414776802062988,8.2550048828125,1.861572265625,66.131591796875
6.249999900000001,-8.825027465820312,-6.054935932159424,0.933738648891449,12.3138427734375,5.8746337890625,56.7626953125
6.2699999,-8.87291145324707,-5.9304375648498535,0.8092401623725891,14.984130859375,5.157470703125,50.8880615234375
6.289999900000001,-8.877699851989746,-5.8442463874816895,0.7038952708244324,15.93017578125,-3.662109375,46.2646484375
6.3099999,-8.875306129455566,-5.7772088050842285,0.6416460275650024,16.510009765625,-10.19287109375,39.0167236328125
6.329999900000001,-8.848969459533691,-5.70777702331543,0.646434485912323,16.7388916015625,-10.8489990234375,30.8074951171875
6.3499999,-8.796297073364258,-5.6670756340026855,0.7158663272857666,15.6097412109375,-9.6435546875,26.4739990234375
6.369999900000001,-8.731653213500977,-5.600037574768066,0.8355764150619507,14.4195556640625,-7.110595703125,25.0244140625
6.3899999,-8.683769226074219,-5.556941986083984,0.9672574996948242,15.625,-1.495361328125,20.6298828125
6.409999900000001,-8.683769226074219,-5.494692802429199,1.091755986213684,18.2647705078125,4.4403076171875,14.862060546875
6.4299999,-8.729259490966797,-5.415684223175049,1.194706678390503,20.1416015625,7.049560546875,11.6119384765625
6.449999900000001,-8.810662269592285,-5.339069843292236,1.280897855758667,21.30126953125,7.354736328125,10.772705078125
6.4699999,-8.920795440673828,-5.260061264038086,1.3479355573654175,22.0489501953125,6.195068359375,9.82666015625
6.489999900000001,-9.040505409240723,-5.1810526847839355,1.4197616577148438,22.186279296875,2.227783203125,7.904052734375
6.5099999,-9.150638580322266,-5.080495834350586,1.4963760375976562,21.392822265625,-2.2430419921875,6.3629150390625
6.529999900000001,-9.222464561462402,-4.977545261383057,1.5825673341751099,19.9127197265625,-4.8980712890625,5.37109375
6.5499999,-9.248801231384277,-4.886565685272217,1.6735470294952393,18.2647705078125,-6.1492919921875,4.4403076171875
6.569999900000001,-9.244012832641602,-4.72376012802124,1.8171991109848022,16.0369873046875,-6.8359375,0.0762939453125
6.5899999000000005,-9.210494041442871,-4.642356872558594,1.8794482946395874,15.0146484375,-6.622314453125,-5.9051513671875
6.609999900000001,-9.136273384094238,-4.565742492675781,1.9345149993896484,12.3748779296875,-4.3487548828125,-10.3912353515625
6.6299999000000005,-9.014169692993164,-4.501099109649658,1.987187385559082,8.392333984375,-0.213623046875,-11.0321044921875
6.649999900000001,-8.846575736999512,-4.479551315307617,2.030282974243164,4.5623779296875,2.716064453125,-9.735107421875
6.6699999000000005,-8.669404029846191,-4.477157115936279,2.0446481704711914,0.9918212890625,4.180908203125,-7.5531005859375
6.6899999,-8.51138687133789,-4.49870491027832,2.030282974243164,-2.288818359375,4.0130615234375,-4.7149658203125
6.709999900000001,-8.398859977722168,-4.51067590713501,1.9776105880737305,-4.8828125,3.0975341796875,-2.105712890625
6.7299999,-8.324639320373535,-4.525041103363037,1.9081788063049316,-6.2408447265625,2.3040771484375,-0.8697509765625
6.749999900000001,-8.291120529174805,-4.537012100219727,1.824381709098816,-6.3018798828125,4.33349609375,-0.244140625
6.7699999,-8.288725852966309,-4.5394062995910645,1.7310078144073486,-5.2642822265625,7.2784423828125,0.946044921875
6.789999900000001,-8.300697326660156,-4.5394062995910645,1.6376339197158813,-3.23486328125,7.6446533203125,2.5634765625
6.8099999,-8.327033042907715,-4.5394062995910645,1.534683346748352,-0.67138671875,5.889892578125,5.035400390625
6.829999900000001,-8.372523307800293,-4.551377296447754,1.4221558570861816,1.6021728515625,3.47900390625,8.9111328125
6.8499999,-8.458714485168457,-4.587290287017822,1.3239935636520386,3.7994384765625,3.5400390625,13.00048828125
6.869999900000001,-8.59997272491455,-4.6471452713012695,1.256955862045288,5.7373046875,10.0555419921875,13.73291015625
6.8899999,-8.793902397155762,-4.73573112487793,1.256955862045288,7.3089599609375,23.3306884765625,7.62939453125
6.909999900000001,-9.028534889221191,-4.853046894073486,1.278503656387329,8.60595703125,38.360595703125,-5.8441162109375
6.9299999,-9.320627212524414,-4.948814868927002,1.278503656387329,10.5743408203125,41.5191650390625,-23.62060546875
6.949999900000001,-9.622296333312988,-5.0014872550964355,1.2521674633026123,12.7105712890625,31.2042236328125,-43.51806640625
6.9699999,-9.895236015319824,-5.023035049438477,1.2018892765045166,12.7410888671875,24.5819091796875,-63.720703125
6.989999900000001,-10.101137161254883,-5.032611846923828,1.1635819673538208,10.711669921875,25.0701904296875,-82.977294921875
7.0099999,-10.187328338623047,-5.078101634979248,1.194706678390503,7.50732421875,23.1475830078125,-100.4791259765625
7.029999900000001,-10.168174743652344,-5.22175407409668,1.2641384601593018,3.2196044921875,20.233154296875,-116.0736083984375
7.0499999,-10.053253173828125,-5.480327606201172,1.335964560508728,-1.52587890625,15.5792236328125,-129.5013427734375
7.069999900000001,-9.825803756713867,-5.875370979309082,1.4532804489135742,-6.8511962890625,7.720947265625,-139.495849609375
7.0899999000000005,-9.48343276977539,-6.385335922241211,1.5753847360610962,-11.322021484375,8.8653564453125,-142.6849365234375
7.109999900000001,-9.062053680419922,-6.981492042541504,1.6615760326385498,-14.9383544921875,17.27294921875,-138.397216796875
7.1299999000000005,-8.62391471862793,-7.556100368499756,1.656787633895874,-17.4560546875,13.4429931640625,-131.7901611328125
7.149999900000001,-8.190564155578613,-8.070854187011719,1.556231141090393,-17.364501953125,-5.584716796875,-129.2724609375
7.1699999000000005,-7.750030994415283,-8.463502883911133,1.3694833517074585,-16.8914794921875,-20.8587646484375,-127.5634765625
7.1899999,-7.261613845825195,-8.767566680908203,1.2066776752471924,-17.27294921875,-25.5889892578125,-122.61962890625
7.209999900000001,-6.694188117980957,-8.96389102935791,1.1180921792984009,-17.578125,-24.7344970703125,-116.4093017578125
7.2299999,-6.0405707359313965,-9.05487060546875,1.1061211824417114,-17.242431640625,-21.2860107421875,-112.5640869140625
7.249999900000001,-5.307945251464844,-9.083600997924805,1.1755530834197998,-16.876220703125,-10.43701171875,-110.626220703125
7.2699999,-4.551377296447754,-9.083600997924805,1.2641384601593018,-15.9149169921875,10.040283203125,-106.658935546875
7.289999900000001,-3.866635799407959,-9.090784072875977,1.3120225667953491,-13.8702392578125,29.9835205078125,-100.5859375
7.3099999,-3.3039982318878174,-9.136273384094238,1.2880805730819702,-11.0931396484375,42.66357421875,-95.76416015625
7.329999900000001,-2.9472622871398926,-9.181763648986816,1.1635819673538208,-8.270263671875,55.0537109375,-93.44482421875
7.3499999,-2.738966703414917,-9.220070838928223,0.9528923034667969,-5.096435546875,69.7784423828125,-92.59033203125
7.369999900000001,-2.6001031398773193,-9.229647636413574,0.7086837291717529,-2.1209716796875,78.7353515625,-92.6055908203125
7.3899999,-2.5977089405059814,-9.248801231384277,0.42616790533065796,-0.5950927734375,82.03125,-91.7816162109375
7.409999900000001,-2.7700912952423096,-9.306262016296387,0.047884032130241394,-0.030517578125,80.535888671875,-89.111328125
7.4299999,-3.0334534645080566,-9.361329078674316,-0.35913026332855225,0.4730224609375,68.3746337890625,-85.6170654296875
7.449999900000001,-3.3207578659057617,-9.430760383605957,-0.7206547260284424,1.0528564453125,52.734375,-84.1522216796875
7.4699999,-3.44765043258667,-9.428366661071777,-1.0079588890075684,3.1585693359375,44.3267822265625,-85.174560546875
7.489999900000001,-3.308786630630493,-9.361329078674316,-1.170764684677124,7.7056884765625,35.46142578125,-86.6851806640625
7.5099999,-2.96162748336792,-9.263166427612305,-1.2234370708465576,12.8631591796875,20.4620361328125,-87.7838134765625
7.529999900000001,-2.4875755310058594,-9.181763648986816,-1.2186486721038818,17.7154541015625,8.331298828125,-88.2568359375
7.5499999,-1.9800047874450684,-9.124302864074707,-1.1516109704971313,22.7813720703125,2.4566650390625,-89.141845703125
7.569999900000001,-1.4676456451416016,-9.074024200439453,-0.993593692779541,27.252197265625,-0.244140625,-91.6595458984375
7.5899999000000005,-0.9768342971801758,-8.992621421813965,-0.7709329724311829,30.029296875,0.8697509765625,-96.1151123046875
7.609999900000001,-0.47165772318840027,-8.899248123168945,-0.47165772318840027,30.94482421875,5.218505859375,-101.50146484375
7.6299999000000005,0.038307227194309235,-8.825027465820312,-0.16759411990642548,31.9671630859375,12.1002197265625,-106.536865234375
7.649999900000001,0.667982280254364,-8.892065048217773,0.1364694982767105,34.9273681640625,17.4407958984375,-110.5499267578125
7.6699999000000005,1.2856862545013428,-9.038111686706543,0.4812345504760742,37.2772216796875,24.4293212890625,-110.076904296875
7.6899999,1.8818424940109253,-9.29189682006836,0.7613561153411865,35.9649658203125,43.39599609375,-103.729248046875
7.709999900000001,2.3965959548950195,-9.524134635925293,1.0414776802062988,33.1878662109375,55.6182861328125,-93.0023193359375
7.7299999,2.7892448902130127,-9.713275909423828,1.280897855758667,30.029296875,54.0313720703125,-80.2001953125
7.749999900000001,3.047818660736084,-9.770736694335938,1.4389152526855469,27.7862548828125,50.4150390625,-67.0623779296875
7.7699999,3.2154128551483154,-9.710882186889648,1.5753847360610962,26.4892578125,45.196533203125,-57.0220947265625
7.789999900000001,3.268085241317749,-9.552865028381348,1.7094600200653076,24.7344970703125,39.4439697265625,-51.8035888671875
7.8099999,3.2130186557769775,-9.351752281188965,1.8195933103561401,23.5748291015625,36.4227294921875,-49.285888671875
7.829999900000001,3.0813376903533936,-9.208099365234375,1.922544002532959,23.345947265625,35.8734130859375,-48.5992431640625
7.8499999,2.9328970909118652,-9.117119789123535,2.0422539710998535,21.942138671875,39.61181640625,-50.140380859375
7.869999900000001,2.806004285812378,-9.02135181427002,2.2218191623687744,18.5394287109375,50.2166748046875,-53.6041259765625
7.8899999,2.8395233154296875,-8.959102630615234,2.4444799423217773,14.58740234375,68.7255859375,-57.9071044921875
7.909999900000001,3.0526070594787598,-8.865729331970215,2.698265314102173,9.674072265625,79.8797607421875,-58.807373046875
7.9299999,3.332728862762451,-8.765172004699707,2.9065608978271484,3.23486328125,74.7222900390625,-55.8013916015625
7.949999900000001,3.5721490383148193,-8.702922821044922,2.9759926795959473,-2.1820068359375,60.48583984375,-52.9327392578125
7.9699999,3.6750996112823486,-8.628703117370605,2.9448680877685547,-7.14111328125,37.1551513671875,-51.5289306640625
7.989999900000001,3.6559460163116455,-8.537723541259766,2.8610711097717285,-11.627197265625,12.176513671875,-52.2003173828125
8.0099999,3.600879430770874,-8.449137687683105,2.738966703414917,-15.045166015625,-2.2125244140625,-55.3131103515625
8.0299999,3.5889084339141846,-8.346187591552734,2.6384103298187256,-16.17431640625,-10.711669921875,-60.516357421875
8.049999900000001,3.6535518169403076,-8.252813339233398,2.5498247146606445,-15.6097412109375,-22.7203369140625,-66.3299560546875
8.069999900000001,3.7852327823638916,-8.149862289428711,2.4899697303771973,-16.2200927734375,-31.79931640625,-71.2890625
8.0899999,4.022258758544922,-8.034940719604492,2.4636335372924805,-18.85986328125,-29.0069580078125,-75.62255859375
8.1099999,4.343081951141357,-7.910442352294922,2.4899697303771973,-22.15576171875,-22.613525390625,-78.704833984375
8.129999900000001,4.692635536193848,-7.750030994415283,2.513911724090576,-26.4129638671875,-19.47021484375,-80.74951171875
8.149999900000001,5.032611846923828,-7.568071365356445,2.477998733520508,-30.609130859375,-19.1802978515625,-82.427978515625
8.1699999,5.343858242034912,-7.395689010620117,2.3702597618103027,-32.3028564453125,-17.5628662109375,-84.503173828125
8.1899999,5.612008571624756,-7.2113356590271,2.1930887699127197,-32.16552734375,-13.2293701171875,-86.395263671875
8.2099999,5.8657941818237305,-7.017405033111572,1.9704279899597168,-30.364990234375,-12.4359130859375,-86.7156982421875
8.229999900000001,6.1315507888793945,-6.813898086547852,1.7286136150360107,-28.01513671875,-17.6544189453125,-85.2203369140625
8.2499999,6.423643112182617,-6.603208065032959,1.482010841369629,-25.6195068359375,-20.8892822265625,-82.1533203125
8.2699999,6.742072105407715,-6.411672115325928,1.2330138683319092,-21.728515625,-18.5089111328125,-76.7059326171875
8.2899999,7.070077419281006,-6.248866558074951,1.0127472877502441,-17.0440673828125,-16.54052734375,-69.1375732421875
8.309999900000001,7.352593421936035,-6.098031520843506,0.7996633648872375,-12.5885009765625,-16.815185546875,-60.089111328125
8.3299999,7.587224960327148,-5.966350555419922,0.6272808313369751,-5.6304931640625,-18.1121826171875,-50.7965087890625
8.3499999,7.745242595672607,-5.808333396911621,0.47644615173339844,1.15966796875,-19.4244384765625,-42.78564453125
8.3699999,7.888894557952881,-5.647922039031982,0.42616790533065796,6.6680908203125,-21.1334228515625,-36.0565185546875
8.389999900000001,7.951143741607666,-5.461174011230469,0.4596867263317108,9.2010498046875,-18.9666748046875,-30.3192138671875
8.4099999,7.94635534286499,-5.307945251464844,0.5291185975074768,10.9710693359375,-15.56396484375,-23.6358642578125
8.4299999,7.862558364868164,-5.154716491699219,0.6033388376235962,12.4664306640625,-26.7333984375,-17.5628662109375
8.4499999,7.785943984985352,-5.037400245666504,0.6823474764823914,13.153076171875,-47.7142333984375,-12.2833251953125
8.469999900000001,7.726089000701904,-4.95120906829834,0.6991068720817566,10.5438232421875,-56.1370849609375,-7.0648193359375
8.4899999,7.726089000701904,-4.917690277099609,0.6871358752250671,8.3160400390625,-56.060791015625,0.1068115234375
8.5099999,7.7763671875,-4.944026470184326,0.6488286852836609,8.7738037109375,-55.419921875,8.85009765625
8.5299999,7.850587368011475,-5.04218864440918,0.5650315880775452,9.8876953125,-45.013427734375,14.3890380859375
8.549999900000001,7.931990146636963,-5.173870086669922,0.44532153010368347,10.7421875,-26.6876220703125,16.6778564453125
8.569999900000001,8.042123794555664,-5.327098846435547,0.3471592366695404,11.6729736328125,-14.923095703125,20.2484130859375
8.5899999,8.118738174438477,-5.480327606201172,0.2585737705230713,11.2457275390625,-12.20703125,27.435302734375
8.6099999,8.106766700744629,-5.614402770996094,0.17238251864910126,9.33837890625,-11.5509033203125,33.7982177734375
8.629999900000001,8.006210327148438,-5.679046630859375,0.1173158809542656,7.26318359375,-11.0626220703125,34.36279296875
8.649999900000001,7.8314337730407715,-5.683835029602051,0.07900865375995636,7.0037841796875,-8.7890625,29.9072265625
8.6699999,7.625532627105713,-5.640739440917969,0.0454898327589035,8.85009765625,-6.744384765625,24.8870849609375
8.6899999,7.445967197418213,-5.628767967224121,0.009576806798577309,10.467529296875,-6.5155029296875,21.514892578125
8.709999900000001,7.307103633880615,-5.6910176277160645,-0.031124621629714966,10.0555419921875,-6.3629150390625,19.317626953125
8.729999900000001,7.247248649597168,-5.827486991882324,-0.035913024097681046,7.232666015625,-5.4931640625,16.7083740234375
8.7499999,7.252037048339844,-6.009446144104004,-0.011971008032560349,2.9754638671875,-0.7476806640625,13.5650634765625
8.7699999,7.311892032623291,-6.205770969390869,0.05267243832349777,-1.3275146484375,3.0975341796875,12.054443359375
8.7899999,7.383718013763428,-6.375759124755859,0.12210428714752197,-6.011962890625,2.1820068359375,12.9547119140625
8.809999900000001,7.433996200561523,-6.536170482635498,0.15083470940589905,-11.0931396484375,-2.777099609375,14.9993896484375
8.8299999,7.445967197418213,-6.6391215324401855,0.13168109953403473,-14.8773193359375,-5.43212890625,16.0369873046875
8.8499999,7.429207801818848,-6.687005519866943,0.06224924325942993,-16.6473388671875,-2.4871826171875,15.899658203125
8.8699999,7.378929615020752,-6.658275127410889,-0.07661445438861847,-15.9759521484375,2.288818359375,15.2435302734375
8.889999900000001,7.297526836395264,-6.567295074462891,-0.26096799969673157,-13.1072998046875,0.5035400390625,15.380859375
8.9099999,7.1921820640563965,-6.423643112182617,-0.4620809257030487,-9.70458984375,-2.8839111328125,17.02880859375
8.9299999,7.079654216766357,-6.246472358703613,-0.6272808313369751,-7.0343017578125,0.2899169921875,19.195556640625
8.9499999,6.981492042541504,-6.0405707359313965,-0.6919242739677429,-4.364013671875,7.598876953125,21.5606689453125
8.969999900000001,6.921637058258057,-5.803544998168945,-0.6129156351089478,-1.8463134765625,12.2833251953125,25.604248046875
8.9899999,6.8593878746032715,-5.559336185455322,-0.4357447028160095,-0.18310546875,13.427734375,31.768798828125
9.0099999,6.775590896606445,-5.353435039520264,-0.19393034279346466,0.732421875,9.2926025390625,39.276123046875
9.0299999,6.672640323638916,-5.2265424728393555,0.07661445438861847,1.77001953125,0.6561279296875,47.607421875
9.049999900000001,6.524199485778809,-5.214571475982666,0.33758243918418884,2.7923583984375,-6.683349609375,56.304931640625
9.069999900000001,6.320692539215088,-5.319916248321533,0.5602431893348694,3.326416015625,-10.07080078125,64.208984375
9.0899999,6.0405707359313965,-5.544970989227295,0.689530074596405,3.6773681640625,-13.5040283203125,70.80078125
9.1099999,5.676652431488037,-5.8873419761657715,0.6847416758537292,4.2572021484375,-22.39990234375,75.98876953125
9.129999900000001,5.298368453979492,-6.311115741729736,0.5506663918495178,4.57763671875,-35.2020263671875,80.2154541015625
9.149999900000001,4.989516258239746,-6.811503887176514,0.3447650372982025,4.08935546875,-44.4793701171875,84.0301513671875
9.1699999,4.774038314819336,-7.3454108238220215,0.08140286058187485,3.41796875,-48.736572265625,90.057373046875
9.1899999,4.668693542480469,-7.872135162353516,-0.17956513166427612,4.180908203125,-53.16162109375,98.4344482421875
9.209999900000001,4.608838081359863,-8.327033042907715,-0.42616790533065796,6.5765380859375,-52.032470703125,105.6671142578125
9.229999900000001,4.54419469833374,-8.705317497253418,-0.6703764796257019,12.4969482421875,-42.78564453125,110.6109619140625
9.2499999,4.41969633102417,-9.006986618041992,-0.9097966551780701,19.8516845703125,-40.802001953125,113.616943359375
9.2699999,4.206612586975098,-9.246406555175781,-1.1348515748977661,29.4036865234375,-52.8106689453125,117.950439453125
9.2899999,3.950432777404785,-9.421183586120605,-1.2856862545013428,37.8265380859375,-59.478759765625,119.842529296875
9.309999900000001,3.737348794937134,-9.48343276977539,-1.3000515699386597,43.0755615234375,-46.966552734375,117.0806884765625
9.3299999,3.579331636428833,-9.437943458557129,-1.1492167711257935,46.051025390625,-26.5045166015625,110.9466552734375
9.3499999,3.469198226928711,-9.306262016296387,-0.8834604024887085,47.5311279296875,-10.009765625,101.776123046875
9.3699999,3.3446998596191406,-9.227252960205078,-0.5985504388809204,49.01123046875,1.1138916015625,91.2628173828125
9.389999900000001,3.098097085952759,-9.260771751403809,-0.37828385829925537,51.4678955078125,3.5552978515625,84.3505859375
9.4099999,2.806004285812378,-9.418789863586426,-0.16998831927776337,52.734375,-2.01416015625,82.8857421875
9.4299999,2.52109432220459,-9.701305389404297,0.06464344263076782,50.23193359375,-8.331298828125,85.5712890625
9.4499999,2.099714994430542,-10.333374977111816,0.7206547260284424,33.4320068359375,-11.6424560546875,107.269287109375
9.469999900000001,1.821987509727478,-10.632649421691895,0.9959878921508789,26.4129638671875,-27.3590087890625,128.570556640625
9.4899999,1.5155296325683594,-10.845733642578125,1.235408067703247,23.3917236328125,-51.055908203125,151.0772705078125
9.5099999,1.1180921792984009,-10.90798282623291,1.4317326545715332,19.7296142578125,-62.1337890625,172.4700927734375
9.5299999,0.6775590777397156,-10.76193618774414,1.656787633895874,12.7105712890625,-60.150146484375,193.206787109375
9.549999900000001,0.14844051003456116,-10.429142951965332,1.886630892753601,4.3487548828125,-54.351806640625,209.65576171875
9.569999900000001,-0.5434837937355042,-9.96945571899414,2.0877439975738525,-4.2266845703125,-45.257568359375,217.59033203125
9.5899999,-1.4077905416488647,-9.445125579833984,2.1954829692840576,-12.7716064453125,-27.7557373046875,218.2464599609375
9.6099999,-2.346317768096924,-8.89445972442627,2.183511972427368,-20.0347900390625,-11.199951171875,213.5009765625
9.629999900000001,-3.2561142444610596,-8.300697326660156,2.0661959648132324,-26.5045166015625,-10.955810546875,203.9794921875
9.649999900000001,-4.120420932769775,-7.771578788757324,1.886630892753601,-36.2701416015625,-20.2178955078125,193.6187744140625
9.6699999,-4.963180065155029,-7.314286231994629,1.6735470294952393,-49.102783203125,-22.064208984375,185.4248046875
9.6899999,-5.779603004455566,-6.979097843170166,1.5203180313110352,-60.333251953125,-18.5699462890625,174.713134765625
9.709999900000001,-6.495469093322754,-6.694188117980957,1.4389152526855469,-69.6258544921875,-17.1051025390625,160.2325439453125
9.729999900000001,-7.041347026824951,-6.447585105895996,1.37906014919281,-80.657958984375,-20.01953125,148.2086181640625
9.7499999,-7.3693528175354,-6.162675380706787,1.316810965538025,-93.8262939453125,-26.1077880859375,144.1192626953125
9.7699999,-7.594407558441162,-5.91128396987915,1.2186486721038818,-105.7586669921875,-28.5797119140625,144.5770263671875
9.7899999,-7.90086555480957,-5.664681434631348,1.05105459690094,-114.80712890625,-27.3895263671875,143.3563232421875
9.809999900000001,-8.389283180236816,-5.377377033233643,0.8044517636299133,-120.086669921875,-31.6619873046875,137.6800537109375
9.8299999,-9.002198219299316,-5.049371242523193,0.5267243981361389,-121.2921142578125,-41.900634765625,129.7760009765625
9.8499999,-9.643844604492188,-4.697423934936523,0.19393034279346466,-120.330810546875,-48.065185546875,124.298095703125
9.8699999,-10.182539939880371,-4.352658748626709,-0.10295066982507706,-117.950439453125,-54.9774169921875,120.880126953125
9.889999900000001,-10.57040023803711,-4.031835556030273,-0.3280056416988373,-113.1744384765625,-66.2841796875,115.53955078125
9.9099999,-10.821791648864746,-3.713406801223755,-0.4405331015586853,-104.98046875,-72.2808837890625,107.84912109375
9.9299999,-10.948684692382812,-3.35667085647583,-0.4381389021873474,-95.794677734375,-68.4661865234375,100.2044677734375
9.9499999,-10.931924819946289,-2.9951462745666504,-0.3423708379268646,-88.5772705078125,-60.882568359375,94.818115234375
9.969999900000001,-10.795455932617188,-2.6455929279327393,-0.17238251864910126,-83.49609375,-57.1746826171875,92.987060546875
9.9899999,-10.611102104187012,-2.3104045391082764,0.023942016065120697,-80.474853515625,-51.2542724609375,92.1630859375
10.0099999,-10.505757331848145,-1.9369091987609863,0.19153612852096558,-78.0792236328125,-37.90283203125,87.066650390625
10.0299999,-10.488997459411621,-1.5610195398330688,0.30885201692581177,-75.286865234375,-26.9622802734375,77.8045654296875
10.049999900000001,-10.54645824432373,-1.1875240802764893,0.3711012601852417,-73.8983154296875,-24.566650390625,69.9005126953125
10.069999900000001,-10.649409294128418,-0.871489405632019,0.3663128614425659,-73.8525390625,-19.5159912109375,64.910888671875
10.0899999,-10.702081680297852,-0.6703764796257019,0.35434186458587646,-72.8302001953125,-10.0250244140625,60.4705810546875
10.1099999,-10.6925048828125,-0.5913678407669067,0.37828385829925537,-71.83837890625,0.762939453125,57.281494140625
10.129999900000001,-10.66137981414795,-0.5770025849342346,0.3878606855869293,-71.868896484375,11.5509033203125,55.1910400390625
10.149999900000001,-10.594342231750488,-0.6344634294509888,0.3878606855869293,-70.648193359375,15.44189453125,52.032470703125
10.1699999,-10.498574256896973,-0.7230489253997803,0.3687070608139038,-68.695068359375,12.1612548828125,48.583984375
10.1899999,-10.402806282043457,-0.7924807667732239,0.3232172429561615,-66.8792724609375,8.6517333984375,44.4488525390625
10.209999900000001,-10.287884712219238,-0.8140285611152649,0.28730419278144836,-64.3768310546875,7.0343017578125,38.1622314453125
10.229999900000001,-10.144232749938965,-0.8140285611152649,0.2585737705230713,-62.7593994140625,4.82177734375,31.280517578125
10.2499999,-10.000580787658691,-0.7852981686592102,0.21547815203666687,-61.6455078125,-2.50244140625,26.5655517578125
10.2699999,-9.856928825378418,-0.706289529800415,0.15801730751991272,-57.342529296875,-14.6484375,20.904541015625
10.2899999,-9.677363395690918,-0.6416460275650024,0.11971008777618408,-51.0101318359375,-20.0042724609375,14.2974853515625
10.309999900000001,-9.485827445983887,-0.5578489899635315,0.09576806426048279,-46.661376953125,-18.6309814453125,12.6800537109375
10.3299999,-9.29189682006836,-0.47644615173339844,0.1364694982767105,-42.5262451171875,-18.5394287109375,15.4571533203125
10.3499999,-9.148244857788086,-0.43335050344467163,0.2106897532939911,-36.4532470703125,-16.6473388671875,19.8822021484375
10.3699999,-9.14585018157959,-0.33279404044151306,0.27054479718208313,-29.632568359375,-10.4522705078125,22.0947265625
10.389999900000001,-9.294290542602539,-0.2059013396501541,0.31603461503982544,-21.026611328125,-4.2724609375,15.960693359375
10.4099999,-9.605537414550781,-0.016759412363171577,0.31603461503982544,-11.77978515625,1.800537109375,5.7525634765625
10.4299999,-9.950302124023438,0.1604115068912506,0.2968810200691223,-4.669189453125,1.9683837890625,-1.220703125
10.4499999,-10.280701637268066,0.28969839215278625,0.26336219906806946,-0.8544921875,-2.3193359375,-2.7618408203125
10.469999900000001,-10.508151054382324,0.36152446269989014,0.22026655077934265,1.2664794921875,-8.5906982421875,-2.25830078125
10.4899999,-10.560823440551758,0.35673606395721436,0.2082955539226532,1.617431640625,-18.24951171875,0.732421875
10.5099999,-10.5344877243042,0.3447650372982025,0.22505496442317963,0.3509521484375,-21.2860107421875,6.7291259765625
10.5299999,-10.45547866821289,0.31364041566848755,0.2801215946674347,0.9918212890625,-15.0299072265625,9.613037109375
10.549999900000001,-10.400412559509277,0.3016694188117981,0.38067805767059326,3.021240234375,-10.986328125,8.5601806640625
10.569999900000001,-10.38844108581543,0.304063618183136,0.4884171485900879,4.2724609375,-10.1776123046875,6.683349609375
10.5899999,-10.35252857208252,0.304063618183136,0.6153098344802856,3.631591796875,-10.92529296875,6.9580078125
10.6099999,-10.266336441040039,0.30885201692581177,0.7493851184844971,-0.6103515625,-9.979248046875,9.3994140625
10.629999900000001,-10.132261276245117,0.2968810200691223,0.8810662031173706,-7.26318359375,-7.1258544921875,12.4359130859375
10.649999900000001,-10.029311180114746,0.28730419278144836,0.9768342971801758,-12.26806640625,-3.7078857421875,15.9149169921875
10.6699999,-9.988609313964844,0.28730419278144836,1.0223240852355957,-12.7716064453125,-2.349853515625,16.571044921875
10.6899999,-10.053253173828125,0.26575639843940735,0.9768342971801758,-9.58251953125,0,13.12255859375
10.709999900000001,-10.15141487121582,0.2346317619085312,0.8762778043746948,-3.082275390625,-1.678466796875,9.70458984375
10.729999900000001,-10.223240852355957,0.2082955539226532,0.7852981686592102,4.1656494140625,-7.5531005859375,10.55908203125
10.7499999,-10.249577522277832,0.22266076505184174,0.7469909191131592,6.89697265625,-7.9498291015625,13.824462890625
10.7699999,-10.225635528564453,0.3064578175544739,0.7996633648872375,3.90625,-4.82177734375,14.7857666015625
10.7899999,-10.194510459899902,0.4596867263317108,0.9289502501487732,-0.8544921875,-4.2572021484375,13.336181640625
10.809999900000001,-10.187328338623047,0.6560112833976746,1.0749965906143188,-3.5400390625,-3.0517578125,9.3841552734375
10.8299999,-10.189722061157227,0.8331822156906128,1.1875240802764893,-2.8839111328125,0.5340576171875,2.655029296875
10.8499999,-10.170568466186523,0.9600749015808105,1.2545616626739502,-1.28173828125,2.01416015625,-1.5716552734375
10.8699999,-10.144232749938965,1.0342950820922852,1.2545616626739502,-1.007080078125,0.9765625,-0.457763671875
10.889999900000001,-10.103530883789062,1.0414776802062988,1.2090718746185303,-0.2899169921875,-2.655029296875,1.5411376953125
10.9099999,-10.072406768798828,1.0127472877502441,1.137245774269104,2.0904541015625,-7.0037841796875,2.9296875
10.9299999,-10.091560363769531,0.9720458984375,1.0582371950149536,5.4473876953125,-7.4462890625,4.638671875
10.9499999,-10.163386344909668,0.9409212470054626,1.0007762908935547,8.9263916015625,-4.302978515625,3.326416015625
10.969999900000001,-10.302249908447266,0.9145850539207458,0.9600749015808105,10.986328125,-1.953125,-0.6561279296875
10.9899999,-10.524910926818848,0.9026140570640564,0.9481038451194763,10.2081298828125,-5.2032470703125,-3.814697265625
11.0099999,-10.805032730102539,0.8834604024887085,0.950498104095459,9.2620849609375,-9.0484619140625,-9.0789794921875
11.0299999,-11.073183059692383,0.8307880163192749,0.9648633003234863,9.7503662109375,-7.1868896484375,-18.2952880859375
11.049999900000001,-11.305420875549316,0.7565677165985107,0.9959878921508789,9.6435546875,-2.13623046875,-27.618408203125
11.069999900000001,-11.453861236572266,0.6655880808830261,1.0247182846069336,8.9111328125,5.340576171875,-37.7044677734375
11.0899999,-11.475408554077148,0.5434837937355042,1.05105459690094,8.6212158203125,13.2598876953125,-50.4913330078125
11.1099999,-11.403582572937012,0.3902548849582672,1.0582371950149536,8.7432861328125,21.9573974609375,-61.187744140625
11.129999900000001,-11.295844078063965,0.181959331035614,1.0247182846069336,10.528564453125,29.78515625,-67.32177734375
11.149999900000001,-11.221623420715332,-0.07900865375995636,0.9648633003234863,14.9688720703125,30.2276611328125,-72.8912353515625
11.1699999,-11.262324333190918,-0.3471592366695404,0.8595184087753296,20.538330078125,22.125244140625,-83.526611328125
11.1899999,-11.310209274291992,-0.6105214357376099,0.7781155705451965,24.35302734375,9.4451904296875,-98.69384765625
11.209999900000001,-11.240777015686035,-0.8810662031173706,0.7637503147125244,25.6195068359375,8.514404296875,-108.978271484375
11.229999900000001,-11.013327598571777,-1.1779472827911377,0.811634361743927,25.726318359375,23.7274169921875,-109.80224609375
11.2499999,-10.711658477783203,-1.5179238319396973,0.9002198576927185,25.726318359375,38.4674072265625,-108.6273193359375
11.2699999,-10.522516250610352,-1.8339585065841675,0.9528923034667969,25.81787109375,39.8712158203125,-113.9678955078125
11.2899999,-10.491392135620117,-2.118868589401245,0.9528923034667969,25.20751953125,30.1971435546875,-125.091552734375
11.309999900000001,-10.496180534362793,-2.3798365592956543,0.9648633003234863,23.0560302734375,22.674560546875,-132.9803466796875
11.3299999,-10.414777755737305,-2.607285737991333,0.993593692779541,19.287109375,30.8074951171875,-133.1024169921875
11.3499999,-10.165780067443848,-2.8562827110290527,1.0582371950149536,15.19775390625,44.952392578125,-132.8125
11.3699999,-9.837775230407715,-3.1004912853240967,1.1085153818130493,11.5203857421875,50.4150390625,-135.650634765625
11.389999900000001,-9.497797966003418,-3.337517261505127,1.1013327836990356,7.843017578125,51.5289306640625,-139.6636962890625
11.4099999,-9.165003776550293,-3.5889084339141846,1.039083480834961,6.2103271484375,57.2509765625,-141.693115234375
11.4299999,-8.829815864562988,-3.8498764038085938,0.9361328482627869,8.0413818359375,68.328857421875,-141.6778564453125
11.4499999,-8.480262756347656,-4.129997730255127,0.7996633648872375,11.5203857421875,77.08740234375,-142.181396484375
11.469999900000001,-8.133103370666504,-4.412513732910156,0.6344634294509888,15.19775390625,79.315185546875,-141.845703125
11.4899999,-7.7883381843566895,-4.714183330535889,0.44771572947502136,18.951416015625,80.8563232421875,-138.4124755859375
11.5099999,-7.465120792388916,-5.011064052581787,0.24899697303771973,22.857666015625,87.0513916015625,-132.293701171875
11.5299999,-7.158663272857666,-5.3342814445495605,0.019153613597154617,28.2135009765625,88.68408203125,-125.732421875
11.549999900000001,-6.936002254486084,-5.609614372253418,-0.22026655077934265,34.4696044921875,79.1778564453125,-121.337890625
11.569999900000001,-6.746860504150391,-5.817910194396973,-0.4596867263317108,42.8619384765625,78.43017578125,-125.885009765625
11.5899999,-6.519411087036133,-6.030993938446045,-0.6416460275650024,53.558349609375,92.1173095703125,-135.8489990234375
11.6099999,-6.232107162475586,-6.282385349273682,-0.7589619159698486,60.8367919921875,104.2327880859375,-136.8865966796875
11.629999900000001,-5.810727596282959,-6.627150535583496,-0.7972691655158997,63.41552734375,104.7210693359375,-127.99072265625
11.649999900000001,-5.2911858558654785,-7.086836814880371,-0.7948749661445618,62.3626708984375,96.8780517578125,-116.363525390625
11.6699999,-4.709394931793213,-7.575253963470459,-0.7613561153411865,57.891845703125,85.968017578125,-101.9439697265625
11.6899999,-4.098873138427734,-7.965508937835693,-0.6943184733390808,51.2847900390625,79.132080078125,-86.73095703125
11.709999900000001,-3.507505416870117,-8.202534675598145,-0.6033388376235962,45.6085205078125,84.0606689453125,-77.3162841796875
11.729999900000001,-3.0190882682800293,-8.29830265045166,-0.5482721924781799,41.8701171875,95.550537109375,-74.9053955078125
11.7499999,-2.669534921646118,-8.315062522888184,-0.5410895943641663,38.87939453125,98.44970703125,-75.4241943359375
11.7699999,-2.47560453414917,-8.425195693969727,-0.6129156351089478,36.285400390625,92.6971435546875,-75.3173828125
11.7899999,-2.382230758666992,-8.700529098510742,-0.7230489253997803,33.660888671875,86.5631103515625,-71.7620849609375
11.809999900000001,-2.343923568725586,-9.181763648986816,-0.8331822156906128,29.754638671875,82.6568603515625,-64.6820068359375
11.8299999,-2.3127987384796143,-9.813833236694336,-0.9169792532920837,24.444580078125,80.6427001953125,-56.2286376953125
11.8499999,-2.298433542251587,-10.508151054382324,-0.9983820915222168,20.0958251953125,79.28466796875,-47.8668212890625
11.8699999,-2.365471363067627,-11.15697956085205,-1.1061211824417114,18.8751220703125,76.0955810546875,-42.05322265625
11.889999900000001,-2.4803929328918457,-11.60948371887207,-1.235408067703247,21.7132568359375,75.1495361328125,-43.2586669921875
11.9099999,-2.58813214302063,-11.784260749816895,-1.3670891523361206,29.388427734375,78.094482421875,-55.0537109375
11.9299999,-2.5905263423919678,-11.640608787536621,-1.460463047027588,39.9322509765625,77.94189453125,-73.150634765625
11.9499999,-2.3558945655822754,-11.228805541992188,-1.4269442558288574,48.9654541015625,75.9124755859375,-89.9200439453125
11.969999900000001,-1.8770540952682495,-10.687716484069824,-1.259350061416626,55.6488037109375,82.8704833984375,-100.9674072265625
11.9899999,-1.2186486721038818,-10.098742485046387,-0.9624691009521484,57.830810546875,88.5467529296875,-106.5673828125
12.0099999,-0.4572925269603729,-9.521739959716797,-0.5554547905921936,55.11474609375,82.672119140625,-106.7962646484375
12.0299999,0.28730419278144836,-8.975862503051758,-0.09576806426048279,49.6368408203125,78.0792236328125,-103.5308837890625
12.049999900000001,0.9528923034667969,-8.451532363891602,0.35434186458587646,40.4205322265625,78.3843994140625,-96.9390869140625
12.069999900000001,1.4915876388549805,-8.022970199584961,0.7469909191131592,29.022216796875,75.9124755859375,-88.07373046875
12.0899999,1.922544002532959,-7.718906402587891,1.0462661981582642,16.7999267578125,66.5283203125,-77.63671875
12.1099999,2.250549554824829,-7.618350028991699,1.192312479019165,3.3721923828125,51.1627197265625,-63.6749267578125
12.129999900000001,2.4875755310058594,-7.723694801330566,1.2186486721038818,-10.92529296875,33.87451171875,-46.2188720703125
12.149999900000001,2.655169725418091,-7.9846625328063965,1.1300631761550903,-26.153564453125,24.0631103515625,-27.7099609375
12.1699999,2.7748796939849854,-8.303091049194336,0.9768342971801758,-35.4766845703125,29.3426513671875,-12.969970703125
12.1899999,2.8419175148010254,-8.631096839904785,0.7398083209991455,-36.9110107421875,35.7513427734375,-2.899169921875
12.209999900000001,2.846705913543701,-8.923190116882324,0.4141969084739685,-33.233642578125,30.7769775390625,4.2877197265625
12.229999900000001,2.82515811920166,-9.181763648986816,0.0454898327589035,-25.3143310546875,19.83642578125,9.918212890625
12.2499999,2.801215887069702,-9.399636268615723,-0.2849099934101105,-14.6484375,14.373779296875,14.16015625
12.2699999,2.786850690841675,-9.588777542114258,-0.5267243981361389,-5.37109375,13.1988525390625,16.9677734375
12.289999900000002,2.808398485183716,-9.744400978088379,-0.6105214357376099,0.3814697265625,5.7830810546875,19.6380615234375
12.309999900000001,2.846705913543701,-9.86650562286377,-0.5410895943641663,2.1209716796875,-3.23486328125,22.7203369140625
12.3299999,2.808398485183716,-9.952696800231934,-0.38067805767059326,0.7476806640625,-2.7313232421875,26.2298583984375
12.3499999,2.695871114730835,-9.979032516479492,-0.17238251864910126,-0.762939453125,3.72314453125,28.8238525390625
12.3699999,2.516305923461914,-9.897629737854004,0.043095629662275314,-1.861572265625,6.744384765625,27.8778076171875
12.389999900000001,2.300827741622925,-9.749189376831055,0.21547815203666687,-2.74658203125,7.38525390625,22.6287841796875
12.4099999,2.0925323963165283,-9.581595420837402,0.3208230137825012,-3.448486328125,10.1776123046875,15.68603515625
12.4299999,1.941697597503662,-9.466673851013184,0.40462008118629456,-4.2266845703125,16.265869140625,9.063720703125
12.4499999,1.8195933103561401,-9.459490776062012,0.4213795065879822,-5.67626953125,24.078369140625,4.1351318359375
12.469999900000001,1.7573440074920654,-9.5408935546875,0.42377370595932007,-7.0343017578125,23.101806640625,1.40380859375
12.4899999,1.7357962131500244,-9.68933391571045,0.395043283700943,-8.4075927734375,13.61083984375,1.0223388671875
12.5099999,1.7477672100067139,-9.859322547912598,0.35673606395721436,-10.0860595703125,3.6163330078125,3.11279296875
12.5299999,1.7764976024627686,-10.019734382629395,0.31124621629714966,-12.1917724609375,-0.6561279296875,6.5765380859375
12.549999900000001,1.7932571172714233,-10.146626472473145,0.2513911724090576,-13.48876953125,2.471923828125,8.5296630859375
12.569999900000001,1.7525556087493896,-10.220847129821777,0.15322890877723694,-12.26806640625,8.270263671875,7.8887939453125
12.5899999,1.6519991159439087,-10.232817649841309,0.019153613597154617,-8.1329345703125,9.5672607421875,5.859375
12.6099999,1.5179238319396973,-10.1753568649292,-0.12210428714752197,-3.143310546875,8.30078125,3.3721923828125
12.629999900000001,1.3862427473068237,-10.077195167541504,-0.23942017555236816,0.79345703125,8.9569091796875,0.6103515625
12.649999900000001,1.3000515699386597,-9.981427192687988,-0.2992752194404602,2.8839111328125,9.979248046875,-1.220703125
12.6699999,1.2880805730819702,-9.914389610290527,-0.28730419278144836,3.4942626953125,9.918212890625,-0.701904296875
12.6899999,1.3311761617660522,-9.885659217834473,-0.2298433631658554,2.9449462890625,11.3372802734375,1.7242431640625
12.709999900000001,1.3886369466781616,-9.895236015319824,-0.16998831927776337,2.197265625,15.19775390625,4.180908203125
12.729999900000001,1.4532804489135742,-9.914389610290527,-0.13168109953403473,3.0059814453125,18.0511474609375,5.889892578125
12.7499999,1.5179238319396973,-9.938331604003906,-0.12928688526153564,6.4239501953125,17.8680419921875,9.1552734375
12.7699999,1.558625340461731,-10.002974510192871,-0.16759411990642548,11.0626220703125,15.56396484375,16.3726806640625
12.789999900000002,1.5538369417190552,-10.096348762512207,-0.22505496442317963,15.0909423828125,14.34326171875,26.7486572265625
12.809999900000001,1.4963760375976562,-10.189722061157227,-0.272938996553421,17.9443359375,14.190673828125,35.9344482421875
12.8299999,1.3742717504501343,-10.261548042297363,-0.28969839215278625,21.3775634765625,15.5792236328125,41.9769287109375
12.8499999,1.213860273361206,-10.251971244812012,-0.24899697303771973,25.87890625,20.7061767578125,45.3948974609375
12.8699999,1.0582371950149536,-10.141838073730469,-0.14604631066322327,30.426025390625,26.0772705078125,46.6766357421875
12.889999900000001,0.9193734526634216,-9.950302124023438,-0.004788403399288654,34.5001220703125,26.2298583984375,47.5616455078125
12.9099999,0.8020575642585754,-9.734824180603027,0.16519992053508759,37.65869140625,23.5748291015625,50.0335693359375
12.9299999,0.6919242739677429,-9.516951560974121,0.33997663855552673,40.0848388671875,23.25439453125,54.534912109375
12.9499999,0.5889736413955688,-9.332598686218262,0.5027823448181152,41.19873046875,25.054931640625,58.59375
12.969999900000001,0.507570743560791,-9.188945770263672,0.6584054827690125,42.4346923828125,26.5960693359375,61.4776611328125
12.9899999,0.4141969084739685,-9.093177795410156,0.8164227604866028,46.1273193359375,31.8450927734375,66.5435791015625
13.0099999,0.2944868206977844,-9.030928611755371,0.9576807022094727,49.8809814453125,43.45703125,74.0966796875
13.0299999,0.10055647045373917,-8.978256225585938,1.0606313943862915,53.28369140625,49.6368408203125,80.841064453125
13.049999900000001,-0.17956513166427612,-8.916007041931152,1.1252747774124146,59.5855712890625,44.952392578125,85.1593017578125
13.069999900000001,-0.5123591423034668,-8.815450668334961,1.1994950771331787,67.962646484375,41.5191650390625,87.982177734375
13.0899999,-0.9074024558067322,-8.688557624816895,1.2976573705673218,74.3560791015625,49.835205078125,90.88134765625
13.1099999,-1.3455413579940796,-8.549694061279297,1.455674648284912,78.094482421875,59.9365234375,92.6513671875
13.129999900000001,-1.7932571172714233,-8.401253700256348,1.6519991159439087,81.8328857421875,61.4013671875,92.6055908203125
13.149999900000001,-2.808398485183716,-8.10437297821045,2.0829553604125977,90.1031494140625,65.887451171875,97.412109375
13.1699999,-3.3494882583618164,-7.920019149780273,2.300827741622925,90.8355712890625,70.556640625,99.8382568359375
13.1899999,-3.931279182434082,-7.718906402587891,2.535459518432617,90.88134765625,65.0634765625,98.81591796875
13.209999900000001,-4.563348293304443,-7.491456985473633,2.7916390895843506,89.0655517578125,57.9986572265625,95.2606201171875
13.229999900000001,-5.193023681640625,-7.254431247711182,3.07415509223938,83.343505859375,55.1605224609375,88.8671875
13.2499999,-5.7772088050842285,-7.06528902053833,3.3949780464172363,74.6612548828125,52.5054931640625,79.89501953125
13.2699999,-6.287173748016357,-6.936002254486084,3.7421371936798096,65.00244140625,49.5452880859375,70.953369140625
13.289999900000002,-6.675034523010254,-6.84981107711792,4.07014274597168,54.718017578125,50.384521484375,62.774658203125
13.309999900000001,-6.938396453857422,-6.809109687805176,4.37420654296875,44.036865234375,48.5992431640625,54.0618896484375
13.3299999,-7.0988078117370605,-6.806715488433838,4.611232280731201,32.196044921875,42.54150390625,46.20361328125
13.3499999,-7.15387487411499,-6.8043212890625,4.766855716705322,20.965576171875,37.5823974609375,40.58837890625
13.3699999,-7.129932880401611,-6.794744491577148,4.817133903503418,13.3819580078125,36.1785888671875,35.8123779296875
13.389999900000001,-7.084442615509033,-6.777985095977783,4.776432514190674,9.979248046875,36.19384765625,30.6243896484375
13.4099999,-7.0317702293396,-6.744466304779053,4.6734819412231445,9.6588134765625,36.6973876953125,25.299072265625
13.4299999,-7.010222434997559,-6.710947513580322,4.537012100219727,10.7574462890625,35.1409912109375,20.7977294921875
13.4499999,-7.0317702293396,-6.682217121124268,4.402936935424805,12.176513671875,31.005859375,18.310546875
13.469999900000001,-7.084442615509033,-6.660669326782227,4.299986362457275,12.9852294921875,27.435302734375,17.608642578125
13.4899999,-7.189787864685059,-6.643909931182861,4.228160381317139,12.725830078125,25.6805419921875,17.364501953125
13.5099999,-7.343016624450684,-6.6391215324401855,4.185064792633057,11.7340087890625,22.15576171875,16.7999267578125
13.5299999,-7.532158374786377,-6.643909931182861,4.1611223220825195,9.9029541015625,15.0604248046875,15.3656005859375
13.549999900000001,-7.728483200073242,-6.655880928039551,4.14915132522583,7.26318359375,7.1258544921875,12.5274658203125
13.569999900000001,-7.9176249504089355,-6.687005519866943,4.146757125854492,3.9215087890625,2.0751953125,7.965087890625
13.5899999,-8.08043098449707,-6.72531270980835,4.151545524597168,-0.244140625,-1.3275146484375,1.6937255859375
13.6099999,-8.17380428314209,-6.775590896606445,4.185064792633057,-4.8675537109375,-6.1492919921875,-6.7138671875
13.629999900000001,-8.202534675598145,-6.864176273345947,4.244919776916504,-10.7879638671875,-10.7269287109375,-16.3421630859375
13.649999900000001,-8.202534675598145,-7.000645637512207,4.345476150512695,-19.0277099609375,-12.451171875,-25.3753662109375
13.6699999,-8.176198959350586,-7.158663272857666,4.4508209228515625,-29.0374755859375,-13.641357421875,-35.5072021484375
13.6899999,-8.145073890686035,-7.326257228851318,4.529829502105713,-38.2080078125,-18.890380859375,-48.76708984375
13.709999900000001,-8.106766700744629,-7.465120792388916,4.575319290161133,-44.586181640625,-26.06201171875,-63.5986328125
13.729999900000001,-8.044517517089844,-7.558494567871094,4.551377296447754,-49.62158203125,-30.2276611328125,-77.7740478515625
13.7499999,-7.94635534286499,-7.5968017578125,4.443638324737549,-56.4117431640625,-35.675048828125,-93.048095703125
13.7699999,-7.754819393157959,-7.603984832763672,4.304774761199951,-63.04931640625,-45.2117919921875,-109.588623046875
13.789999900000002,-7.489062786102295,-7.594407558441162,4.1395745277404785,-68.359375,-46.44775390625,-124.176025390625
13.809999900000001,-7.137115478515625,-7.5848307609558105,3.9384617805480957,-74.03564453125,-37.9486083984375,-136.260986328125
13.8299999,-6.677428722381592,-7.575253963470459,3.732560396194458,-79.8492431640625,-35.9039306640625,-147.4609375
13.8499999,-6.138733386993408,-7.599195957183838,3.4787750244140625,-84.7930908203125,-42.9229736328125,-157.16552734375
13.8699999,-5.525817394256592,-7.668628215789795,3.1747114658355713,-88.7451171875,-48.52294921875,-161.865234375
13.889999900000001,-4.81473970413208,-7.773972988128662,2.8371291160583496,-92.46826171875,-49.49951171875,-161.0260009765625
13.9099999,-4.0294413566589355,-7.920019149780273,2.4875755310058594,-94.8333740234375,-48.797607421875,-157.2418212890625
13.9299999,-3.2369606494903564,-8.087613105773926,2.123656988143921,-93.44482421875,-47.4700927734375,-150.787353515625
13.9499999,-2.4420857429504395,-8.221688270568848,1.7310078144073486,-90.1031494140625,-46.966552734375,-141.5252685546875
13.969999900000001,-1.6950948238372803,-8.339004516601562,1.357512354850769,-84.7625732421875,-51.3916015625,-130.0811767578125
13.9899999,-1.0271124839782715,-8.427590370178223,1.0055646896362305,-80.718994140625,-53.985595703125,-116.485595703125
14.0099999,-0.42856210470199585,-8.49941635131836,0.7182605266571045,-78.6285400390625,-49.4384765625,-102.5848388671875
14.0299999,0.08140286058187485,-8.549694061279297,0.49320554733276367,-76.1566162109375,-41.1376953125,-89.1571044921875
14.049999900000001,0.5051765441894531,-8.609549522399902,0.30885201692581177,-70.9381103515625,-33.9813232421875,-75.7598876953125
14.069999900000001,0.8355764150619507,-8.65982723236084,0.14844051003456116,-66.7572021484375,-28.2135009765625,-62.8814697265625
14.0899999,1.05105459690094,-8.736441612243652,-0.038307227194309235,-63.17138671875,-26.8402099609375,-50.4608154296875
14.1099999,1.139639973640442,-8.83699893951416,-0.2561795711517334,-60.5316162109375,-33.5540771484375,-37.6739501953125
14.129999900000001,1.139639973640442,-8.944737434387207,-0.4908113479614258,-58.5174560546875,-39.6575927734375,-25.5889892578125
14.149999900000001,1.1109095811843872,-9.033323287963867,-0.7110779285430908,-54.4586181640625,-33.966064453125,-17.9443359375
14.1699999,1.1085153818130493,-9.10993766784668,-0.9217676520347595,-47.7294921875,-19.378662109375,-13.9312744140625
14.1899999,1.115697979927063,-9.198522567749023,-1.1348515748977661,-38.604736328125,-11.962890625,-10.101318359375
14.209999900000001,1.1516109704971313,-9.318233489990234,-1.3623007535934448,-28.6712646484375,-15.350341796875,-4.8370361328125
14.229999900000001,1.1635819673538208,-9.478644371032715,-1.5921441316604614,-18.00537109375,-21.1944580078125,1.373291015625
14.2499999,1.2090718746185303,-9.641449928283691,-1.7525556087493896,-9.27734375,-20.6298828125,6.8817138671875
14.2699999,1.3096283674240112,-9.765948295593262,-1.8076223134994507,-2.6092529296875,-16.265869140625,12.6190185546875
14.289999900000002,1.4628572463989258,-9.847352027893066,-1.7381904125213623,2.532958984375,-16.754150390625,21.7132568359375
14.309999900000001,1.623268723487854,-9.904812812805176,-1.6112977266311646,5.0048828125,-22.9034423828125,34.3475341796875
14.3299999,1.6855180263519287,-9.95748519897461,-1.5059528350830078,5.401611328125,-36.407470703125,48.8433837890625
14.3499999,1.680729627609253,-9.986215591430664,-1.4221558570861816,5.9356689453125,-54.962158203125,62.9730224609375
14.3699999,1.6160861253738403,-9.998186111450195,-1.3766659498214722,6.6680908203125,-68.0999755859375,75.9429931640625
14.389999900000001,1.5729905366897583,-9.952696800231934,-1.2880805730819702,6.89697265625,-67.413330078125,88.2110595703125
14.4099999,1.6041151285171509,-9.86889934539795,-1.1444283723831177,6.0882568359375,-53.863525390625,99.79248046875
14.4299999,1.4987702369689941,-9.818621635437012,-1.072602391242981,4.5318603515625,-46.6461181640625,113.6474609375
14.4499999,1.2282254695892334,-9.797073364257812,-1.091755986213684,5.2642822265625,-61.004638671875,128.9520263671875
14.469999900000001,0.7876923680305481,-9.797073364257812,-1.1540051698684692,7.0953369140625,-80.8868408203125,140.7470703125
14.4899999,0.272938996553421,-9.792284965515137,-1.1348515748977661,5.6610107421875,-83.343505859375,148.13232421875
14.5099999,-0.33279404044151306,-9.742006301879883,-1.0031704902648926,-0.67138671875,-68.939208984375,153.99169921875
14.5299999,-0.9433154463768005,-9.591172218322754,-0.7398083209991455,-7.659912109375,-56.671142578125,157.3333740234375
14.549999900000001,-1.7142484188079834,-9.430760383605957,-0.507570743560791,-12.115478515625,-50.9796142578125,155.517578125
14.569999900000001,-2.5929205417633057,-9.157821655273438,-0.363918662071228,-15.68603515625,-45.7305908203125,150.5126953125
14.5899999,-3.485957622528076,-8.884882926940918,-0.33997663855552673,-21.2860107421875,-41.19873046875,143.6614990234375
14.6099999,-4.285621166229248,-8.528146743774414,-0.3998316824436188,-27.587890625,-44.25048828125,136.3067626953125
14.629999900000001,-4.865017890930176,-8.128314971923828,-0.47405192255973816,-31.25,-49.31640625,126.5106201171875
14.649999900000001,-5.228936672210693,-7.716512203216553,-0.5482721924781799,-32.8216552734375,-43.4112548828125,115.41748046875
14.6699999,-5.468356609344482,-7.354987621307373,-0.6033388376235962,-36.7431640625,-36.7889404296875,109.4512939453125
14.6899999,-5.671864032745361,-7.01979923248291,-0.6320692300796509,-43.2586669921875,-43.6553955078125,107.8643798828125
14.709999900000001,-5.961562156677246,-6.742072105407715,-0.6536170840263367,-46.905517578125,-54.50439453125,102.4627685546875
14.729999900000001,-6.313509941101074,-6.495469093322754,-0.6847416758537292,-48.5382080078125,-55.2215576171875,95.27587890625
14.7499999,-6.653486728668213,-6.279991149902344,-0.6967126727104187,-52.764892578125,-53.985595703125,94.6197509765625
14.7699999,-6.9024834632873535,-6.066906929016113,-0.6775590777397156,-58.04443359375,-56.0302734375,97.9156494140625
14.789999900000002,-7.122750282287598,-5.8657941818237305,-0.6919242739677429,-58.6395263671875,-53.1463623046875,96.9696044921875
14.809999900000001,-7.309497833251953,-5.640739440917969,-0.7086837291717529,-55.8319091796875,-48.6907958984375,93.7042236328125
14.8299999,-7.527369976043701,-5.418078422546387,-0.751779317855835,-56.3507080078125,-49.6368408203125,94.8333740234375
14.8499999,-7.771578788757324,-5.16429328918457,-0.8092401623725891,-59.9822998046875,-58.2275390625,100.3875732421875
14.8699999,-8.006210327148438,-4.924872875213623,-0.8523358106613159,-61.0809326171875,-66.8487548828125,104.06494140625
14.889999900000001,-8.195352554321289,-4.642356872558594,-0.849941611289978,-61.187744140625,-66.0858154296875,105.2093505859375
14.9099999,-8.336610794067383,-4.3406877517700195,-0.7709329724311829,-64.8040771484375,-61.1114501953125,107.9254150390625
14.9299999,-8.480262756347656,-3.9911341667175293,-0.6416460275650024,-72.75390625,-57.2052001953125,112.274169921875
14.9499999,-8.683769226074219,-3.6104562282562256,-0.48602294921875,-80.3680419921875,-54.6722412109375,111.3433837890625
14.969999900000001,-8.987833023071289,-3.177105665206909,-0.3232172429561615,-84.8846435546875,-48.6602783203125,103.8360595703125
14.9899999,-9.363722801208496,-2.7102363109588623,-0.14365209639072418,-88.2568359375,-36.31591796875,94.970703125
15.0099999,-9.770736694335938,-2.2673089504241943,0.028730420395731926,-92.437744140625,-22.1710205078125,88.226318359375
15.0299999,-10.158597946166992,-1.8794482946395874,0.15083470940589905,-98.3428955078125,-13.3819580078125,82.275390625
15.049999900000001,-10.481815338134766,-1.601720929145813,0.20350714027881622,-104.0191650390625,-12.9547119140625,75.836181640625
15.069999900000001,-10.711658477783203,-1.3527239561080933,0.14844051003456116,-108.184814453125,-13.5345458984375,70.0836181640625
15.0899999,-10.81460952758789,-1.1444283723831177,0.026336219161748886,-108.551025390625,-12.1002197265625,62.2711181640625
15.1099999,-10.78348445892334,-0.9552865028381348,-0.090979665517807,-106.4300537109375,-8.087158203125,53.619384765625
15.129999900000001,-10.69489860534668,-0.7805097699165344,-0.23702596127986908,-103.7750244140625,3.4027099609375,47.3785400390625
15.149999900000001,-10.579977035522461,-0.6751648783683777,-0.38307225704193115,-97.8851318359375,14.6636962890625,44.036865234375
15.1699999,-10.529699325561523,-0.6129156351089478,-0.5386953949928284,-88.592529296875,19.59228515625,42.633056640625
15.1899999,-10.56800651550293,-0.5817909836769104,-0.6775590777397156,-79.0863037109375,23.8800048828125,40.3594970703125
15.209999900000001,-10.72841739654541,-0.5578489899635315,-0.8403648138046265,-70.6329345703125,30.181884765625,35.4766845703125
15.229999900000001,-10.94150161743164,-0.545877993106842,-0.9959878921508789,-59.4024658203125,28.99169921875,29.1290283203125
15.2499999,-11.166556358337402,-0.5482721924781799,-1.1635819673538208,-45.2880859375,17.6239013671875,23.4375
15.2699999,-11.341333389282227,-0.5554547905921936,-1.314416766166687,-31.890869140625,3.631591796875,17.6239013671875
15.289999900000002,-11.401188850402832,-0.5746083855628967,-1.403002142906189,-22.15576171875,-11.1236572265625,11.6424560546875
15.309999900000001,-11.341333389282227,-0.5722141861915588,-1.403002142906189,-17.578125,-27.4200439453125,8.4991455078125
15.3299999,-11.154585838317871,-0.5746083855628967,-1.3120225667953491,-15.4876708984375,-44.3572998046875,9.0789794921875
15.3499999,-10.867281913757324,-0.5841852426528931,-1.1468225717544556,-14.312744140625,-55.84716796875,11.65771484375
15.3699999,-10.524910926818848,-0.6200982332229614,-0.9169792532920837,-13.73291015625,-59.87548828125,15.228271484375
15.389999900000001,-10.168174743652344,-0.6536170840263367,-0.6248866319656372,-17.2882080078125,-57.4493408203125,20.3399658203125
15.4099999,-9.859322547912598,-0.6919242739677429,-0.3232172429561615,-19.1802978515625,-48.15673828125,22.5982666015625
15.4299999,-9.655815124511719,-0.7110779285430908,-0.047884032130241394,-19.1650390625,-39.36767578125,21.1181640625
15.4499999,-9.593565940856934,-0.6727706789970398,0.16519992053508759,-18.5394287109375,-34.7747802734375,15.594482421875
15.469999900000001,-9.66539192199707,-0.5770025849342346,0.3280056416988373,-16.6015625,-28.6407470703125,8.1024169921875
15.4899999,-9.859322547912598,-0.40222588181495667,0.43335050344467163,-14.8773193359375,-17.2119140625,2.655029296875
15.5099999,-10.093954086303711,-0.2082955539226532,0.524330198764801,-13.275146484375,-8.8958740234375,0.6561279296875
15.5299999,-10.314221382141113,-0.028730420395731926,0.5817909836769104,-11.7034912109375,-6.866455078125,0.7781982421875
15.549999900000001,-10.469843864440918,0.10295066982507706,0.6200982332229614,-8.8958740234375,-6.2103271484375,1.8463134765625
15.569999900000001,-10.522516250610352,0.17956513166427612,0.6344634294509888,-4.57763671875,-4.2724609375,3.204345703125
15.5899999,-10.460267066955566,0.19871874153614044,0.608127236366272,-0.2899169921875,-2.166748046875,5.8135986328125
15.6099999,-10.335768699645996,0.20350714027881622,0.5315127968788147,5.0201416015625,-3.0975341796875,10.31494140625
15.629999900000001,-10.20648193359375,0.2298433631658554,0.4165911078453064,12.0391845703125,-9.82666015625,12.1307373046875
15.649999900000001,-10.086771965026855,0.28969839215278625,0.3232172429561615,17.4407958984375,-23.3001708984375,8.9874267578125
15.6699999,-10.010157585144043,0.4141969084739685,0.272938996553421,18.6767578125,-34.210205078125,6.1492919921875
15.6899999,-9.955090522766113,0.5674257874488831,0.33279404044151306,18.157958984375,-40.3289794921875,5.279541015625
15.709999900000001,-9.9000244140625,0.7326257228851318,0.5003881454467773,16.3116455078125,-44.708251953125,5.7220458984375
15.729999900000001,-9.799467086791992,0.790086567401886,0.7757213711738586,12.115478515625,-45.1507568359375,7.6751708984375
15.7499999,-9.670180320739746,0.9289502501487732,1.0965443849563599,6.5765380859375,-30.242919921875,11.688232421875
15.7699999,-9.466673851013184,0.933738648891449,1.460463047027588,2.8228759765625,-7.6751708984375,14.4500732421875
15.789999900000002,-9.385271072387695,0.9959878921508789,1.6879122257232666,-1.220703125,6.134033203125,13.3514404296875
15.809999900000001,-9.373299598693848,1.0414776802062988,1.8483237028121948,-7.171630859375,-0.6866455078125,8.0413818359375
15.8299999,-9.500192642211914,1.0247182846069336,1.8531121015548706,-12.237548828125,2.2735595703125,-3.47900390625
15.8499999,-9.660603523254395,0.9911994934082031,1.7884687185287476,0.9765625,7.476806640625,-11.5509033203125
15.869999900000002,-9.744400978088379,0.9193734526634216,1.6639702320098877,-4.730224609375,8.3770751953125,-11.3525390625
15.889999900000001,-9.737217903137207,0.8188169598579407,1.534683346748352,-31.0211181640625,8.941650390625,-4.8675537109375
15.9099999,-9.679757118225098,0.7350199222564697,1.403002142906189,-36.43798828125,12.4359130859375,3.2196044921875
15.9299999,-9.615114212036133,0.6871358752250671,1.316810965538025,-41.7633056640625,19.3023681640625,9.7198486328125
15.9499999,-9.576807022094727,0.6823474764823914,1.2545616626739502,-45.4254150390625,32.6995849609375,13.5498046875
15.969999900000001,-9.569623947143555,0.6823474764823914,1.158793568611145,-45.59326171875,48.5992431640625,16.5557861328125
15.9899999,-9.600749015808105,0.667982280254364,0.9959878921508789,-43.27392578125,56.8695068359375,20.416259765625
16.0099999,-9.710882186889648,0.6344634294509888,0.727837324142456,-38.1927490234375,54.50439453125,22.1405029296875
16.0299999,-9.921571731567383,0.608127236366272,0.38307225704193115,-30.3497314453125,43.0755615234375,18.3868408203125
16.0499999,-10.196905136108398,0.5889736413955688,0.009576806798577309,-21.759033203125,25.0701904296875,10.55908203125
16.0699999,-10.462661743164062,0.5722141861915588,-0.3208230137825012,-15.869140625,5.2642822265625,2.288818359375
16.089999900000002,-10.625467300415039,0.5267243981361389,-0.5554547905921936,-7.9345703125,-7.843017578125,-5.43212890625
16.109999900000002,-10.65898609161377,0.4644751250743866,-0.6799532771110535,0.579833984375,-13.214111328125,-12.115478515625
16.1299999,-10.563218116760254,0.38067805767059326,-0.6847416758537292,7.7667236328125,-18.85986328125,-15.4571533203125
16.1499999,-10.400412559509277,0.31364041566848755,-0.5961562395095825,12.420654296875,-26.4434814453125,-14.8468017578125
16.1699999,-10.189722061157227,0.272938996553421,-0.4381389021873474,15.5029296875,-31.2652587890625,-13.4124755859375
16.1899999,-9.931148529052734,0.24660277366638184,-0.22505496442317963,19.012451171875,-28.8238525390625,-13.3056640625
16.2099999,-9.643844604492188,0.24420857429504395,0.009576806798577309,22.2930908203125,-19.805908203125,-12.359619140625
16.2299999,-9.38048267364502,0.26336219906806946,0.22266076505184174,24.4293212890625,-8.9111328125,-8.7890625
16.249999900000002,-9.193734169006348,0.3232172429561615,0.37828385829925537,25.299072265625,-1.983642578125,-5.1422119140625
16.269999900000002,-9.097966194152832,0.395043283700943,0.4908113479614258,25.1007080078125,-1.5411376953125,-2.471923828125
16.2899999,-9.126696586608887,0.4812345504760742,0.5578489899635315,23.345947265625,-1.52587890625,1.3580322265625
16.3099999,-9.23682975769043,0.5554547905921936,0.6057330369949341,20.5230712890625,-2.3193359375,6.16455078125
16.3299999,-9.409213066101074,0.6248866319656372,0.6655880808830261,18.12744140625,-4.913330078125,9.0179443359375
16.3499999,-9.600749015808105,0.6823474764823914,0.7374141216278076,15.7928466796875,-4.0435791015625,9.521484375
16.3699999,-9.80904483795166,0.7565677165985107,0.8188169598579407,12.3748779296875,-0.67138671875,10.589599609375
16.3899999,-10.007762908935547,0.8331822156906128,0.9193734526634216,8.056640625,0.335693359375,12.786865234375
16.4099999,-10.182539939880371,0.8978256583213806,1.0199298858642578,4.180908203125,0.7476806640625,14.58740234375
16.429999900000002,-10.335768699645996,0.9576807022094727,1.1013327836990356,1.434326171875,2.227783203125,14.892578125
16.4499999,-10.453084945678711,1.0007762908935547,1.1468225717544556,-0.396728515625,3.96728515625,12.847900390625
16.4699999,-10.532093048095703,1.0342950820922852,1.1516109704971313,-1.5869140625,4.0435791015625,9.979248046875
16.4899999,-10.575188636779785,1.0558429956436157,1.1109095811843872,-2.74658203125,2.9754638671875,7.5531005859375
16.5099999,-10.582371711730957,1.0678139925003052,1.0319008827209473,-3.4027099609375,0.18310546875,3.90625
16.5299999,-10.548852920532227,1.0654197931289673,0.9528923034667969,-3.753662109375,-3.8604736328125,-1.1749267578125
16.5499999,-10.493785858154297,1.0582371950149536,0.8738836050033569,-4.45556640625,-7.568359375,-6.1187744140625
16.5699999,-10.412383079528809,1.0271124839782715,0.828393816947937,-4.8370361328125,-11.71875,-10.8795166015625
16.589999900000002,-10.292673110961914,0.9576807022094727,0.811634361743927,-4.7607421875,-14.2822265625,-14.923095703125
16.609999900000002,-10.103530883789062,0.8140285611152649,0.8355764150619507,-4.21142578125,-15.4571533203125,-15.6707763671875
16.6299999,-9.8784761428833,0.6488286852836609,0.8906430602073669,-3.7689208984375,-13.5498046875,-12.3748779296875
16.6499999,-9.624691009521484,0.47165772318840027,0.9600749015808105,-1.28173828125,-5.1422119140625,-9.2315673828125
16.6699999,-9.409213066101074,0.3280056416988373,1.0127472877502441,2.349853515625,5.1116943359375,-5.92041015625
16.6899999,-9.308655738830566,0.2585737705230713,1.0295066833496094,4.150390625,8.85009765625,0.762939453125
16.7099999,-9.375694274902344,0.26096799969673157,1.0079588890075684,4.730224609375,5.31005859375,8.8653564453125
16.7299999,-9.617507934570312,0.3423708379268646,0.9648633003234863,5.7525634765625,-1.4190673828125,12.1002197265625
16.749999900000002,-10.019734382629395,0.5027823448181152,0.9433154463768005,5.5389404296875,-6.4849853515625,6.3018798828125
16.769999900000002,-10.500968933105469,0.7038952708244324,0.9648633003234863,4.241943359375,-5.584716796875,-4.57763671875
16.7899999,-10.958261489868164,0.8954314589500427,1.0199298858642578,2.4871826171875,0.213623046875,-15.7623291015625
16.8099999,-11.30302619934082,1.0127472877502441,1.0797849893569946,0.54931640625,6.1187744140625,-27.099609375
16.8299999,-11.465831756591797,1.0342950820922852,1.0989385843276978,-1.373291015625,8.85009765625,-38.2080078125
16.8499999,-11.216835021972656,0.7972691655158997,0.9816226959228516,-2.50244140625,11.2457275390625,-53.5736083984375
16.8699999,-10.852916717529297,0.5746083855628967,0.8834604024887085,-3.4332275390625,10.467529296875,-57.2662353515625
16.8899999,-10.474632263183594,0.3256114423274994,0.8044517636299133,-6.4544677734375,8.11767578125,-57.5714111328125
16.9099999,-10.189722061157227,0.10773907601833344,0.7876923680305481,-8.11767578125,7.9498291015625,-61.46240234375
16.929999900000002,-10.019734382629395,-0.06224924325942993,0.828393816947937,-11.1083984375,6.072998046875,-76.324462890625
16.9499999,-9.856928825378418,-0.22026655077934265,0.9050082564353943,-17.3492431640625,7.1563720703125,-94.4671630859375
16.9699999,-9.636661529541016,-0.4405331015586853,1.0031704902648926,-21.4691162109375,25.6195068359375,-101.6693115234375
16.9899999,-9.38048267364502,-0.7326257228851318,1.0055646896362305,-15.838623046875,55.4656982421875,-100.9368896484375
17.0099999,-9.186552047729492,-1.0989385843276978,0.849941611289978,-4.0130615234375,64.88037109375,-102.3406982421875
17.0299999,-9.138668060302734,-1.4748282432556152,0.5602431893348694,2.471923828125,46.783447265625,-103.8360595703125
17.0499999,-9.196128845214844,-1.8626888990402222,0.19393034279346466,7.110595703125,26.2603759765625,-100.6011962890625
17.0699999,-9.241618156433105,-2.2194249629974365,-0.10773907601833344,13.2293701171875,24.749755859375,-92.28515625
17.089999900000002,-9.210494041442871,-2.6144683361053467,-0.26815059781074524,19.134521484375,38.3148193359375,-83.67919921875
17.109999900000002,-9.181763648986816,-2.983175277709961,-0.31842881441116333,21.8963623046875,51.177978515625,-74.76806640625
17.1299999,-9.20091724395752,-3.2800562381744385,-0.29209262132644653,20.355224609375,49.3011474609375,-66.5283203125
17.1499999,-9.251194953918457,-3.5242648124694824,-0.272938996553421,20.08056640625,44.677734375,-56.732177734375
17.1699999,-9.320627212524414,-3.6990416049957275,-0.24181437492370605,21.331787109375,44.86083984375,-40.58837890625
17.1899999,-9.433155059814453,-3.892971992492676,-0.28969839215278625,20.3857421875,46.3104248046875,-17.9443359375
17.2099999,-9.658209800720215,-4.101267337799072,-0.4405331015586853,18.9056396484375,33.87451171875,7.50732421875
17.2299999,-9.873687744140625,-4.2760443687438965,-0.646434485912323,20.355224609375,6.5155029296875,29.4952392578125
17.249999900000002,-10.007762908935547,-4.369418144226074,-0.8690952062606812,25.45166015625,-13.1683349609375,44.7998046875
17.269999900000002,-9.940725326538086,-4.273650169372559,-1.0271124839782715,34.4696044921875,-18.157958984375,52.001953125
17.2899999,-9.713275909423828,-4.02465295791626,-1.1013327836990356,46.1273193359375,-22.705078125,49.8504638671875
17.3099999,-9.459490776062012,-3.7014358043670654,-1.1037269830703735,56.70166015625,-33.233642578125,42.7093505859375
17.3299999,-9.339780807495117,-3.378218650817871,-1.0247182846069336,64.5294189453125,-40.6036376953125,34.0728759765625
17.3499999,-9.32541561126709,-3.141192674636841,-0.8236053586006165,71.5179443359375,-37.200927734375,22.1405029296875
17.3699999,-9.351752281188965,-3.0406360626220703,-0.507570743560791,76.629638671875,-26.67236328125,9.5062255859375
17.3899999,-9.378087997436523,-3.045424461364746,-0.08379705995321274,78.094482421875,-18.1121826171875,1.1444091796875
17.409999900000003,-9.41639518737793,-3.1100680828094482,0.3423708379268646,76.568603515625,-11.1541748046875,-8.23974609375
17.429999900000002,-9.526528358459473,-3.224989652633667,0.7422025203704834,73.394775390625,-6.77490234375,-22.4609375
17.4499999,-9.77791976928711,-3.3925838470458984,1.070208191871643,67.657470703125,-6.591796875,-37.2772216796875
17.4699999,-10.251971244812012,-3.531447410583496,1.316810965538025,59.8602294921875,-6.9427490234375,-59.3109130859375
17.4899999,-10.819397926330566,-3.6367924213409424,1.4939818382263184,53.89404296875,0.152587890625,-100.7232666015625
17.5099999,-11.322179794311523,-3.7900211811065674,1.5969325304031372,49.49951171875,13.2293701171875,-151.580810546875
17.5299999,-11.623848915100098,-3.912125587463379,1.6400281190872192,43.39599609375,24.4903564453125,-192.9931640625
17.5499999,-11.523292541503906,-4.199429988861084,1.5969325304031372,39.6728515625,37.5213623046875,-223.2208251953125
17.5699999,-11.070788383483887,-4.800374507904053,1.5322890281677246,38.1317138671875,43.8995361328125,-238.922119140625
17.589999900000002,-10.36449909210205,-5.578489780426025,1.4652514457702637,34.5611572265625,40.2984619140625,-239.68505859375
17.609999900000002,-9.378087997436523,-6.528987884521484,1.434126853942871,30.45654296875,38.4979248046875,-237.213134765625
17.6299999,-8.185775756835938,-7.582436561584473,1.4987702369689941,27.557373046875,39.8712158203125,-229.67529296875
17.6499999,-6.885724067687988,-8.611943244934082,1.6208745241165161,22.3846435546875,43.5028076171875,-209.991455078125
17.6699999,-5.564124584197998,-9.600749015808105,1.764526605606079,14.7857666015625,52.1697998046875,-183.9752197265625
17.6899999,-4.41969633102417,-10.469843864440918,1.8507179021835327,7.38525390625,65.7196044921875,-157.8216552734375
17.7099999,-3.6176388263702393,-11.097125053405762,1.7980455160140991,3.9825439453125,75.897216796875,-132.87353515625
17.7299999,-3.2800562381744385,-11.434707641601562,1.5418659448623657,10.8184814453125,72.021484375,-112.8082275390625
17.749999900000002,-3.3877954483032227,-11.429919242858887,1.0869675874710083,20.294189453125,52.734375,-103.179931640625
17.769999900000002,-3.840299606323242,-11.08994197845459,0.524330198764801,28.106689453125,24.169921875,-106.50634765625
17.7899999,-4.3622355461120605,-10.579977035522461,0.0071826050989329815,35.2935791015625,-9.368896484375,-119.781494140625
17.8099999,-4.714183330535889,-9.986215591430664,-0.2825157940387726,35.6903076171875,-37.9180908203125,-132.5836181640625
17.8299999,-4.750096321105957,-9.488221168518066,-0.29209262132644653,26.4892578125,-47.332763671875,-138.3209228515625
17.8499999,-4.491522312164307,-9.124302864074707,-0.05985504388809204,1.983642578125,-46.3714599609375,-140.869140625
17.8699999,-3.907337188720703,-8.887276649475098,0.3256114423274994,-10.3759765625,-51.4373779296875,-145.843505859375
17.8899999,-3.0526070594787598,-8.729259490966797,0.7541735172271729,-9.5977783203125,-57.159423828125,-146.3165283203125
17.909999900000003,-1.9943699836730957,-8.621520042419434,1.1348515748977661,-24.505615234375,-43.0755615234375,-134.9334716796875
17.929999900000002,-0.9624691009521484,-8.583212852478027,1.4077905416488647,-41.717529296875,-19.2108154296875,-121.03271484375
17.9499999,-0.19153612852096558,-8.547300338745117,1.4748282432556152,-49.7283935546875,-1.007080078125,-114.56298828125
17.9699999,0.2059013396501541,-8.470685958862305,1.3239935636520386,-50.262451171875,1.1749267578125,-118.988037109375
17.9899999,0.3711012601852417,-8.374917984008789,1.0247182846069336,-48.5076904296875,-4.1961669921875,-127.86865234375
18.0099999,0.4884171485900879,-8.29590892791748,0.6919242739677429,-46.32568359375,-0.8697509765625,-130.0811767578125
18.0299999,0.727837324142456,-8.259995460510254,0.40462008118629456,-46.6461181640625,12.7716064453125,-122.6654052734375
18.0499999,1.0749965906143188,-8.281543731689453,0.15801730751991272,-48.27880859375,22.7508544921875,-114.56298828125
18.0699999,1.4939818382263184,-8.305485725402832,-0.05985504388809204,-43.5333251953125,22.15576171875,-112.5946044921875
18.089999900000002,1.9153614044189453,-8.303091049194336,-0.2513911724090576,-34.088134765625,18.9971923828125,-113.311767578125
18.109999900000002,2.3080103397369385,-8.269572257995605,-0.40701428055763245,-36.9873046875,24.7955322265625,-108.7646484375
18.1299999,2.7246015071868896,-8.183381080627441,-0.5003881454467773,-43.212890625,39.520263671875,-103.1646728515625
18.1499999,3.1052796840667725,-8.070854187011719,-0.5363011956214905,-39.1693115234375,57.342529296875,-101.776123046875
18.1699999,3.4308910369873047,-7.898471355438232,-0.5913678407669067,-31.1431884765625,73.7152099609375,-98.9837646484375
18.1899999,3.6942532062530518,-7.704541206359863,-0.6607996821403503,-25.0244140625,75.042724609375,-94.3756103515625
18.2099999,3.8714241981506348,-7.515398979187012,-0.7661445140838623,-22.6593017578125,65.49072265625,-90.0421142578125
18.2299999,4.010287761688232,-7.354987621307373,-0.8523358106613159,-20.4620361328125,53.466796875,-85.1287841796875
18.249999900000002,4.127603530883789,-7.223306655883789,-0.8858546018600464,-17.2119140625,45.8526611328125,-80.3985595703125
18.269999900000002,4.264073371887207,-7.113173484802246,-0.8451532125473022,-13.5650634765625,40.4815673828125,-77.423095703125
18.2899999,4.448426723480225,-6.955155849456787,-0.7326257228851318,-9.3536376953125,33.8134765625,-78.2012939453125
18.3099999,4.6950297355651855,-6.797138690948486,-0.6129156351089478,-3.387451171875,27.16064453125,-82.2601318359375
18.3299999,5.03021764755249,-6.63433313369751,-0.4836287498474121,1.7852783203125,20.2484130859375,-84.3505859375
18.3499999,5.451597213745117,-6.495469093322754,-0.3711012601852417,3.0517578125,15.5487060546875,-80.0323486328125
18.3699999,5.92325496673584,-6.406883716583252,-0.272938996553421,3.326416015625,12.8021240234375,-70.953369140625
18.3899999,6.406883716583252,-6.358999729156494,-0.181959331035614,3.021240234375,7.4615478515625,-60.302734375
18.409999900000003,6.854599475860596,-6.296750545501709,-0.10773907601833344,1.2054443359375,0.9613037109375,-48.27880859375
18.429999900000002,7.261613845825195,-6.232107162475586,-0.0454898327589035,-2.2430419921875,-2.3651123046875,-36.0565185546875
18.4499999,7.580042362213135,-6.169857978820801,-0.009576806798577309,-5.8746337890625,-2.166748046875,-24.4903564453125
18.4699999,7.805097579956055,-6.095637321472168,0.002394201699644327,-9.5367431640625,-2.3956298828125,-13.671875
18.4899999,7.951143741607666,-6.033388137817383,-0.026336219161748886,-12.9852294921875,-3.2196044921875,-4.33349609375
18.5099999,7.977479934692383,-6.030993938446045,-0.11013327538967133,-14.6484375,-3.265380859375,3.2501220703125
18.5299999,7.999027729034424,-5.935225963592529,-0.07900865375995636,-16.0064697265625,-0.5645751953125,7.5531005859375
18.5499999,7.876923561096191,-5.870582580566406,-0.08619125932455063,-23.956298828125,10.5438232421875,11.90185546875
18.5699999,7.7213006019592285,-5.765237808227539,-0.09576806426048279,-37.4908447265625,23.0712890625,11.3525390625
18.589999900000002,7.465120792388916,-5.796362400054932,-0.22505496442317963,-41.0614013671875,24.261474609375,4.669189453125
18.609999900000002,7.161057472229004,-5.983109951019287,-0.6057330369949341,-32.379150390625,14.3280029296875,-3.7078857421875
18.6299999,6.921637058258057,-6.344634532928467,-1.0223240852355957,-15.1824951171875,-8.4686279296875,-7.4462890625
18.6499999,6.835445880889893,-6.744466304779053,-1.3862427473068237,-1.2969970703125,-20.3704833984375,-7.476806640625
18.6699999,6.936002254486084,-7.067683219909668,-1.5442601442337036,6.16455078125,-10.009765625,-5.615234375
18.6899999,7.19936466217041,-7.295132637023926,-1.5131354331970215,10.8642578125,2.44140625,-1.28173828125
18.7099999,7.489062786102295,-7.33583402633667,-1.3503297567367554,12.9547119140625,-2.4261474609375,5.1422119140625
18.7299999,7.757213592529297,-7.280767440795898,-1.1252747774124146,13.275146484375,-10.43701171875,11.2762451171875
18.749999900000002,7.807491779327393,-7.058106422424316,-0.8834604024887085,12.2528076171875,-5.06591796875,14.251708984375
18.769999900000002,7.762001991271973,-6.813898086547852,-0.6847416758537292,9.8114013671875,3.84521484375,11.688232421875
18.7899999,7.548917770385742,-6.514622688293457,-0.5051765441894531,7.293701171875,5.5084228515625,5.5084228515625
18.8099999,7.3238630294799805,-6.356605529785156,-0.4429273009300232,6.2103271484375,-1.3275146484375,1.2664794921875
18.8299999,7.175422668457031,-6.279991149902344,-0.395043283700943,3.9520263671875,-6.3018798828125,0.823974609375
18.8499999,7.062894821166992,-6.27280855178833,-0.3734954595565796,-0.5035400390625,-1.922607421875,1.373291015625
18.8699999,7.072471618652344,-6.402095317840576,-0.3734954595565796,-4.5928955078125,2.99072265625,1.2054443359375
18.8899999,7.072471618652344,-6.481103897094727,-0.3902548849582672,-6.6986083984375,2.1209716796875,0.8087158203125
18.909999900000003,7.043741226196289,-6.576871871948242,-0.4596867263317108,-6.77490234375,-0.91552734375,0.67138671875
18.929999900000002,7.0772600173950195,-6.6846113204956055,-0.5482721924781799,-5.79833984375,-1.7547607421875,-0.4730224609375
18.9499999,7.015010833740234,-6.67982292175293,-0.6224924325942993,-4.669189453125,-1.3427734375,-2.1514892578125
18.9699999,7.048529624938965,-6.744466304779053,-0.6943184733390808,-3.173828125,-1.6326904296875,-2.197265625
18.9899999,7.0772600173950195,-6.744466304779053,-0.7110779285430908,-1.3885498046875,-2.1514892578125,-0.7781982421875
19.0099999,7.06528902053833,-6.71334171295166,-0.7038952708244324,-0.30517578125,-0.885009765625,0.4119873046875
19.0299999,7.141903877258301,-6.744466304779053,-0.7015010714530945,0.1983642578125,-0.67138671875,1.0223388671875
19.0499999,7.129932880401611,-6.660669326782227,-0.6512228846549988,0.30517578125,-2.99072265625,1.922607421875
19.0699999,7.129932880401611,-6.670246124267578,-0.6416460275650024,0.1373291015625,-3.2958984375,3.692626953125
19.089999900000002,7.141903877258301,-6.66785192489624,-0.6272808313369751,0.2593994140625,-0.1983642578125,4.7149658203125
19.109999900000002,7.058106422424316,-6.648698329925537,-0.6272808313369751,1.068115234375,3.021240234375,3.7841796875
19.1299999,7.01979923248291,-6.715735912322998,-0.6703764796257019,2.899169921875,2.2430419921875,2.838134765625
19.1499999,6.967126846313477,-6.734889507293701,-0.6943184733390808,5.0201416015625,-0.18310546875,2.777099609375
19.1699999,6.900089263916016,-6.751648902893066,-0.7230489253997803,5.92041015625,0.8087158203125,2.6397705078125
19.1899999,6.92881965637207,-6.833051681518555,-0.7469909191131592,6.2255859375,1.5869140625,2.288818359375
19.2099999,6.900089263916016,-6.797138690948486,-0.7158663272857666,6.0882568359375,-0.701904296875,2.716064453125
19.2299999,6.926425457000732,-6.833051681518555,-0.6991068720817566,5.5084228515625,-0.9765625,3.4637451171875
19.249999900000002,6.955155849456787,-6.823474884033203,-0.646434485912323,4.33349609375,1.983642578125,3.509521484375
19.269999900000002,6.92881965637207,-6.773196697235107,-0.569819986820221,2.62451171875,2.86865234375,3.4942626953125
19.2899999,6.955155849456787,-6.8043212890625,-0.5147533416748047,0.5340576171875,0.7476806640625,3.143310546875
19.3099999,6.933608055114746,-6.761225700378418,-0.4357447028160095,-1.15966796875,-0.6256103515625,2.593994140625
19.3299999,6.890512466430664,-6.775590896606445,-0.4405331015586853,-2.13623046875,-0.2899169921875,2.349853515625
19.3499999,6.9024834632873535,-6.825869083404541,-0.45489832758903503,-2.044677734375,-0.8392333984375,2.86865234375
19.3699999,6.856993675231934,-6.806715488433838,-0.48602294921875,-1.4495849609375,-1.6021728515625,2.86865234375
19.3899999,6.871358871459961,-6.89530086517334,-0.5363011956214905,-0.5645751953125,-0.6866455078125,2.1209716796875
19.409999900000003,6.907271862030029,-6.907271862030029,-0.5315127968788147,0.1373291015625,-1.1138916015625,2.01416015625
19.429999900000002,6.885724067687988,-6.92881965637207,-0.5482721924781799,0.6561279296875,-2.288818359375,3.4027099609375
19.4499999,6.9240312576293945,-7.000645637512207,-0.5817909836769104,1.7852783203125,-1.15966796875,5.0048828125
19.4699999,6.871358871459961,-6.9910688400268555,-0.5961562395095825,3.1585693359375,0.091552734375,4.7454833984375
19.4899999,6.818686485290527,-7.0317702293396,-0.6392518281936646,3.60107421875,-0.946044921875,3.35693359375
19.5099999,6.825869083404541,-7.043741226196289,-0.6368576288223267,3.0975341796875,-2.9449462890625,2.50244140625
19.5299999,6.768408298492432,-7.005434036254883,-0.6200982332229614,1.922607421875,-1.3580322265625,2.227783203125
19.5499999,6.809109687805176,-7.0341644287109375,-0.6248866319656372,1.46484375,2.105712890625,1.9683837890625
19.5699999,6.823474884033203,-7.003039836883545,-0.6033388376235962,1.7547607421875,2.4566650390625,1.434326171875
19.589999900000002,6.782773494720459,-6.979097843170166,-0.608127236366272,1.2664794921875,0,1.2664794921875
19.609999900000002,6.8378400802612305,-6.983886241912842,-0.5817909836769104,-0.1983642578125,-1.89208984375,1.28173828125
19.6299999,6.806715488433838,-6.909666061401367,-0.5434837937355042,-2.74658203125,0.9918212890625,0.762939453125
19.6499999,6.813898086547852,-6.914454460144043,-0.5291185975074768,-3.753662109375,4.69970703125,0.3204345703125
19.6699999,6.852205276489258,-6.900089263916016,-0.5267243981361389,-2.9144287109375,1.9989013671875,1.129150390625
19.6899999,6.7923502922058105,-6.88332986831665,-0.5339069962501526,-2.5482177734375,-3.265380859375,2.532958984375
19.7099999,6.809109687805176,-6.952761650085449,-0.5674257874488831,-3.0364990234375,-2.8533935546875,2.3193359375
19.7299999,6.7923502922058105,-6.952761650085449,-0.5626373887062073,-3.3111572265625,1.922607421875,0.3509521484375
19.749999900000002,6.756437301635742,-6.9910688400268555,-0.5961562395095825,-2.288818359375,4.0740966796875,-0.762939453125
19.769999900000002,6.809109687805176,-7.041347026824951,-0.5937620401382446,-0.6561279296875,0.9765625,0.5645751953125
19.7899999,6.799532890319824,-7.017405033111572,-0.6033388376235962,-0.2593994140625,-1.861572265625,3.1585693359375
19.8099999,6.8162922859191895,-7.058106422424316,-0.608127236366272,-0.2593994140625,0.7171630859375,3.9215087890625
19.8299999,6.854599475860596,-7.058106422424316,-0.6009446382522583,0.7171630859375,4.8065185546875,2.197265625
19.8499999,6.787561893463135,-7.036558628082275,-0.6129156351089478,2.9449462890625,4.2724609375,0.762939453125
19.8699999,6.8043212890625,-7.091625213623047,-0.6177040338516235,4.669189453125,0.6256103515625,1.678466796875
19.8899999,6.775590896606445,-7.050923824310303,-0.5913678407669067,4.1961669921875,0.06103515625,2.8076171875
