# Time (seconds),Accel_X,Accel_Y,Accel_Z,Gyro_X,Gyro_Y,Gyro_Z
0.0099999,-8.609549522399902,-4.699818134307861,1.194706678390503,-10.1470947265625,-18.0206298828125,65.155029296875
0.029999900000000003,-8.616731643676758,-4.4508209228515625,1.2330138683319092,-14.46533203125,-11.2152099609375,62.408447265625
0.0499999,-8.686163902282715,-4.213795185089111,1.280897855758667,-17.9901123046875,-4.730224609375,56.1370849609375
0.0699999,-8.83939266204834,-3.974374771118164,1.3096283674240112,-21.697998046875,1.678466796875,48.4771728515625
0.08999990000000001,-9.040505409240723,-3.778050184249878,1.3000515699386597,-25.1922607421875,6.3629150390625,40.0238037109375
0.10999990000000001,-9.263166427612305,-3.5865142345428467,1.2234370708465576,-27.34375,6.744384765625,31.8450927734375
0.1299999,-9.409213066101074,-3.4356794357299805,1.0989385843276978,-27.4810791015625,3.9520263671875,25.238037109375
0.14999990000000002,-9.425971984863281,-3.3231520652770996,0.9457096457481384,-27.34375,3.84521484375,24.2919921875
0.1699999,-9.339780807495117,-3.2417490482330322,0.7876923680305481,-27.008056640625,7.6904296875,30.0140380859375
0.1899999,-9.167398452758789,-3.1938650608062744,0.6488286852836609,-24.2767333984375,8.819580078125,38.3148193359375
0.20999990000000002,-9.040505409240723,-3.1196448802948,0.5434837937355042,-19.256591796875,5.4473876953125,45.379638671875
0.2299999,-9.028534889221191,-3.0406360626220703,0.4620809257030487,-13.9923095703125,3.0975341796875,49.5452880859375
0.2499999,-9.155426979064941,-2.918531894683838,0.40701428055763245,-8.5601806640625,-1.5869140625,49.9267578125
0.2699999,-9.320627212524414,-2.7988216876983643,0.395043283700943,-2.197265625,-9.124755859375,46.173095703125
0.28999990000000003,-9.47146224975586,-2.7006595134735107,0.43095630407333374,3.4027099609375,-11.4593505859375,42.78564453125
0.3099999,-9.607931137084961,-2.6216509342193604,0.5051765441894531,6.7596435546875,-7.3394775390625,41.19873046875
0.3299999,-9.718064308166504,-2.561795711517334,0.6224924325942993,8.8958740234375,-7.5836181640625,37.41455078125
0.34999990000000003,-9.837775230407715,-2.497152328491211,0.7829039692878723,9.0179443359375,-11.2762451171875,30.4107666015625
0.3699999,-9.959878921508789,-2.4396915435791016,0.9433154463768005,6.34765625,-9.1400146484375,24.23095703125
0.3899999,-10.055646896362305,-2.343923568725586,1.0821791887283325,2.5787353515625,-4.0130615234375,19.7906494140625
0.40999990000000003,-10.043676376342773,-2.2601263523101807,1.1803414821624756,-0.396728515625,-2.7618408203125,15.838623046875
0.4299999,-9.962273597717285,-2.1787235736846924,1.2258312702178955,-2.685546875,-5.5084228515625,15.350341796875
0.4499999,-9.856928825378418,-2.0925323963165283,1.235408067703247,-5.7830810546875,-3.6773681640625,17.974853515625
0.4699999,-9.765948295593262,-2.0254945755004883,1.2258312702178955,-8.85009765625,4.302978515625,17.5628662109375
0.4899999,-9.727641105651855,-1.946485996246338,1.2186486721038818,-11.1541748046875,9.2010498046875,13.763427734375
0.5099999,-9.75637149810791,-1.8698714971542358,1.1994950771331787,-13.3056640625,10.6658935546875,10.6964111328125
0.5299999,-9.818621635437012,-1.8195933103561401,1.1563993692398071,-14.6942138671875,11.8255615234375,8.880615234375
0.5499999,-9.8784761428833,-1.7908629179000854,1.091755986213684,-12.359619140625,9.1400146484375,6.9732666015625
0.5699999,-9.9000244140625,-1.800439715385437,1.0247182846069336,-8.9874267578125,7.171630859375,4.3182373046875
0.5899998999999999,-9.883264541625977,-1.8171991109848022,0.9600749015808105,-5.645751953125,9.3536376953125,2.838134765625
0.6099998999999999,-9.840168952941895,-1.8171991109848022,0.9193734526634216,-1.556396484375,9.674072265625,4.5166015625
0.6299999,-9.77791976928711,-1.8052281141281128,0.9074024558067322,1.89208984375,2.593994140625,8.697509765625
0.6499999,-9.72285270690918,-1.7190368175506592,0.9672574996948242,1.8463134765625,-5.615234375,13.9923095703125
0.6699999,-9.751583099365234,-1.656787633895874,1.0271124839782715,0.1983642578125,-2.655029296875,11.7950439453125
0.6899999,-9.81143856048584,-1.5897499322891235,1.091755986213684,-2.227783203125,-3.0670166015625,8.4991455078125
0.7099999,-9.871294021606445,-1.53707754611969,1.1516109704971313,-4.730224609375,-2.6092529296875,5.9661865234375
0.7299998999999999,-9.93354320526123,-1.4891934394836426,1.1899182796478271,-7.0343017578125,2.2735595703125,4.9896240234375
0.7499998999999999,-9.974244117736816,-1.455674648284912,1.2018892765045166,-8.8958740234375,4.2572021484375,4.45556640625
0.7699999,-10.005369186401367,-1.4269442558288574,1.161187767982483,-10.467529296875,-3.0364990234375,4.69970703125
0.7899999,-9.998186111450195,-1.400607943534851,1.0797849893569946,-9.918212890625,-10.040283203125,5.67626953125
0.8099999,-9.938331604003906,-1.3838485479354858,0.9720458984375,-6.2713623046875,-5.9814453125,7.32421875
0.8299999,-9.84495735168457,-1.3718775510787964,0.8690952062606812,-1.861572265625,-0.48828125,10.4827880859375
0.8499998999999999,-9.734824180603027,-1.359906554222107,0.811634361743927,1.2054443359375,-7.9803466796875,14.404296875
0.8699998999999999,-9.679757118225098,-1.3263877630233765,0.8259995579719543,2.25830078125,-19.4091796875,16.41845703125
0.8899999,-9.682151794433594,-1.280897855758667,0.9074024558067322,2.5177001953125,-20.7672119140625,16.357421875
0.9099999,-9.725247383117676,-1.2401964664459229,1.0438719987869263,1.556396484375,-16.3726806640625,15.411376953125
0.9299999,-9.794678688049316,-1.2090718746185303,1.1755530834197998,0.0457763671875,-11.7950439453125,12.51220703125
0.9499999,-9.852140426635742,-1.2090718746185303,1.2761094570159912,-0.2593994140625,-6.2408447265625,6.0882568359375
0.9699998999999999,-9.897629737854004,-1.2282254695892334,1.3120225667953491,1.007080078125,2.8533935546875,-0.213623046875
0.9899998999999999,-9.914389610290527,-1.256955862045288,1.2976573705673218,2.410888671875,5.4473876953125,-1.4801025390625
1.0099999,-9.890447616577148,-1.290474772453308,1.235408067703247,3.0975341796875,-0.91552734375,1.4801025390625
1.0299999,-9.813833236694336,-1.314416766166687,1.173158884048462,3.9825439453125,-5.9661865234375,4.852294921875
1.0499999,-9.732429504394531,-1.3096283674240112,1.1228805780410767,4.7454833984375,-0.30517578125,7.080078125
1.0699999,-9.646238327026367,-1.278503656387329,1.0965443849563599,4.45556640625,5.767822265625,9.09423828125
1.0899999,-9.605537414550781,-1.216254472732544,1.1037269830703735,2.86865234375,5.8746337890625,10.7879638671875
1.1099999,-9.619902610778809,-1.1420341730117798,1.1109095811843872,2.593994140625,9.0484619140625,11.016845703125
1.1299999,-9.651026725769043,-1.0678139925003052,1.1324573755264282,3.2196044921875,12.3748779296875,9.918212890625
1.1499999,-9.734824180603027,-0.9840168952941895,1.1444283723831177,2.9144287109375,12.8936767578125,10.223388671875
1.1699998999999999,-9.93593692779541,-0.9002198576927185,1.1875240802764893,2.01416015625,6.195068359375,10.0250244140625
1.1899998999999999,-10.127472877502441,-0.8307880163192749,1.237802267074585,0.091552734375,-3.3416748046875,5.1116943359375
1.2099999,-10.302249908447266,-0.7733271718025208,1.2952631711959839,-1.1749267578125,-3.84521484375,2.7313232421875
1.2299999,-10.369287490844727,-0.7469909191131592,1.3192051649093628,-1.46484375,-2.227783203125,5.126953125
1.2499999,-10.244789123535156,-0.7445967197418213,1.2976573705673218,-3.1890869140625,-2.2430419921875,4.425048828125
1.2699999,-10.070012092590332,-0.7398083209991455,1.2497732639312744,-4.39453125,-2.349853515625,4.0283203125
1.2899999,-9.897629737854004,-0.7565677165985107,1.2210428714752197,-3.8604736328125,-1.9378662109375,2.5634765625
1.3099999,-9.785101890563965,-0.8355764150619507,1.235408067703247,-1.800537109375,-0.8697509765625,2.0294189453125
1.3299999,-9.765948295593262,-0.9097966551780701,1.3263877630233765,-0.2593994140625,0.67138671875,5.157470703125
1.3499999,-9.761159896850586,-0.993593692779541,1.4389152526855469,-1.1138916015625,3.021240234375,8.9569091796875
1.3699999,-9.794678688049316,-0.9648633003234863,1.50355863571167,-3.2958984375,6.4697265625,9.1552734375
1.3899999,-9.813833236694336,-0.828393816947937,1.5059528350830078,-4.669189453125,7.62939453125,6.805419921875
1.4099999,-9.840168952941895,-0.6248866319656372,1.455674648284912,-4.9285888671875,7.4615478515625,3.1585693359375
1.4299998999999999,-9.873687744140625,-0.4596867263317108,1.3670891523361206,-3.11279296875,8.270263671875,-1.40380859375
1.4499999,-9.892841339111328,-0.3495534360408783,1.3000515699386597,0.79345703125,10.1165771484375,-4.0740966796875
1.4699999,-9.907206535339355,-0.3447650372982025,1.235408067703247,6.500244140625,10.68115234375,-4.608154296875
1.4899999,-9.883264541625977,-0.4213795065879822,1.091755986213684,11.0931396484375,11.474609375,-6.53076171875
1.5099999,-9.931148529052734,-0.524330198764801,0.8906430602073669,11.016845703125,9.3994140625,-9.674072265625
1.5299999,-9.943120002746582,-0.6488286852836609,0.646434485912323,7.2021484375,5.1727294921875,-9.4146728515625
1.5499999,-10.010157585144043,-0.6919242739677429,0.4357447028160095,4.9285888671875,0.8544921875,-10.9100341796875
1.5699999,-10.034099578857422,-0.6751648783683777,0.3232172429561615,1.9989013671875,-5.5084228515625,-11.5814208984375
1.5899999,-10.055646896362305,-0.6536170840263367,0.3256114423274994,-3.2501220703125,-10.7879638671875,-9.1400146484375
1.6099999,-10.041281700134277,-0.6488286852836609,0.47644615173339844,-5.584716796875,-12.4053955078125,-6.9122314453125
1.6299999,-10.002974510192871,-0.7613561153411865,0.6775590777397156,-5.5084228515625,-11.1846923828125,-5.5389404296875
1.6499999,-9.940725326538086,-0.9576807022094727,0.9768342971801758,-3.0059814453125,-9.3841552734375,-4.8370361328125
1.6699999,-9.84495735168457,-1.1994950771331787,1.235408067703247,1.800537109375,-6.5460205078125,-2.838134765625
1.6899998999999999,-9.787496566772461,-1.4269442558288574,1.455674648284912,6.4239501953125,-4.1656494140625,0.823974609375
1.7099999,-9.751583099365234,-1.5394717454910278,1.6065093278884888,9.246826171875,-2.288818359375,4.8980712890625
1.7299999,-9.732429504394531,-1.5682021379470825,1.6687586307525635,8.819580078125,0.54931640625,6.9732666015625
1.7499999,-9.744400978088379,-1.4628572463989258,1.6950948238372803,5.462646484375,2.99072265625,8.4381103515625
1.7699999,-9.749189376831055,-1.3192051649093628,1.6759412288665771,0.4730224609375,5.462646484375,11.9781494140625
1.7899999,-9.758766174316406,-1.1563993692398071,1.5849615335464478,-5.340576171875,7.75146484375,14.7552490234375
1.8099999,-9.81143856048584,-0.9983820915222168,1.4197616577148438,-9.2926025390625,7.8125,15.2130126953125
1.8299999,-9.861717224121094,-0.8212111592292786,1.2449848651885986,-9.124755859375,5.6915283203125,14.5263671875
1.8499999,-9.911994934082031,-0.6153098344802856,1.070208191871643,-7.4310302734375,4.39453125,13.24462890625
1.8699999,-9.955090522766113,-0.4213795065879822,0.9097966551780701,-5.4168701171875,3.387451171875,9.033203125
1.8899999,-9.983820915222168,-0.29209262132644653,0.7733271718025208,-1.373291015625,0.8697509765625,4.0740966796875
1.9099999,-10.019734382629395,-0.21787235140800476,0.6655880808830261,5.4473876953125,-2.9754638671875,2.2735595703125
1.9299998999999999,-10.017339706420898,-0.272938996553421,0.629675030708313,11.322021484375,-6.04248046875,1.434326171875
1.9499999,-9.995792388916016,-0.38067805767059326,0.7158663272857666,11.962890625,-5.9967041015625,0.54931640625
1.9699999,-9.945513725280762,-0.5051765441894531,0.9193734526634216,9.3536376953125,-3.5400390625,1.4190673828125
1.9899999,-9.876082420349121,-0.5937620401382446,1.1492167711257935,5.828857421875,-1.0223388671875,3.509521484375
2.0099999,-9.837775230407715,-0.6224924325942993,1.3503297567367554,2.7008056640625,0.79345703125,4.3487548828125
2.0299999,-9.821015357971191,-0.5817909836769104,1.4676456451416016,2.105712890625,2.166748046875,3.173828125
2.0499999,-9.828198432922363,-0.4908113479614258,1.501164436340332,3.692626953125,3.753662109375,1.1444091796875
2.0699999,-9.84495735168457,-0.40701428055763245,1.4389152526855469,6.1492919921875,4.730224609375,-0.3814697265625
2.0899999,-9.86889934539795,-0.3256114423274994,1.314416766166687,10.8489990234375,4.0740966796875,-1.9683837890625
2.1099999,-9.919178009033203,-0.19632454216480255,1.2018892765045166,19.1497802734375,2.8228759765625,-5.828857421875
2.1299999,-9.749189376831055,-0.15322890877723694,1.072602391242981,26.0467529296875,2.3651123046875,-12.63427734375
2.1499999,-9.876082420349121,-0.16759411990642548,0.9792284965515137,25.2838134765625,1.5869140625,-14.312744140625
2.1699999,-9.785101890563965,-0.2992752194404602,0.9074024558067322,19.866943359375,-1.617431640625,-14.4805908203125
2.1899999,-9.856928825378418,-0.6272808313369751,0.912190854549408,11.8255615234375,-3.9825439453125,-8.209228515625
2.2099999,-10.02452278137207,-0.8331822156906128,1.0271124839782715,-1.4495849609375,-1.7852783203125,0.518798828125
2.2299999,-9.99339771270752,-1.0558429956436157,1.1851298809051514,-15.1519775390625,2.4871826171875,8.8043212890625
2.2499999,-10.000580787658691,-1.1061211824417114,1.3192051649093628,-24.0020751953125,4.0130615234375,11.5966796875
2.2699999,-9.945513725280762,-1.1300631761550903,1.3742717504501343,-27.6031494140625,3.265380859375,13.458251953125
2.2899999,-9.883264541625977,-1.0869675874710083,1.3048399686813354,-29.0374755859375,3.570556640625,17.4102783203125
2.3099999,-9.856928825378418,-1.0558429956436157,1.1851298809051514,-22.94921875,2.5482177734375,19.10400390625
2.3299999,-9.852140426635742,-0.9720458984375,1.070208191871643,-11.444091796875,0.3662109375,17.9443359375
2.3499999,-9.864110946655273,-0.7398083209991455,1.0103530883789062,-1.8463134765625,0.152587890625,15.9149169921875
2.3699999,-9.880870819091797,-0.45489832758903503,0.8882488012313843,6.4544677734375,0.54931640625,11.8560791015625
2.3899999,-9.926360130310059,-0.05027823522686958,0.8690952062606812,15.2130126953125,-3.4942626953125,4.3792724609375
2.4099999,-9.952696800231934,0.2825157940387726,0.9289502501487732,10.92529296875,-5.4779052734375,-0.2899169921875
2.4299999,-9.909601211547852,0.5793967843055725,1.1276689767837524,-7.8125,0.6561279296875,-0.5645751953125
2.4499999,-9.837775230407715,0.6751648783683777,1.3287819623947144,-22.796630859375,7.080078125,-2.7618408203125
2.4699999,-9.787496566772461,0.5219359993934631,1.5179238319396973,-25.08544921875,7.1868896484375,-5.401611328125
2.4899999,-9.799467086791992,0.2059013396501541,1.5107412338256836,-22.1710205078125,6.7138671875,-2.5634765625
2.5099999,-9.856928825378418,-0.20350714027881622,1.290474772453308,-14.4500732421875,6.0577392578125,0.6561279296875
2.5299999,-10.017339706420898,-0.6009446382522583,0.8619126081466675,2.655029296875,-0.3662109375,-2.62451171875
2.5499999,-10.132261276245117,-0.8786720037460327,0.43095630407333374,20.233154296875,-12.26806640625,-5.4779052734375
2.5699999,-10.204087257385254,-0.9528923034667969,0.1412578970193863,22.3388671875,-18.3563232421875,-1.5411376953125
2.5899999,-10.196905136108398,-0.8307880163192749,0.05267243832349777,13.9617919921875,-17.7154541015625,1.5716552734375
2.6099999,-10.132261276245117,-0.524330198764801,0.24660277366638184,9.521484375,-19.8211669921875,-3.11279296875
2.6299999,-10.050858497619629,-0.1604115068912506,0.6248866319656372,8.2855224609375,-23.3306884765625,-6.53076171875
2.6499999,-9.928754806518555,0.1173158809542656,1.0223240852355957,3.4027099609375,-22.4151611328125,-7.5225830078125
2.6699999,-9.880870819091797,0.33279404044151306,1.3766659498214722,0.18310546875,-18.9666748046875,-10.650634765625
2.6899999,-9.818621635437012,0.1604115068912506,1.7262194156646729,0.6256103515625,-17.7001953125,-13.9312744140625
2.7099999,-9.732429504394531,-0.05506663769483566,2.0254945755004883,-4.7607421875,-14.0228271484375,-12.237548828125
2.7299999,-9.658209800720215,-0.42856210470199585,2.209848165512085,-12.298583984375,-6.34765625,-5.7373046875
2.7499999,-9.62947940826416,-0.7637503147125244,2.315192937850952,-11.4288330078125,-2.655029296875,-1.373291015625
2.7699999,-9.639056205749512,-0.9864110946655273,2.3271639347076416,-3.8909912109375,-1.861572265625,0.6103515625
2.7899999,-9.648633003234863,-1.0031704902648926,2.250549554824829,-1.5411376953125,-1.46484375,2.1820068359375
2.8099999,-9.710882186889648,-0.8810662031173706,2.078166961669922,-4.45556640625,1.983642578125,1.2664794921875
2.8299999,-9.799467086791992,-0.6272808313369751,1.8842366933822632,-1.861572265625,0.6561279296875,-2.99072265625
2.8499999,-9.849745750427246,-0.4644751250743866,1.656787633895874,5.7220458984375,-2.899169921875,-8.209228515625
2.8699999,-9.86889934539795,-0.33997663855552673,1.460463047027588,8.0413818359375,-3.5552978515625,-8.48388671875
2.8899999,-9.885659217834473,-0.31124621629714966,1.4053963422775269,5.035400390625,-3.9215087890625,-5.18798828125
2.9099999,-9.861717224121094,-0.4357447028160095,1.482010841369629,3.0670166015625,-4.119873046875,-4.0130615234375
2.9299999,-9.801861763000488,-0.5817909836769104,1.6663644313812256,2.4566650390625,-2.2430419921875,-3.5858154296875
2.9499999,-9.773131370544434,-0.7805097699165344,1.845929503440857,1.3427734375,0.4730224609375,0.1068115234375
2.9699999,-9.739612579345703,-0.9169792532920837,1.9321208000183105,0.335693359375,1.068115234375,2.105712890625
2.9899999,-9.720458984375,-0.9983820915222168,1.9369091987609863,-0.3814697265625,2.6702880859375,0.9307861328125
3.0099999,-9.763554573059082,-0.9002198576927185,1.824381709098816,-2.044677734375,3.0975341796875,2.410888671875
3.0299999,-9.825803756713867,-0.6943184733390808,1.7262194156646729,-4.4097900390625,-0.457763671875,5.5084228515625
3.0499999,-9.847352027893066,-0.5530605912208557,1.5753847360610962,-5.9814453125,-4.1351318359375,3.326416015625
3.0699999,-9.9000244140625,-0.47165772318840027,1.460463047027588,-3.0670166015625,-3.6468505859375,-1.5869140625
3.0899999,-9.897629737854004,-0.5410895943641663,1.3838485479354858,3.2501220703125,-7.843017578125,0.6256103515625
3.1099999,-9.883264541625977,-0.689530074596405,1.4077905416488647,6.40869140625,-10.6964111328125,3.7841796875
3.1299999,-9.880870819091797,-0.7613561153411865,1.5418659448623657,6.0882568359375,-7.50732421875,5.06591796875
3.1499999,-9.849745750427246,-0.811634361743927,1.702277421951294,5.4779052734375,-5.2947998046875,7.2479248046875
3.1699999,-9.797073364257812,-0.629675030708313,1.9177556037902832,3.4942626953125,-7.4005126953125,8.3465576171875
3.1899999,-9.72285270690918,-0.4141969084739685,2.118868589401245,-2.0904541015625,-6.5765380859375,5.06591796875
3.2099999,-9.6989107131958,-0.1604115068912506,2.2864625453948975,-8.5296630859375,1.3427734375,1.6021728515625
3.2299999,-9.646238327026367,-0.016759412363171577,2.406172752380371,-11.0321044921875,4.1046142578125,-1.7852783203125
3.2499999,-9.646238327026367,-0.0454898327589035,2.425326347351074,-11.932373046875,5.4779052734375,-3.6163330078125
3.2699999,-9.670180320739746,-0.09816227108240128,2.3487119674682617,-13.5955810546875,8.9874267578125,0.4119873046875
3.2899999,-9.713275909423828,-0.22026655077934265,2.2218191623687744,-13.5650634765625,10.0860595703125,2.8839111328125
3.3099999,-9.746794700622559,-0.3711012601852417,2.0039467811584473,-8.819580078125,6.103515625,-2.3040771484375
3.3299999000000002,-9.852140426635742,-0.47884035110473633,1.7908629179000854,-2.5177001953125,5.035400390625,-4.9896240234375
3.3499999,-9.895236015319824,-0.6584054827690125,1.5179238319396973,1.8463134765625,0.1068115234375,-1.03759765625
3.3699999,-9.93593692779541,-0.751779317855835,1.3287819623947144,4.4708251953125,-3.082275390625,-2.1514892578125
3.3899999,-9.914389610290527,-0.7924807667732239,1.2617442607879639,7.2784423828125,-3.021240234375,-2.6092529296875
3.4099999,-9.909601211547852,-0.7613561153411865,1.3670891523361206,5.645751953125,-3.8604736328125,3.631591796875
3.4299999,-9.832986831665039,-0.7254431247711182,1.577778935432434,-2.227783203125,-4.7149658203125,7.904052734375
3.4499999,-9.78989028930664,-0.6248866319656372,1.8076223134994507,-9.8419189453125,-2.1209716796875,5.4931640625
3.4699999,-9.785101890563965,-0.5626373887062073,1.9800047874450684,-10.772705078125,1.129150390625,3.082275390625
3.4899999,-9.732429504394531,-0.42377370595932007,2.0685901641845703,-9.8724365234375,-1.220703125,2.8076171875
3.5099999,-9.718064308166504,-0.304063618183136,2.0590133666992188,-11.1083984375,1.1138916015625,1.89208984375
3.5299999,-9.737217903137207,-0.24420857429504395,1.9823989868164062,-9.674072265625,3.4332275390625,0.732421875
3.5499999,-9.751583099365234,-0.21547815203666687,1.900996208190918,-4.45556640625,1.556396484375,0.8087158203125
3.5699999,-9.761159896850586,-0.3208230137825012,1.7980455160140991,0.4730224609375,-3.7689208984375,0.8544921875
3.5899999,-9.797073364257812,-0.4596867263317108,1.7621324062347412,2.471923828125,-1.434326171875,0.335693359375
3.6099999,-9.773131370544434,-0.5961562395095825,1.7525556087493896,4.82177734375,0.3204345703125,2.01416015625
3.6299999,-9.787496566772461,-0.6655880808830261,1.8363527059555054,4.4403076171875,0.2288818359375,-0.2288818359375
3.6499999,-9.761159896850586,-0.6320692300796509,1.9297266006469727,0.4119873046875,0.7476806640625,-0.1983642578125
3.6699999,-9.794678688049316,-0.49320554733276367,1.946485996246338,-4.39453125,2.9449462890625,1.739501953125
3.6899999,-9.835380554199219,-0.3758896589279175,1.9129672050476074,-3.0670166015625,1.5869140625,0.9307861328125
3.7099999,-9.840168952941895,-0.3471592366695404,1.778891921043396,1.495361328125,-3.8299560546875,-3.8299560546875
3.7299999,-9.883264541625977,-0.4141969084739685,1.6639702320098877,5.9051513671875,-4.4708251953125,-2.288818359375
3.7499999,-9.86650562286377,-0.524330198764801,1.6184803247451782,10.0555419921875,-5.5694580078125,2.5482177734375
3.7699999,-9.84256362915039,-0.6512228846549988,1.7046716213226318,12.359619140625,-4.2877197265625,1.7547607421875
3.7899999,-9.770736694335938,-0.629675030708313,1.9105730056762695,11.3372802734375,-2.7313232421875,0.274658203125
3.8099999,-9.746794700622559,-0.5171475410461426,2.099714994430542,7.049560546875,1.5411376953125,2.7313232421875
3.8299999000000002,-9.694122314453125,-0.30885201692581177,2.250549554824829,3.8299560546875,2.044677734375,3.0364990234375
3.8499999,-9.703699111938477,-0.11971008777618408,2.2888567447662354,0.457763671875,2.410888671875,-3.3111572265625
3.8699999,-9.734824180603027,-0.047884032130241394,2.22660756111145,-3.0975341796875,3.8299560546875,-4.1351318359375
3.8899999,-9.734824180603027,-0.040701430290937424,2.1739351749420166,-8.5601806640625,4.5928955078125,0.1678466796875
3.9099999,-9.775525093078613,-0.2106897532939911,2.032677173614502,-11.8560791015625,6.6375732421875,-0.0152587890625
3.9299999,-9.78989028930664,-0.3711012601852417,1.8914192914962769,-7.843017578125,3.9215087890625,-1.739501953125
3.9499999,-9.8784761428833,-0.5434837937355042,1.7381904125213623,-0.091552734375,0.457763671875,0.885009765625
3.9699999,-9.888052940368652,-0.6177040338516235,1.6208745241165161,6.683349609375,-4.6539306640625,2.8839111328125
3.9899999,-9.876082420349121,-0.6991068720817566,1.556231141090393,8.36181640625,-3.1280517578125,-0.3509521484375
4.0099999,-9.830592155456543,-0.6200982332229614,1.6136919260025024,8.60595703125,-1.64794921875,0.0762939453125
4.029999900000001,-9.794678688049316,-0.5291185975074768,1.7621324062347412,4.45556640625,-1.9683837890625,2.38037109375
4.0499999,-9.758766174316406,-0.395043283700943,1.968033790588379,-3.72314453125,0.946044921875,0.8392333984375
4.069999900000001,-9.746794700622559,-0.2298433631658554,2.1595699787139893,-10.1470947265625,3.60107421875,-0.8392333984375
4.0899999000000005,-9.818621635437012,-0.1628057211637497,2.2840683460235596,-10.68115234375,6.3018798828125,1.0528564453125
4.1099999,-9.847352027893066,-0.1412578970193863,2.2697031497955322,-8.5906982421875,4.4403076171875,0.30517578125
4.1299999000000005,-9.883264541625977,-0.2561795711517334,2.1116859912872314,-7.293701171875,4.8370361328125,-0.0152587890625
4.1499999,-9.943120002746582,-0.35673606395721436,2.011129379272461,-6.866455078125,4.7454833984375,4.180908203125
4.1699999000000005,-9.883264541625977,-0.5937620401382446,1.821987509727478,-7.2174072265625,7.50732421875,5.43212890625
4.1899999,-9.897629737854004,-0.6703764796257019,1.534683346748352,7.7362060546875,5.1116943359375,2.044677734375
4.209999900000001,-9.861717224121094,-0.7374141216278076,1.3455413579940796,37.0635986328125,-8.544921875,-0.48828125
4.2299999,-9.86889934539795,-0.5626373887062073,1.1875240802764893,45.623779296875,-11.505126953125,-2.86865234375
4.249999900000001,-9.823410034179688,-0.26575639843940735,1.3431471586227417,36.041259765625,-6.8817138671875,-6.0272216796875
4.2699999,-9.72285270690918,0.10534487664699554,1.7357962131500244,19.7601318359375,-0.8544921875,-8.9263916015625
4.289999900000001,-9.63187313079834,0.3926490843296051,2.205059766769409,4.791259765625,5.828857421875,-11.4898681640625
4.3099999,-9.5624418258667,0.4692635238170624,2.5522189140319824,-4.0740966796875,11.6729736328125,-12.786865234375
4.329999900000001,-9.53849983215332,0.2944868206977844,2.695871114730835,-6.2713623046875,14.8162841796875,-12.420654296875
4.3499999,-9.576807022094727,-0.033518824726343155,2.607285737991333,-5.5694580078125,15.1519775390625,-10.0250244140625
4.369999900000001,-9.68933391571045,-0.42856210470199585,2.3343467712402344,-3.570556640625,14.3280029296875,-6.9580078125
4.3899999,-9.837775230407715,-0.7709329724311829,1.968033790588379,1.6021728515625,10.528564453125,-5.0506591796875
4.409999900000001,-9.995792388916016,-0.9816226959228516,1.6136919260025024,6.500244140625,7.293701171875,-1.9073486328125
4.4299999,-10.220847129821777,-1.0654197931289673,1.3311761617660522,8.209228515625,6.103515625,2.0751953125
4.449999900000001,-10.668562889099121,-0.9816226959228516,1.2042834758758545,8.9569091796875,3.2806396484375,-2.777099609375
4.4699999,-11.590330123901367,-0.7086837291717529,1.3479355573654175,10.894775390625,-19.3939208984375,-23.0865478515625
4.489999900000001,-11.772290229797363,-0.608127236366272,1.50355863571167,11.3525390625,-18.157958984375,-25.5126953125
4.5099999,-11.5065336227417,-0.5626373887062073,1.6208745241165161,12.8173828125,-5.126953125,-25.787353515625
4.529999900000001,-10.879252433776855,-0.5434837937355042,1.6639702320098877,14.678955078125,7.6141357421875,-22.613525390625
4.5499999,-10.038887977600098,-0.5051765441894531,1.644816517829895,14.068603515625,9.3841552734375,-14.4500732421875
4.569999900000001,-9.160215377807617,-0.44532153010368347,1.6160861253738403,11.5966796875,4.2266845703125,-4.3792724609375
4.5899999000000005,-8.451532363891602,-0.35434186458587646,1.623268723487854,7.171630859375,5.0811767578125,4.302978515625
4.609999900000001,-8.020575523376465,-0.24420857429504395,1.6879122257232666,0.2899169921875,10.4827880859375,8.0413818359375
4.6299999000000005,-7.891288757324219,-0.14365209639072418,1.7812861204147339,-7.6141357421875,13.12255859375,7.171630859375
4.6499999,-7.989450931549072,-0.090979665517807,1.8483237028121948,-13.031005859375,9.4757080078125,7.354736328125
4.6699999000000005,-8.224082946777344,-0.090979665517807,1.86508309841156,-13.916015625,5.4168701171875,11.260986328125
4.6899999,-8.504204750061035,-0.16759411990642548,1.8195933103561401,-12.51220703125,5.6610107421875,15.5792236328125
4.709999900000001,-8.803479194641113,-0.28730419278144836,1.745373010635376,-11.016845703125,4.9896240234375,17.913818359375
4.7299999,-9.107542991638184,-0.4357447028160095,1.678335428237915,-8.8043212890625,2.471923828125,18.2952880859375
4.749999900000001,-9.404424667358398,-0.5793967843055725,1.625662922859192,-5.9661865234375,2.349853515625,17.88330078125
4.7699999,-9.679757118225098,-0.7038952708244324,1.5945383310317993,-3.265380859375,4.302978515625,15.655517578125
4.789999900000001,-9.940725326538086,-0.8092401623725891,1.580173134803772,-0.579833984375,4.150390625,11.71875
4.8099999,-10.146626472473145,-0.8786720037460327,1.5825673341751099,1.7242431640625,-0.701904296875,6.53076171875
4.829999900000001,-10.26394271850586,-0.9433154463768005,1.5969325304031372,3.2501220703125,-5.06591796875,2.3345947265625
4.8499999,-10.261548042297363,-0.9720458984375,1.6041151285171509,4.5928955078125,-5.9661865234375,0.885009765625
4.869999900000001,-10.110713958740234,-0.9911994934082031,1.6065093278884888,5.92041015625,-4.82177734375,0.732421875
4.8899999,-9.907206535339355,-0.9768342971801758,1.6041151285171509,6.9732666015625,-3.1280517578125,2.777099609375
4.909999900000001,-9.701305389404297,-0.9289502501487732,1.6112977266311646,6.7138671875,-3.0975341796875,3.9215087890625
4.9299999,-9.557653427124023,-0.849941611289978,1.6424223184585571,4.8980712890625,-2.62451171875,2.8228759765625
4.949999900000001,-9.485827445983887,-0.7493851184844971,1.6855180263519287,2.01416015625,-2.044677734375,2.197265625
4.9699999,-9.466673851013184,-0.6440402865409851,1.7286136150360107,-1.0528564453125,-1.77001953125,3.2501220703125
4.989999900000001,-9.516951560974121,-0.545877993106842,1.7525556087493896,-3.8604736328125,2.2735595703125,3.4637451171875
5.0099999,-9.600749015808105,-0.4668693244457245,1.7477672100067139,-6.072998046875,6.8206787109375,1.40380859375
5.029999900000001,-9.677363395690918,-0.40462008118629456,1.721431016921997,-7.9193115234375,6.5460205078125,0.7781982421875
5.0499999,-9.701305389404297,-0.35434186458587646,1.6687586307525635,-9.307861328125,6.9580078125,4.7454833984375
5.069999900000001,-9.684545516967773,-0.2944868206977844,1.6065093278884888,-10.31494140625,12.176513671875,9.735107421875
5.0899999000000005,-9.794678688049316,-0.2298433631658554,1.5538369417190552,-11.2152099609375,17.5628662109375,10.650634765625
5.109999900000001,-10.168174743652344,-0.22026655077934265,1.4963760375976562,-13.2598876953125,13.153076171875,-0.18310546875
5.1299999000000005,-10.551246643066406,-0.16759411990642548,1.403002142906189,-16.3116455078125,8.3160400390625,-13.092041015625
5.1499999,-10.939107894897461,-0.19393034279346466,1.2521674633026123,-15.2435302734375,4.150390625,2.044677734375
5.1699999000000005,-10.943896293640137,-0.14365209639072418,1.1037269830703735,-10.3912353515625,0.6103515625,2.288818359375
5.1899999,-10.647014617919922,-0.15083470940589905,0.9792284965515137,-4.150390625,-2.25830078125,-5.5999755859375
5.209999900000001,-10.299856185913086,-0.2059013396501541,0.9672574996948242,3.2958984375,-3.387451171875,-8.575439453125
5.2299999,-9.981427192687988,-0.33518823981285095,1.1300631761550903,9.979248046875,-4.425048828125,-7.110595703125
5.249999900000001,-9.780313491821289,-0.5003881454467773,1.414973258972168,11.5814208984375,-2.0904541015625,-3.11279296875
5.2699999,-9.653421401977539,-0.6200982332229614,1.7310078144073486,8.4075927734375,4.119873046875,-1.2359619140625
5.289999900000001,-9.57201862335205,-0.6320692300796509,2.008735179901123,4.1656494140625,9.521484375,-2.0294189453125
5.3099999,-9.555258750915527,-0.5410895943641663,2.1930887699127197,-1.2359619140625,12.8631591796875,-1.46484375
5.329999900000001,-9.593565940856934,-0.3711012601852417,2.248155355453491,-11.199951171875,17.2882080078125,0.79345703125
5.3499999,-9.66539192199707,-0.20111294090747833,2.1356279850006104,-21.4080810546875,21.6217041015625,0.42724609375
5.369999900000001,-9.758766174316406,-0.1149216815829277,1.8938134908676147,-24.5361328125,21.7437744140625,-2.3651123046875
5.3899999,-9.84256362915039,-0.12210428714752197,1.556231141090393,-23.0712890625,19.4549560546875,-1.861572265625
5.409999900000001,-9.950302124023438,-0.2082955539226532,1.1180921792984009,-23.0255126953125,17.08984375,0.91552734375
5.4299999,-10.08437728881836,-0.44771572947502136,0.5937620401382446,-19.3328857421875,10.25390625,1.617431640625
5.449999900000001,-10.211270332336426,-0.7110779285430908,0.1173158809542656,-10.5438232421875,-0.946044921875,3.8299560546875
5.4699999,-10.271124839782715,-1.0031704902648926,-0.30885201692581177,-3.4637451171875,-12.02392578125,9.5672607421875
5.489999900000001,-10.287884712219238,-1.2234370708465576,-0.5937620401382446,2.1514892578125,-19.744873046875,12.786865234375
5.5099999,-10.256759643554688,-1.2473790645599365,-0.6584054827690125,17.059326171875,-28.7322998046875,12.2833251953125
5.529999900000001,-10.192116737365723,-1.1779472827911377,-0.43095630407333374,35.9039306640625,-38.57421875,12.3138427734375
5.5499999,-10.093954086303711,-0.8259995579719543,0.08619125932455063,41.8853759765625,-41.3055419921875,13.3514404296875
5.569999900000001,-9.959878921508789,-0.4118026793003082,0.8020575642585754,35.2020263671875,-36.7431640625,10.5133056640625
5.5899999000000005,-9.797073364257812,0.090979665517807,1.7381904125213623,21.8048095703125,-28.7933349609375,5.37109375
5.609999900000001,-9.564835548400879,0.6057330369949341,2.6791117191314697,0.3204345703125,-15.838623046875,4.6539306640625
5.6299999000000005,-9.409213066101074,1.0319008827209473,3.428496837615967,-26.4892578125,0.06103515625,3.2501220703125
5.6499999,-9.275136947631836,1.1875240802764893,3.8091750144958496,-42.083740234375,13.214111328125,-3.631591796875
5.6699999000000005,-9.287108421325684,1.05105459690094,3.73016619682312,-37.17041015625,19.500732421875,-6.9122314453125
5.6899999,-9.421183586120605,0.7015010714530945,3.2824504375457764,-24.871826171875,19.5770263671875,-3.7078857421875
5.709999900000001,-9.59835433959961,0.15322890877723694,2.5306711196899414,-14.1448974609375,16.1285400390625,-3.021240234375
5.7299999,-9.832986831665039,-0.24420857429504395,1.656787633895874,0.396728515625,11.505126953125,-7.4310302734375
5.749999900000001,-10.0580415725708,-0.7541735172271729,0.8786720037460327,18.3868408203125,0.42724609375,-6.7138671875
5.7699999,-10.093954086303711,-0.7541735172271729,0.31842881441116333,25.08544921875,-9.09423828125,-4.9896240234375
5.789999900000001,-10.211270332336426,-0.828393816947937,0.19153612852096558,19.0582275390625,-9.94873046875,-2.86865234375
5.8099999,-10.137049674987793,-0.569819986820221,0.4165911078453064,11.8255615234375,-10.5133056640625,-1.312255859375
5.829999900000001,-10.002974510192871,-0.2753331959247589,0.9169792532920837,8.5906982421875,-12.8326416015625,-4.7607421875
5.8499999,-9.895236015319824,-0.040701430290937424,1.5538369417190552,6.3323974609375,-9.0789794921875,-6.1798095703125
5.869999900000001,-9.684545516967773,0.1604115068912506,2.1811177730560303,-5.0048828125,-0.1068115234375,-6.9427490234375
5.8899999,-9.548076629638672,0.2561795711517334,2.6001031398773193,-19.0582275390625,11.65771484375,-8.5601806640625
5.909999900000001,-9.57201862335205,0.1388636976480484,2.7533318996429443,-21.7132568359375,13.1683349609375,-4.058837890625
5.9299999,-9.586383819580078,-0.1843535304069519,2.477998733520508,-14.2669677734375,6.7901611328125,-0.762939453125
5.949999900000001,-9.801861763000488,-0.5793967843055725,1.9081788063049316,-1.007080078125,2.5787353515625,-0.213623046875
5.9699999,-9.95748519897461,-1.0247182846069336,1.1659762859344482,14.9383544921875,-7.049560546875,0.4425048828125
5.989999900000001,-10.098742485046387,-1.2449848651885986,0.6775590777397156,27.2064208984375,-15.2587890625,3.47900390625
6.0099999,-10.120290756225586,-1.1755530834197998,0.5099649429321289,28.7322998046875,-19.500732421875,10.6353759765625
6.029999900000001,-9.998186111450195,-0.7445967197418213,0.768538773059845,14.373779296875,-19.3634033203125,9.3841552734375
6.0499999,-9.9000244140625,-0.2585737705230713,1.4053963422775269,-4.364013671875,-10.009765625,2.0294189453125
6.069999900000001,-9.679757118225098,0.21547815203666687,2.073378562927246,-14.4500732421875,-4.7454833984375,1.3427734375
6.0899999000000005,-9.557653427124023,0.5315127968788147,2.6575639247894287,-20.69091796875,2.6702880859375,-0.1983642578125
6.109999900000001,-9.57201862335205,0.49559974670410156,2.868253707885742,-20.8587646484375,9.9029541015625,0.640869140625
6.1299999000000005,-9.569623947143555,0.2298433631658554,2.846705913543701,-14.46533203125,6.9427490234375,2.3956298828125
6.149999900000001,-9.634267807006836,-0.011971008032560349,2.5522189140319824,-8.6517333984375,6.53076171875,0.2593994140625
6.1699999000000005,-9.758766174316406,-0.3208230137825012,2.1356279850006104,-2.105712890625,5.18798828125,1.312255859375
6.1899999,-9.821015357971191,-0.5650315880775452,1.6711528301239014,2.01416015625,3.8604736328125,-1.1138916015625
6.209999900000001,-9.928754806518555,-0.6033388376235962,1.3503297567367554,8.5906982421875,0.732421875,1.03759765625
6.2299999,-9.93593692779541,-0.5650315880775452,1.2210428714752197,12.0086669921875,-6.622314453125,5.5694580078125
6.249999900000001,-9.892841339111328,-0.3495534360408783,1.3431471586227417,6.9732666015625,-4.9591064453125,1.3885498046875
6.2699999,-9.78989028930664,-0.19393034279346466,1.6280571222305298,1.190185546875,2.1820068359375,-1.03759765625
6.289999900000001,-9.710882186889648,0.05746084079146385,1.968033790588379,-7.1258544921875,6.103515625,-1.8768310546875
6.3099999,-9.684545516967773,0.05985504388809204,2.255337953567505,-15.13671875,9.27734375,-1.0833740234375
6.329999900000001,-9.720458984375,0.07661445438861847,2.360682964324951,-20.56884765625,11.9171142578125,2.8839111328125
6.3499999,-9.710882186889648,-0.009576806798577309,2.233790159225464,-19.256591796875,12.0086669921875,0.8087158203125
6.369999900000001,-9.840168952941895,-0.20111294090747833,1.9800047874450684,-7.904052734375,9.1400146484375,-1.6021728515625
6.3899999,-9.825803756713867,-0.33279404044151306,1.5921441316604614,1.1138916015625,3.753662109375,-0.7476806640625
6.409999900000001,-9.909601211547852,-0.5195417404174805,1.2545616626739502,3.204345703125,1.068115234375,0.7781982421875
6.4299999,-10.007762908935547,-0.6248866319656372,1.1180921792984009,5.7373046875,-1.0833740234375,3.692626953125
6.449999900000001,-9.923966407775879,-0.524330198764801,1.1109095811843872,7.7362060546875,-6.378173828125,5.6610107421875
6.4699999,-10.010157585144043,-0.43335050344467163,1.3311761617660522,5.2947998046875,-4.058837890625,2.6397705078125
6.489999900000001,-9.895236015319824,-0.1843535304069519,1.5753847360610962,-0.30517578125,-0.244140625,2.0751953125
6.5099999,-9.821015357971191,-0.004788403399288654,1.8076223134994507,-7.6141357421875,3.0975341796875,1.46484375
6.529999900000001,-9.828198432922363,0.0454898327589035,1.965639591217041,-6.8359375,3.173828125,0.2288818359375
6.5499999,-9.703699111938477,0.0694318488240242,1.9297266006469727,-1.2969970703125,-0.7171630859375,2.7923583984375
6.569999900000001,-9.727641105651855,-0.016759412363171577,1.889025092124939,0.30517578125,1.251220703125,-1.556396484375
6.5899999000000005,-9.730035781860352,-0.11013327538967133,1.8315643072128296,-0.274658203125,3.753662109375,-1.251220703125
6.609999900000001,-9.701305389404297,-0.1364694982767105,1.8291701078414917,-5.2947998046875,5.126953125,1.2664794921875
6.6299999000000005,-9.751583099365234,-0.1412578970193863,1.8602946996688843,-8.6669921875,6.40869140625,-0.1068115234375
6.649999900000001,-9.86650562286377,-0.19153612852096558,1.867477297782898,-7.568359375,6.8359375,0.885009765625
6.6699999000000005,-9.837775230407715,-0.0694318488240242,1.7621324062347412,-5.31005859375,6.256103515625,-1.52587890625
6.6899999,-9.986215591430664,-0.20111294090747833,1.6280571222305298,0.3204345703125,5.126953125,-1.190185546875
6.709999900000001,-9.947908401489258,-0.17717093229293823,1.3958195447921753,4.3182373046875,1.1444091796875,0.701904296875
6.7299999,-9.945513725280762,-0.272938996553421,1.2641384601593018,4.8980712890625,-1.0986328125,-1.5411376953125
6.749999900000001,-9.959878921508789,-0.3495534360408783,1.1444283723831177,7.7362060546875,-2.5177001953125,-0.3204345703125
6.7699999,-9.914389610290527,-0.4165911078453064,1.1851298809051514,12.2528076171875,-7.3699951171875,1.4801025390625
6.789999900000001,-9.864110946655273,-0.31364041566848755,1.3670891523361206,13.2904052734375,-5.401611328125,0.54931640625
6.8099999,-9.806650161743164,-0.2513911724090576,1.6041151285171509,5.126953125,0.3509521484375,1.678466796875
6.829999900000001,-9.742006301879883,0.009576806798577309,1.9129672050476074,-8.514404296875,5.2337646484375,-0.0457763671875
6.8499999,-9.694122314453125,0.18914192914962769,2.056619167327881,-16.29638671875,6.134033203125,-2.0294189453125
6.869999900000001,-9.775525093078613,0.17238251864910126,2.0901381969451904,-17.0135498046875,5.06591796875,0.42724609375
6.8899999,-9.801861763000488,0.043095629662275314,1.9033904075622559,-13.1378173828125,3.7078857421875,-1.2054443359375
6.909999900000001,-9.897629737854004,-0.20350714027881622,1.6112977266311646,-3.082275390625,2.2125244140625,-1.89208984375
6.9299999,-9.911994934082031,-0.4596867263317108,1.3311761617660522,9.3536376953125,-3.0670166015625,2.0599365234375
6.949999900000001,-9.919178009033203,-0.4836287498474121,1.1180921792984009,16.0675048828125,-6.65283203125,1.5869140625
6.9699999,-9.919178009033203,-0.45010992884635925,1.0893617868423462,17.1966552734375,-8.85009765625,-2.13623046875
6.989999900000001,-9.916783332824707,-0.2753331959247589,1.1444283723831177,14.984130859375,-9.4451904296875,-1.617431640625
7.0099999,-9.871294021606445,-0.1149216815829277,1.4389152526855469,11.3983154296875,-10.2691650390625,-3.84521484375
7.029999900000001,-9.806650161743164,0.17717093229293823,1.742978811264038,4.4708251953125,-4.6844482421875,-6.6375732421875
7.0499999,-9.732429504394531,0.2801215946674347,2.142810583114624,-6.0882568359375,2.9754638671875,-5.7220458984375
7.069999900000001,-9.677363395690918,0.31842881441116333,2.4229321479797363,-15.6707763671875,9.27734375,-5.43212890625
7.0899999000000005,-9.617507934570312,0.17238251864910126,2.5067291259765625,-17.9901123046875,9.918212890625,-5.0201416015625
7.109999900000001,-9.682151794433594,-0.10773907601833344,2.3535003662109375,-13.5040283203125,10.5743408203125,-1.6937255859375
7.1299999000000005,-9.706093788146973,-0.4668693244457245,1.9943699836730957,-5.340576171875,7.3394775390625,0.152587890625
7.149999900000001,-9.77791976928711,-0.6775590777397156,1.534683346748352,3.4027099609375,4.486083984375,-1.617431640625
7.1699999000000005,-9.911994934082031,-0.768538773059845,1.2042834758758545,10.284423828125,-0.3814697265625,-0.4119873046875
7.1899999,-9.95748519897461,-0.6991068720817566,0.9720458984375,10.19287109375,-4.638671875,1.9989013671875
7.209999900000001,-9.988609313964844,-0.5363011956214905,1.0007762908935547,5.6304931640625,-5.31005859375,0.4119873046875
7.2299999,-9.971850395202637,-0.33758243918418884,1.1659762859344482,2.7618408203125,-4.6539306640625,-0.30517578125
7.249999900000001,-9.890447616577148,-0.17956513166427612,1.4317326545715332,1.708984375,-5.126953125,1.46484375
7.2699999,-9.832986831665039,-0.06703764945268631,1.7357962131500244,-0.885009765625,-3.692626953125,-0.732421875
7.289999900000001,-9.77791976928711,-0.033518824726343155,1.922544002532959,-4.150390625,0.762939453125,-1.5411376953125
7.3099999,-9.773131370544434,-0.06464344263076782,2.030282974243164,-4.7607421875,2.8228759765625,1.0833740234375
7.329999900000001,-9.768342971801758,-0.11252748221158981,1.9991583824157715,-2.8076171875,1.1138916015625,0.3509521484375
7.3499999,-9.799467086791992,-0.17956513166427612,1.8770540952682495,2.044677734375,-1.7547607421875,-2.3345947265625
7.369999900000001,-9.861717224121094,-0.23942017555236816,1.7621324062347412,6.7291259765625,-1.3275146484375,-0.5950927734375
7.3899999,-9.828198432922363,-0.31124621629714966,1.6543933153152466,9.1705322265625,-2.74658203125,-0.0457763671875
7.409999900000001,-9.830592155456543,-0.2992752194404602,1.659181833267212,7.9193115234375,-1.007080078125,-2.532958984375
7.4299999,-9.782708168029785,-0.2777273952960968,1.6927006244659424,2.99072265625,1.9989013671875,-1.0986328125
7.449999900000001,-9.780313491821289,-0.2059013396501541,1.7884687185287476,-4.2266845703125,3.2806396484375,1.6632080078125
7.4699999,-9.746794700622559,-0.10773907601833344,1.8626888990402222,-8.6517333984375,3.84521484375,-0.213623046875
7.489999900000001,-9.799467086791992,-0.11013327538967133,1.8483237028121948,-6.7596435546875,3.11279296875,-1.2054443359375
7.5099999,-9.832986831665039,-0.1628057211637497,1.7812861204147339,-1.8310546875,1.068115234375,0.1678466796875
7.529999900000001,-9.86650562286377,-0.21547815203666687,1.680729627609253,1.312255859375,-0.5035400390625,-2.0599365234375
7.5499999,-9.892841339111328,-0.2992752194404602,1.5873557329177856,2.3956298828125,0.18310546875,-2.7618408203125
7.569999900000001,-9.907206535339355,-0.3016694188117981,1.5873557329177856,1.434326171875,0.762939453125,0.579833984375
7.5899999000000005,-9.8784761428833,-0.3256114423274994,1.6041151285171509,-1.03759765625,0.5950927734375,2.3193359375
7.609999900000001,-9.854534149169922,-0.2992752194404602,1.6855180263519287,-2.410888671875,0.7476806640625,0.762939453125
7.6299999000000005,-9.873687744140625,-0.272938996553421,1.7549498081207275,-1.953125,2.1209716796875,1.708984375
7.649999900000001,-9.813833236694336,-0.31124621629714966,1.7764976024627686,-0.701904296875,0.518798828125,3.265380859375
7.6699999000000005,-9.797073364257812,-0.27054479718208313,1.843535304069519,-1.9683837890625,1.3275146484375,1.5106201171875
7.6899999,-9.739612579345703,-0.2944868206977844,1.8626888990402222,-5.645751953125,5.9814453125,1.312255859375
7.709999900000001,-9.775525093078613,-0.2298433631658554,1.8962076902389526,-7.75146484375,9.21630859375,4.6234130859375
7.7299999,-9.773131370544434,-0.19393034279346466,1.8818424940109253,-6.500244140625,7.2021484375,5.9814453125
7.749999900000001,-9.837775230407715,-0.16998831927776337,1.7980455160140991,-4.150390625,5.2337646484375,4.0740966796875
7.7699999,-9.828198432922363,-0.13168109953403473,1.6735470294952393,-1.953125,6.3323974609375,1.8310546875
7.789999900000001,-9.86650562286377,-0.12928688526153564,1.556231141090393,0.06103515625,5.2642822265625,2.0294189453125
7.8099999,-9.897629737854004,-0.11013327538967133,1.4748282432556152,0.7171630859375,2.5787353515625,0.48828125
7.829999900000001,-9.979032516479492,-0.05267243832349777,1.460463047027588,0.7171630859375,2.6702880859375,-2.38037109375
7.8499999,-10.103530883789062,-0.014365210197865963,1.455674648284912,0.762939453125,3.570556640625,-2.4566650390625
7.869999900000001,-10.218452453613281,0.043095629662275314,1.5275006294250488,2.5634765625,3.7994384765625,-3.1585693359375
7.8899999,-10.409989356994629,0.05506663769483566,1.5825673341751099,3.90625,-0.5950927734375,-6.04248046875
7.909999900000001,-10.623072624206543,0.023942016065120697,1.6831238269805908,3.9825439453125,-7.3699951171875,-9.246826171875
7.9299999,-10.855310440063477,-0.07661445438861847,1.7525556087493896,5.0506591796875,-7.659912109375,-13.1378173828125
7.949999900000001,-10.96304988861084,-0.21787235140800476,1.7932571172714233,6.9427490234375,-1.861572265625,-18.218994140625
7.9699999,-10.943896293640137,-0.33997663855552673,1.764526605606079,8.880615234375,4.3182373046875,-23.345947265625
7.989999900000001,-10.778696060180664,-0.44771572947502136,1.6879122257232666,10.6658935546875,2.0904541015625,-22.430419921875
8.0099999,-10.436325073242188,-0.4668693244457245,1.577778935432434,11.0931396484375,-10.68115234375,-14.129638671875
8.0299999,-10.04846477508545,-0.4644751250743866,1.522712230682373,9.674072265625,-16.78466796875,-4.0435791015625
8.049999900000001,-9.619902610778809,-0.43095630407333374,1.4987702369689941,7.5531005859375,-10.4522705078125,1.9378662109375
8.069999900000001,-9.26795482635498,-0.4118026793003082,1.53707754611969,3.7841796875,0.640869140625,1.0223388671875
8.0899999,-9.078812599182129,-0.44532153010368347,1.5825673341751099,-1.2054443359375,8.9111328125,-5.2032470703125
8.1099999,-8.98543930053711,-0.5147533416748047,1.6065093278884888,-5.6304931640625,10.3912353515625,-11.9476318359375
8.129999900000001,-8.973467826843262,-0.6536170840263367,1.5825673341751099,-8.9263916015625,7.8125,-12.14599609375
8.149999900000001,-8.951920509338379,-0.7948749661445618,1.522712230682373,-10.650634765625,7.1563720703125,-5.9356689453125
8.1699999,-8.944737434387207,-0.9313444495201111,1.4269442558288574,-10.55908203125,10.2081298828125,-1.2054443359375
8.1899999,-8.975862503051758,-1.0199298858642578,1.3239935636520386,-8.4686279296875,10.6353759765625,-0.274658203125
8.2099999,-9.08838939666748,-1.0654197931289673,1.216254472732544,-5.6610107421875,7.720947265625,-1.3885498046875
8.229999900000001,-9.246406555175781,-1.0606313943862915,1.1468225717544556,-3.0975341796875,5.6610107421875,-3.143310546875
8.2499999,-9.428366661071777,-1.036689281463623,1.115697979927063,-0.9918212890625,6.134033203125,-4.33349609375
8.2699999,-9.749189376831055,-1.0079588890075684,1.0654197931289673,7.843017578125,5.340576171875,-5.79833984375
8.2899999,-9.86889934539795,-0.950498104095459,1.1061211824417114,19.317626953125,-1.3427734375,-3.631591796875
8.309999900000001,-9.892841339111328,-0.9528923034667969,1.161187767982483,19.0277099609375,-0.9765625,-2.3345947265625
8.3299999,-9.8784761428833,-0.8595184087753296,1.335964560508728,11.962890625,3.204345703125,-3.021240234375
8.3499999,-9.849745750427246,-0.730231523513794,1.5466543436050415,4.1351318359375,8.453369140625,-3.509521484375
8.3699999,-9.825803756713867,-0.6057330369949341,1.7405846118927002,-3.0670166015625,8.23974609375,-3.35693359375
8.389999900000001,-9.799467086791992,-0.5482721924781799,1.8507179021835327,-8.7738037109375,6.89697265625,-3.9215087890625
8.4099999,-9.773131370544434,-0.5674257874488831,1.8626888990402222,-11.4593505859375,7.7362060546875,-4.1656494140625
8.4299999,-9.739612579345703,-0.6631938815116882,1.7884687185287476,-11.688232421875,9.2926025390625,-3.1585693359375
8.4499999,-9.718064308166504,-0.8020575642585754,1.6543933153152466,-10.9710693359375,9.521484375,-2.3345947265625
8.469999900000001,-9.715670585632324,-0.9552865028381348,1.501164436340332,-9.3994140625,8.72802734375,-3.143310546875
8.4899999,-9.744400978088379,-1.1013327836990356,1.3742717504501343,-7.01904296875,5.6304931640625,-2.7923583984375
8.5099999,-9.782708168029785,-1.213860273361206,1.3120225667953491,-5.7220458984375,1.89208984375,-0.396728515625
8.5299999,-9.821015357971191,-1.2880805730819702,1.3192051649093628,-6.4849853515625,1.52587890625,0.79345703125
8.549999900000001,-9.876082420349121,-1.3000515699386597,1.3862427473068237,-8.3160400390625,2.5177001953125,-1.251220703125
8.569999900000001,-9.921571731567383,-1.2545616626739502,1.4676456451416016,-9.5977783203125,2.410888671875,-5.6304931640625
8.5899999,-9.931148529052734,-1.173158884048462,1.5322890281677246,-9.918212890625,0.823974609375,-7.0953369140625
8.6099999,-9.890447616577148,-1.0749965906143188,1.5682021379470825,-9.9639892578125,-1.617431640625,-3.7994384765625
8.629999900000001,-9.794678688049316,-0.9768342971801758,1.5705963373184204,-10.8642578125,-1.2664794921875,-2.2735595703125
8.649999900000001,-9.674968719482422,-0.8834604024887085,1.5514427423477173,-12.26806640625,1.1138916015625,-4.6539306640625
8.6699999,-9.555258750915527,-0.8020575642585754,1.5155296325683594,-13.0615234375,1.52587890625,-5.401611328125
8.6899999,-9.473855972290039,-0.7158663272857666,1.4700398445129395,-12.237548828125,-0.3509521484375,-1.861572265625
8.709999900000001,-9.423578262329102,-0.6200982332229614,1.4221558570861816,-10.9100341796875,-1.2969970703125,0.9613037109375
8.729999900000001,-9.385271072387695,-0.5195417404174805,1.37906014919281,-9.9334716796875,-2.99072265625,2.655029296875
8.7499999,-9.387664794921875,-0.40701428055763245,1.3455413579940796,-8.8043212890625,-3.875732421875,7.171630859375
8.7699999,-9.442731857299805,-0.29209262132644653,1.3192051649093628,-7.8277587890625,-0.2899169921875,11.1236572265625
8.7899999,-9.528923034667969,-0.20350714027881622,1.2880805730819702,-8.1024169921875,2.2735595703125,9.9945068359375
8.809999900000001,-9.660603523254395,-0.15083470940589905,1.2497732639312744,-9.3231201171875,1.40380859375,9.0484619140625
8.8299999,-9.825803756713867,-0.1388636976480484,1.1755530834197998,-9.796142578125,2.838134765625,11.0626220703125
8.8499999,-9.964667320251465,-0.17956513166427612,1.072602391242981,-7.415771484375,4.0283203125,12.3138427734375
8.8699999,-10.053253173828125,-0.2585737705230713,0.9528923034667969,-3.90625,1.2969970703125,12.6190185546875
8.889999900000001,-10.113107681274414,-0.33518823981285095,0.8523358106613159,-1.0528564453125,0.1220703125,13.671875
8.9099999,-10.596736907958984,-0.5099649429321289,0.8475474119186401,0.9613037109375,2.960205078125,10.55908203125
8.9299999,-10.630255699157715,-0.569819986820221,0.8307880163192749,1.312255859375,-5.06591796875,-6.9732666015625
8.9499999,-11.063606262207031,-0.7422025203704834,0.9217676520347595,3.1890869140625,-4.791259765625,3.875732421875
8.969999900000001,-10.886435508728027,-0.7206547260284424,0.9528923034667969,7.0953369140625,-3.90625,8.3465576171875
8.9899999,-10.649409294128418,-0.6967126727104187,1.0438719987869263,7.354736328125,-2.960205078125,6.134033203125
9.0099999,-10.307038307189941,-0.6033388376235962,1.1204863786697388,6.7596435546875,-5.9814453125,2.227783203125
9.0299999,-9.998186111450195,-0.5051765441894531,1.213860273361206,6.2255859375,-8.209228515625,0.91552734375
9.049999900000001,-9.818621635437012,-0.45489832758903503,1.3192051649093628,7.965087890625,-6.683349609375,1.5106201171875
9.069999900000001,-9.701305389404297,-0.4213795065879822,1.4245500564575195,10.68115234375,-4.4708251953125,0.79345703125
9.0899999,-9.667786598205566,-0.36152446269989014,1.5538369417190552,10.55908203125,-2.6397705078125,-1.556396484375
9.1099999,-9.677363395690918,-0.2968810200691223,1.6831238269805908,6.683349609375,0.1373291015625,-2.655029296875
9.129999900000001,-9.701305389404297,-0.24660277366638184,1.8052281141281128,-0.091552734375,3.47900390625,-2.3345947265625
9.149999900000001,-9.725247383117676,-0.22266076505184174,1.9177556037902832,-7.8125,7.1563720703125,-2.50244140625
9.1699999,-9.742006301879883,-0.24420857429504395,1.987187385559082,-14.7705078125,12.1002197265625,-2.197265625
9.1899999,-9.758766174316406,-0.31603461503982544,1.9129672050476074,-18.1121826171875,15.899658203125,-1.8768310546875
9.209999900000001,-9.813833236694336,-0.43335050344467163,1.723825216293335,-15.625,14.495849609375,-2.6092529296875
9.229999900000001,-9.854534149169922,-0.5770025849342346,1.4652514457702637,-13.5650634765625,11.4593505859375,-0.457763671875
9.2499999,-9.9000244140625,-0.7158663272857666,1.1540051698684692,-15.7318115234375,11.04736328125,2.7618408203125
9.2699999,-9.959878921508789,-0.8092401623725891,0.8954314589500427,-15.716552734375,9.063720703125,1.861572265625
9.2899999,-10.000580787658691,-0.849941611289978,0.6967126727104187,-12.1002197265625,4.57763671875,2.349853515625
9.309999900000001,-10.041281700134277,-0.8140285611152649,0.5123591423034668,-7.1868896484375,0.091552734375,3.4332275390625
9.3299999,-10.103530883789062,-0.7709329724311829,0.35673606395721436,-0.48828125,-4.7760009765625,1.2359619140625
9.3499999,-10.141838073730469,-0.7661445140838623,0.20111294090747833,7.6141357421875,-11.5203857421875,0.579833984375
9.3699999,-10.144232749938965,-0.7254431247711182,0.2346317619085312,14.4805908203125,-19.1192626953125,2.2125244140625
9.389999900000001,-10.062829971313477,-0.6320692300796509,0.5027823448181152,10.894775390625,-20.721435546875,3.570556640625
9.4099999,-9.945513725280762,-0.47884035110473633,0.9457096457481384,-4.2266845703125,-12.8173828125,2.716064453125
9.4299999,-9.818621635437012,-0.4213795065879822,1.5275006294250488,-15.380859375,-5.2337646484375,1.3580322265625
9.4499999,-9.68933391571045,-0.28969839215278625,2.0901381969451904,-20.904541015625,-1.0986328125,2.593994140625
9.469999900000001,-9.646238327026367,-0.33039984107017517,2.4229321479797363,-24.566650390625,6.2255859375,3.570556640625
9.4899999,-9.619902610778809,-0.37828385829925537,2.4875755310058594,-23.223876953125,13.5345458984375,1.46484375
9.5099999,-9.674968719482422,-0.4141969084739685,2.231395959854126,-13.3514404296875,13.519287109375,-1.15966796875
9.5299999,-9.75397777557373,-0.4620809257030487,1.764526605606079,-1.46484375,8.72802734375,0.3509521484375
9.549999900000001,-9.895236015319824,-0.5147533416748047,1.1563993692398071,4.69970703125,4.7149658203125,1.190185546875
9.569999900000001,-10.029311180114746,-0.5770025849342346,0.608127236366272,9.2315673828125,-2.9449462890625,-2.1820068359375
9.5899999,-10.120290756225586,-0.6799532771110535,0.26096799969673157,16.754150390625,-10.7574462890625,-3.7994384765625
9.6099999,-10.127472877502441,-0.7661445140838623,0.17238251864910126,21.9879150390625,-15.533447265625,-0.48828125
9.629999900000001,-10.077195167541504,-0.7565677165985107,0.35913026332855225,18.9666748046875,-15.380859375,0.213623046875
9.649999900000001,-9.995792388916016,-0.6775590777397156,0.7110779285430908,13.427734375,-12.0697021484375,-3.72314453125
9.6699999,-9.897629737854004,-0.47405192255973816,1.2258312702178955,11.9171142578125,-9.490966796875,-4.9591064453125
9.6899999,-9.794678688049316,-0.1843535304069519,1.7501614093780518,10.223388671875,-6.8206787109375,-3.8299560546875
9.709999900000001,-9.703699111938477,-0.014365210197865963,2.2888567447662354,-1.77001953125,2.3345947265625,-4.913330078125
9.729999900000001,-9.600749015808105,0.035913024097681046,2.628833532333374,-17.822265625,11.566162109375,-6.3323974609375
9.7499999,-9.586383819580078,-0.14844051003456116,2.6575639247894287,-24.3988037109375,17.27294921875,-4.0740966796875
9.7699999,-9.670180320739746,-0.49799394607543945,2.2888567447662354,-16.571044921875,12.8936767578125,0.2288818359375
9.7899999,-9.794678688049316,-0.9457096457481384,1.5849615335464478,-1.7242431640625,5.67626953125,1.3275146484375
9.809999900000001,-10.010157585144043,-1.3048399686813354,0.7876923680305481,15.3045654296875,-2.410888671875,2.1514892578125
9.8299999,-10.137049674987793,-1.4652514457702637,0.16759411990642548,30.2276611328125,-12.5579833984375,7.7362060546875
9.8499999,-10.204087257385254,-1.3958195447921753,-0.12689268589019775,35.5072021484375,-22.5067138671875,11.1846923828125
9.8699999,-10.168174743652344,-1.070208191871643,-0.040701430290937424,28.0914306640625,-26.1077880859375,7.3394775390625
9.889999900000001,-10.043676376342773,-0.5961562395095825,0.42616790533065796,14.2364501953125,-22.9644775390625,2.1820068359375
9.9099999,-9.861717224121094,-0.07182604819536209,1.1755530834197998,-0.67138671875,-18.9666748046875,1.556396484375
9.9299999,-9.670180320739746,0.22266076505184174,1.9584569931030273,-15.350341796875,-10.6658935546875,-1.2054443359375
9.9499999,-9.57441234588623,0.33279404044151306,2.607285737991333,-22.5067138671875,0.0457763671875,-2.9754638671875
9.969999900000001,-9.524134635925293,0.15562310814857483,2.983175277709961,-18.1884765625,5.859375,1.495361328125
9.9899999,-9.514557838439941,-0.1412578970193863,3.0621838569641113,-11.53564453125,7.2479248046875,6.04248046875
10.0099999,-9.576807022094727,-0.43095630407333374,2.8874073028564453,-10.07080078125,9.796142578125,4.150390625
10.0299999,-9.648633003234863,-0.6033388376235962,2.5234885215759277,-9.4757080078125,15.9149169921875,1.251220703125
10.049999900000001,-9.749189376831055,-0.6847416758537292,2.0925323963165283,-3.4332275390625,13.092041015625,1.28173828125
10.069999900000001,-9.835380554199219,-0.5578489899635315,1.6184803247451782,1.2664794921875,7.354736328125,-2.5482177734375
10.0899999,-9.947908401489258,-0.3758896589279175,1.173158884048462,1.3885498046875,6.3934326171875,-5.9051513671875
10.1099999,-10.017339706420898,-0.2322375625371933,0.8355764150619507,2.044677734375,3.35693359375,-5.0048828125
10.129999900000001,-10.055646896362305,-0.22266076505184174,0.7254431247711182,5.2490234375,-4.7454833984375,-4.486083984375
10.149999900000001,-10.019734382629395,-0.33039984107017517,0.8164227604866028,7.537841796875,-8.0108642578125,-5.5389404296875
10.1699999,-9.988609313964844,-0.545877993106842,1.1228805780410767,7.904052734375,-4.150390625,-4.150390625
10.1899999,-9.84256362915039,-0.7086837291717529,1.5131354331970215,6.103515625,-0.0152587890625,-1.52587890625
10.209999900000001,-9.761159896850586,-0.7445967197418213,1.920149803161621,0.9765625,4.119873046875,-1.52587890625
10.229999900000001,-9.670180320739746,-0.727837324142456,2.121262788772583,-7.0343017578125,9.4451904296875,0.9613037109375
10.2499999,-9.684545516967773,-0.6344634294509888,2.169146776199341,-13.671875,11.77978515625,3.9520263671875
10.2699999,-9.727641105651855,-0.5817909836769104,1.9919757843017578,-13.763427734375,9.0179443359375,3.509521484375
10.2899999,-9.787496566772461,-0.5363011956214905,1.721431016921997,-9.4451904296875,5.340576171875,0.8392333984375
10.309999900000001,-9.897629737854004,-0.5099649429321289,1.434126853942871,-5.0811767578125,4.1656494140625,1.434326171875
10.3299999,-9.931148529052734,-0.4620809257030487,1.2018892765045166,-2.9144287109375,3.84521484375,1.861572265625
10.3499999,-9.93593692779541,-0.47644615173339844,1.01753568649292,-0.30517578125,2.0751953125,-1.708984375
10.3699999,-9.964667320251465,-0.4668693244457245,0.9313444495201111,3.60107421875,-2.349853515625,-3.143310546875
10.389999900000001,-9.938331604003906,-0.4405331015586853,0.8930372595787048,6.866455078125,-4.547119140625,-1.9989013671875
10.4099999,-9.921571731567383,-0.47165772318840027,0.9768342971801758,9.7503662109375,-7.0037841796875,-2.4566650390625
10.4299999,-9.928754806518555,-0.4620809257030487,1.1683704853057861,11.8255615234375,-7.1868896484375,-5.5694580078125
10.4499999,-9.895236015319824,-0.4836287498474121,1.460463047027588,12.4359130859375,-5.7373046875,-4.3182373046875
10.469999900000001,-9.837775230407715,-0.5386953949928284,1.7597382068634033,6.6070556640625,-0.79345703125,-1.5716552734375
10.4899999,-9.770736694335938,-0.5578489899635315,2.0398597717285156,-3.3721923828125,6.866455078125,-1.708984375
10.5099999,-9.6989107131958,-0.5291185975074768,2.190694570541382,-11.6424560546875,10.31494140625,-0.5645751953125
10.5299999,-9.694122314453125,-0.5363011956214905,2.140416383743286,-15.19775390625,11.5814208984375,2.50244140625
10.549999900000001,-9.725247383117676,-0.5339069962501526,1.8770540952682495,-12.4053955078125,7.8887939453125,4.425048828125
10.569999900000001,-9.818621635437012,-0.5770025849342346,1.479616641998291,-5.06591796875,3.997802734375,0.2899169921875
10.5899999,-9.919178009033203,-0.646434485912323,1.0773907899856567,5.7373046875,-1.03759765625,-1.6021728515625
10.6099999,-9.981427192687988,-0.6536170840263367,0.8140285611152649,12.3443603515625,-5.6610107421875,-0.4425048828125
10.629999900000001,-10.014945983886719,-0.6272808313369751,0.7541735172271729,11.6119384765625,-6.89697265625,-1.0986328125
10.649999900000001,-9.983820915222168,-0.5841852426528931,0.8643068075180054,8.636474609375,-6.4697265625,-2.6397705078125
10.6699999,-9.959878921508789,-0.5003881454467773,1.115697979927063,7.568359375,-5.55419921875,-1.678466796875
10.6899999,-9.880870819091797,-0.47644615173339844,1.400607943534851,7.0343017578125,-6.195068359375,1.40380859375
10.709999900000001,-9.799467086791992,-0.43335050344467163,1.678335428237915,2.01416015625,-3.0364990234375,-1.312255859375
10.729999900000001,-9.780313491821289,-0.4572925269603729,1.8818424940109253,-1.5106201171875,1.6326904296875,-3.0364990234375
10.7499999,-9.744400978088379,-0.45250412821769714,2.0207061767578125,-3.4942626953125,3.9825439453125,-0.946044921875
10.7699999,-9.694122314453125,-0.4644751250743866,2.027888774871826,-7.4920654296875,5.8441162109375,-0.1983642578125
10.7899999,-9.749189376831055,-0.4908113479614258,1.98958158493042,-10.2691650390625,7.5225830078125,-1.8157958984375
10.809999900000001,-9.761159896850586,-0.5027823448181152,1.8100165128707886,-8.72802734375,8.23974609375,-0.732421875
10.8299999,-9.825803756713867,-0.5554547905921936,1.5825673341751099,-4.0130615234375,4.57763671875,2.044677734375
10.8499999,-9.93354320526123,-0.5985504388809204,1.3215993642807007,0.54931640625,0.5950927734375,-1.03759765625
10.8699999,-10.002974510192871,-0.6344634294509888,1.05105459690094,6.9580078125,-2.50244140625,-3.0059814453125
10.889999900000001,-10.022128105163574,-0.6631938815116882,1.0103530883789062,10.009765625,-3.6163330078125,-0.5645751953125
10.9099999,-9.964667320251465,-0.6057330369949341,1.1085153818130493,5.828857421875,-2.593994140625,0.732421875
10.9299999,-9.8784761428833,-0.5530605912208557,1.3503297567367554,-1.8310546875,0.3204345703125,-1.007080078125
10.9499999,-9.821015357971191,-0.5051765441894531,1.6280571222305298,-6.500244140625,3.72314453125,-1.15966796875
10.969999900000001,-9.797073364257812,-0.4692635238170624,1.7405846118927002,-5.5694580078125,3.4332275390625,1.6326904296875
10.9899999,-9.797073364257812,-0.5051765441894531,1.7717092037200928,-4.2572021484375,1.2359619140625,0.1373291015625
11.0099999,-9.823410034179688,-0.5315127968788147,1.6352397203445435,-3.021240234375,2.5482177734375,-2.410888671875
11.0299999,-9.840168952941895,-0.5722141861915588,1.5322890281677246,-1.9073486328125,3.0670166015625,-0.3814697265625
11.049999900000001,-9.804255485534668,-0.6344634294509888,1.41257905960083,-0.18310546875,1.2664794921875,0.457763671875
11.069999900000001,-9.854534149169922,-0.6248866319656372,1.381454348564148,0.9002685546875,0.732421875,-1.2359619140625
11.0899999,-9.880870819091797,-0.6631938815116882,1.3287819623947144,3.0670166015625,0.0457763671875,-1.6937255859375
11.1099999,-9.914389610290527,-0.6057330369949341,1.292868971824646,6.28662109375,-1.1444091796875,0.1220703125
11.129999900000001,-9.93354320526123,-0.5602431893348694,1.2976573705673218,7.110595703125,-4.7760009765625,-0.6866455078125
11.149999900000001,-9.911994934082031,-0.4596867263317108,1.3287819623947144,4.913330078125,-3.0975341796875,-3.7841796875
11.1699999,-9.864110946655273,-0.4189853072166443,1.4772224426269531,-0.1220703125,0.0152587890625,-2.01416015625
11.1899999,-9.847352027893066,-0.4118026793003082,1.625662922859192,-5.3863525390625,2.6397705078125,-0.152587890625
11.209999900000001,-9.823410034179688,-0.4572925269603729,1.7836803197860718,-7.99560546875,3.6468505859375,-0.5950927734375
11.229999900000001,-9.806650161743164,-0.5961562395095825,1.7381904125213623,-7.0953369140625,3.0975341796875,-0.3814697265625
11.2499999,-9.861717224121094,-0.667982280254364,1.678335428237915,-2.7313232421875,3.5552978515625,1.4801025390625
11.2699999,-9.816226959228516,-0.7541735172271729,1.4484920501708984,1.434326171875,-1.0223388671875,2.3345947265625
11.2899999,-9.873687744140625,-0.7565677165985107,1.3503297567367554,3.509521484375,-2.0599365234375,-0.274658203125
11.309999900000001,-9.835380554199219,-0.706289529800415,1.2449848651885986,3.021240234375,-0.8087158203125,-0.244140625
11.3299999,-9.871294021606445,-0.6153098344802856,1.3287819623947144,0.2288818359375,0.3509521484375,1.922607421875
11.3499999,-9.856928825378418,-0.49799394607543945,1.403002142906189,-2.2430419921875,0.213623046875,-0.4425048828125
11.3699999,-9.84495735168457,-0.40701428055763245,1.53707754611969,-2.2735595703125,0.091552734375,-3.5400390625
11.389999900000001,-9.840168952941895,-0.31842881441116333,1.6112977266311646,-1.1444091796875,2.197265625,-3.3111572265625
11.4099999,-9.86650562286377,-0.3734954595565796,1.6519991159439087,-1.0833740234375,2.7008056640625,-2.1209716796875
11.4299999,-9.849745750427246,-0.4213795065879822,1.5945383310317993,0.701904296875,1.7547607421875,-4.974365234375
11.4499999,-9.90241813659668,-0.5578489899635315,1.4676456451416016,7.080078125,0.244140625,-6.988525390625
11.469999900000001,-9.916783332824707,-0.6248866319656372,1.3742717504501343,12.0849609375,-1.46484375,-4.791259765625
11.4899999,-9.923966407775879,-0.6631938815116882,1.3551181554794312,11.2762451171875,-1.7242431640625,-3.3111572265625
11.5099999,-9.93354320526123,-0.6727706789970398,1.4197616577148438,6.0882568359375,0.06103515625,-3.9215087890625
11.5299999,-9.911994934082031,-0.6847416758537292,1.534683346748352,3.41796875,-0.2899169921875,-3.2806396484375
11.549999900000001,-9.916783332824707,-0.6655880808830261,1.6424223184585571,2.593994140625,2.25830078125,-0.91552734375
11.569999900000001,-9.883264541625977,-0.7110779285430908,1.6639702320098877,2.7618408203125,1.7242431640625,0.9765625
11.5899999,-9.921571731567383,-0.8355764150619507,1.4293384552001953,9.765625,-0.1220703125,-1.40380859375
11.6099999,-9.9000244140625,-0.8355764150619507,1.2832920551300049,33.111572265625,-7.720947265625,-3.082275390625
11.629999900000001,-9.907206535339355,-0.8355764150619507,1.1180921792984009,39.00146484375,-11.8560791015625,-2.105712890625
11.649999900000001,-9.832986831665039,-0.6129156351089478,1.2282254695892334,18.8446044921875,-6.927490234375,-3.2958984375
11.6699999,-9.768342971801758,-0.304063618183136,1.5873557329177856,-6.134033203125,1.1444091796875,-5.126953125
11.6899999,-9.684545516967773,-0.08140286058187485,1.9608511924743652,-22.1099853515625,6.53076171875,-5.43212890625
11.709999900000001,-9.648633003234863,-0.05746084079146385,2.2170307636260986,-25.8331298828125,10.2996826171875,-5.1116943359375
11.729999900000001,-9.653421401977539,-0.23942017555236816,2.2361843585968018,-23.3154296875,11.5814208984375,-4.150390625
11.7499999,-9.68933391571045,-0.5386953949928284,2.0925323963165283,-15.4876708984375,11.6424560546875,-2.9449462890625
11.7699999,-9.75397777557373,-0.8331822156906128,1.8411411046981812,-4.9285888671875,10.772705078125,-3.0059814453125
11.7899999,-9.832986831665039,-1.0438719987869263,1.558625340461731,3.997802734375,9.1705322265625,-3.6163330078125
11.809999900000001,-9.890447616577148,-1.1228805780410767,1.290474772453308,9.9029541015625,5.889892578125,-3.72314453125
11.8299999,-9.945513725280762,-1.1013327836990356,1.1037269830703735,13.5040283203125,2.8228759765625,-3.570556640625
11.8499999,-9.955090522766113,-0.9552865028381348,1.036689281463623,13.9007568359375,4.3182373046875,-4.913330078125
11.8699999,-9.981427192687988,-0.7493851184844971,1.0678139925003052,10.55908203125,5.67626953125,-6.2713623046875
11.889999900000001,-9.995792388916016,-0.545877993106842,1.1659762859344482,6.3934326171875,5.31005859375,-9.6282958984375
11.9099999,-9.971850395202637,-0.38307225704193115,1.290474772453308,3.9825439453125,3.84521484375,-9.82666015625
11.9299999,-10.022128105163574,-0.4189853072166443,1.3623007535934448,2.899169921875,7.7667236328125,-5.615234375
11.9499999,-9.988609313964844,-0.5626373887062073,1.400607943534851,4.058837890625,9.0484619140625,-9.124755859375
11.969999900000001,-10.053253173828125,-0.8475474119186401,1.3982137441635132,6.3018798828125,4.1351318359375,-10.162353515625
11.9899999,-10.06043529510498,-1.091755986213684,1.403002142906189,8.0718994140625,5.18798828125,-6.9122314453125
12.0099999,-10.307038307189941,-1.2737152576446533,1.403002142906189,8.026123046875,7.9193115234375,-5.3253173828125
12.0299999,-10.54645824432373,-1.3670891523361206,1.4053963422775269,7.4920654296875,6.5155029296875,-8.0718994140625
12.049999900000001,-10.917559623718262,-1.3479355573654175,1.3886369466781616,9.2010498046875,-7.9498291015625,-5.584716796875
12.069999900000001,-11.228805541992188,-1.1635819673538208,1.259350061416626,15.0604248046875,-5.9356689453125,-13.519287109375
12.0899999,-11.051634788513184,-0.9911994934082031,1.158793568611145,15.106201171875,-2.62451171875,-17.303466796875
12.1099999,-10.678139686584473,-0.8164227604866028,1.0630255937576294,13.458251953125,-1.28173828125,-20.1873779296875
12.129999900000001,-10.223240852355957,-0.6560112833976746,0.9983820915222168,10.8642578125,-0.79345703125,-18.7225341796875
12.149999900000001,-9.780313491821289,-0.5482721924781799,0.9744400978088379,6.744384765625,1.28173828125,-13.397216796875
12.1699999,-9.418789863586426,-0.5171475410461426,0.9864110946655273,2.716064453125,3.9520263671875,-10.1318359375
12.1899999,-9.167398452758789,-0.5626373887062073,1.0079588890075684,0.732421875,8.7890625,-10.833740234375
12.209999900000001,-9.059659004211426,-0.6775590777397156,1.0271124839782715,1.2054443359375,14.9078369140625,-12.4053955078125
12.229999900000001,-9.095572471618652,-0.8379706144332886,1.0319008827209473,2.4261474609375,15.5181884765625,-10.8795166015625
12.2499999,-9.23682975769043,-1.0271124839782715,1.0199298858642578,2.99072265625,9.46044921875,-10.5743408203125
12.2699999,-9.442731857299805,-1.237802267074585,0.993593692779541,5.218505859375,6.134033203125,-15.9759521484375
12.289999900000002,-9.66299819946289,-1.4628572463989258,0.9624691009521484,9.94873046875,10.3302001953125,-23.345947265625
12.309999900000001,-9.885659217834473,-1.6855180263519287,0.950498104095459,14.2364501953125,16.143798828125,-30.57861328125
12.3299999,-10.08437728881836,-1.9057846069335938,0.950498104095459,16.41845703125,16.693115234375,-40.924072265625
12.3499999,-10.259154319763184,-2.142810583114624,0.9911994934082031,18.3868408203125,9.857177734375,-52.032470703125
12.3699999,-10.438719749450684,-2.3558945655822754,1.0534487962722778,20.111083984375,6.04248046875,-65.85693359375
12.389999900000001,-10.565611839294434,-2.5689783096313477,1.1420341730117798,21.17919921875,9.7503662109375,-89.5538330078125
12.4099999,-10.623072624206543,-2.806004285812378,1.2425906658172607,22.308349609375,7.50732421875,-111.6943359375
12.4299999,-10.57040023803711,-3.0119056701660156,1.3646949529647827,23.0865478515625,-6.2408447265625,-122.8179931640625
12.4499999,-10.307038307189941,-3.2800562381744385,1.4772224426269531,23.406982421875,-10.68115234375,-127.9144287109375
12.469999900000001,-9.940725326538086,-3.603273630142212,1.5945383310317993,24.3988037109375,-4.5166015625,-126.7242431640625
12.4899999,-9.612719535827637,-3.931279182434082,1.721431016921997,24.1241455078125,3.082275390625,-129.638671875
12.5099999,-9.440337181091309,-4.247313976287842,1.8531121015548706,21.759033203125,10.2996826171875,-149.5208740234375
12.5299999,-9.39245319366455,-4.565742492675781,1.9919757843017578,19.622802734375,7.26318359375,-169.7235107421875
12.549999900000001,-9.344569206237793,-4.838681697845459,2.1116859912872314,17.9290771484375,-9.5672607421875,-171.93603515625
12.569999900000001,-9.093177795410156,-5.188235282897949,2.2361843585968018,15.106201171875,-23.7274169921875,-162.53662109375
12.5899999,-8.5903959274292,-5.568912982940674,2.3367409706115723,9.857177734375,-20.6451416015625,-151.6571044921875
12.6099999,-7.922413349151611,-6.035782337188721,2.43011474609375,4.0435791015625,-5.18798828125,-142.1356201171875
12.629999900000001,-7.240066051483154,-6.519411087036133,2.4612393379211426,-1.5106201171875,9.765625,-126.5106201171875
12.649999900000001,-6.665457725524902,-6.97430944442749,2.3918075561523438,-4.9285888671875,9.33837890625,-107.147216796875
12.6699999,-6.189011573791504,-7.357381820678711,2.2433669567108154,-5.889892578125,-4.241943359375,-88.92822265625
12.6899999,-5.920860767364502,-7.613561630249023,2.006340980529785,-7.843017578125,-15.6402587890625,-70.6329345703125
12.709999900000001,-5.731719017028809,-7.714118003845215,1.7597382068634033,-11.4288330078125,-17.608642578125,-58.258056640625
12.729999900000001,-5.65031623840332,-7.740454196929932,1.53707754611969,-14.70947265625,-8.8653564453125,-57.342529296875
12.7499999,-5.686229228973389,-7.738059997558594,1.3527239561080933,-16.6473388671875,3.3721923828125,-57.43408203125
12.7699999,-5.815515995025635,-7.735665798187256,1.2018892765045166,-17.9290771484375,9.2010498046875,-56.396484375
12.789999900000002,-5.995080947875977,-7.771578788757324,1.0606313943862915,-17.2576904296875,4.5928955078125,-60.882568359375
12.809999900000001,-6.13633918762207,-7.841010570526123,0.9552865028381348,-14.95361328125,-7.6141357421875,-67.19970703125
12.8299999,-6.165069580078125,-7.9176249504089355,0.8786720037460327,-14.9383544921875,-16.41845703125,-69.1375732421875
12.8499999,-5.949591159820557,-8.010998725891113,0.8786720037460327,-18.0206298828125,-18.00537109375,-69.000244140625
12.8699999,-5.5545477867126465,-8.118738174438477,0.9289502501487732,-21.8505859375,-9.490966796875,-69.39697265625
12.889999900000001,-5.04218864440918,-8.221688270568848,0.9864110946655273,-24.2919921875,4.4708251953125,-66.0858154296875
12.9099999,-4.534617900848389,-8.324639320373535,0.9911994934082031,-24.4140625,10.0250244140625,-59.7686767578125
12.9299999,-4.098873138427734,-8.4108304977417,0.9217676520347595,-22.3388671875,4.791259765625,-51.666259765625
12.9499999,-3.7397429943084717,-8.470685958862305,0.7972691655158997,-18.9361572265625,-2.7008056640625,-41.68701171875
12.969999900000001,-3.466804027557373,-8.497021675109863,0.6703764796257019,-16.143798828125,-6.591796875,-29.5562744140625
12.9899999,-3.3016040325164795,-8.492233276367188,0.5770025849342346,-14.6026611328125,-7.6141357421875,-18.5546875
13.0099999,-3.2632968425750732,-8.458714485168457,0.5171475410461426,-14.2669677734375,-4.9896240234375,-14.678955078125
13.0299999,-3.3063924312591553,-8.425195693969727,0.4812345504760742,-12.908935546875,-2.5787353515625,-18.9666748046875
13.049999900000001,-3.399766445159912,-8.427590370178223,0.44771572947502136,-10.528564453125,-1.77001953125,-20.4010009765625
13.069999900000001,-3.466804027557373,-8.473079681396484,0.4118026793003082,-8.23974609375,-5.462646484375,-14.1448974609375
13.0899999,-3.4955344200134277,-8.571242332458496,0.38307225704193115,-5.8746337890625,-8.758544921875,-10.8489990234375
13.1099999,-3.464409828186035,-8.688557624816895,0.363918662071228,-3.7384033203125,-4.2266845703125,-13.00048828125
13.129999900000001,-3.399766445159912,-8.825027465820312,0.35913026332855225,-2.3193359375,2.593994140625,-12.39013671875
13.149999900000001,-3.332728862762451,-8.939949035644531,0.35913026332855225,-0.6866455078125,3.448486328125,-4.94384765625
13.1699999,-3.308786630630493,-9.045293807983398,0.3711012601852417,1.556396484375,-0.8392333984375,-0.06103515625
13.1899999,-3.3446998596191406,-9.119514465332031,0.3998316824436188,4.0283203125,-2.5787353515625,-3.5247802734375
13.209999900000001,-3.4093432426452637,-9.160215377807617,0.45010992884635925,4.913330078125,-3.662109375,-6.6070556640625
13.229999900000001,-3.4524388313293457,-9.174580574035645,0.5267243981361389,4.1656494140625,-6.4697265625,-5.06591796875
13.2499999,-3.4356794357299805,-9.17936897277832,0.6224924325942993,3.0670166015625,-4.9896240234375,-3.9215087890625
13.2699999,-3.375824451446533,-9.198522567749023,0.7038952708244324,2.532958984375,1.312255859375,-4.8828125
13.289999900000002,-3.2968156337738037,-9.220070838928223,0.7709329724311829,2.8076171875,0.48828125,-2.7618408203125
13.309999900000001,-3.2082302570343018,-9.248801231384277,0.828393816947937,2.1209716796875,-5.4473876953125,2.532958984375
13.3299999,-3.157952070236206,-9.287108421325684,0.8810662031173706,-0.701904296875,-1.4190673828125,4.5318603515625
13.3499999,-3.184288263320923,-9.32541561126709,0.9074024558067322,-4.6539306640625,9.3841552734375,2.5634765625
13.3699999,-3.287238836288452,-9.363722801208496,0.9241618514060974,-5.828857421875,7.9498291015625,0.2288818359375
13.389999900000001,-3.4189200401306152,-9.404424667358398,0.9026140570640564,-5.8135986328125,0.732421875,-1.9378662109375
13.4099999,-3.4835634231567383,-9.394847869873047,0.9145850539207458,-7.781982421875,5.4931640625,-5.5084228515625
13.4299999,-3.5003228187561035,-9.375694274902344,0.9409212470054626,-15.9759521484375,21.7437744140625,-7.8582763671875
13.4499999,-3.4596214294433594,-9.32302188873291,0.9576807022094727,-25.2685546875,23.74267578125,-5.706787109375
13.469999900000001,-3.5003228187561035,-9.306262016296387,0.9481038451194763,-28.3355712890625,8.056640625,-3.326416015625
13.4899999,-3.471592426300049,-9.29189682006836,0.8020575642585754,-26.0162353515625,-0.1373291015625,-6.1492919921875
13.5099999,-3.442862033843994,-9.363722801208496,0.646434485912323,-23.1475830078125,3.9520263671875,-6.7901611328125
13.5299999,-3.35667085647583,-9.44991397857666,0.3663128614425659,-21.05712890625,1.28173828125,1.068115234375
13.549999900000001,-3.24414324760437,-9.548076629638672,0.12210428714752197,-12.6190185546875,-9.21630859375,7.7362060546875
13.569999900000001,-3.203441858291626,-9.670180320739746,-0.12449848651885986,-3.387451171875,-4.8675537109375,3.0670166015625
13.5899999,-3.19865345954895,-9.744400978088379,-0.33279404044151306,5.889892578125,5.5999755859375,-1.1444091796875
13.6099999,-3.2632968425750732,-9.801861763000488,-0.45250412821769714,16.17431640625,1.40380859375,2.8839111328125
13.629999900000001,-3.3303346633911133,-9.801861763000488,-0.4572925269603729,24.7650146484375,-11.0015869140625,6.28662109375
13.649999900000001,-3.4189200401306152,-9.742006301879883,-0.33758243918418884,27.8778076171875,-11.2762451171875,1.800537109375
13.6699999,-3.4739866256713867,-9.639056205749512,-0.11013327538967133,25.299072265625,-0.152587890625,-2.838134765625
13.6899999,-3.469198226928711,-9.452308654785156,0.181959331035614,19.622802734375,6.500244140625,-2.0904541015625
13.709999900000001,-3.423708438873291,-9.308655738830566,0.49559974670410156,14.09912109375,6.072998046875,-0.42724609375
13.729999900000001,-3.3854012489318848,-9.167398452758789,0.7661445140838623,9.521484375,2.471923828125,-0.6256103515625
13.7499999,-3.315969467163086,-9.045293807983398,0.9744400978088379,3.1585693359375,2.8076171875,-0.946044921875
13.7699999,-3.3518824577331543,-9.059659004211426,1.1204863786697388,-3.2196044921875,3.0059814453125,1.129150390625
13.789999900000002,-3.3423056602478027,-9.023746490478516,1.1252747774124146,-8.0718994140625,3.0059814453125,1.7852783203125
13.809999900000001,-3.4739866256713867,-9.14345645904541,1.070208191871643,-9.9334716796875,4.08935546875,-2.960205078125
13.8299999,-3.5242648124694824,-9.208099365234375,0.912190854549408,-8.7738037109375,4.1046142578125,-6.744384765625
13.8499999,-3.603273630142212,-9.339780807495117,0.7254431247711182,-4.9896240234375,-1.52587890625,-4.638671875
13.8699999,-3.5625722408294678,-9.457097053527832,0.5626373887062073,-0.9002685546875,-7.6446533203125,-0.701904296875
13.889999900000001,-3.471592426300049,-9.476250648498535,0.40462008118629456,2.105712890625,-5.6304931640625,1.2359619140625
13.9099999,-3.375824451446533,-9.5624418258667,0.33997663855552673,3.8299560546875,0.1678466796875,0.79345703125
13.9299999,-3.361459255218506,-9.521739959716797,0.29209262132644653,6.0272216796875,-0.3509521484375,1.7242431640625
13.9499999,-3.4189200401306152,-9.512163162231445,0.3016694188117981,9.429931640625,-9.674072265625,2.2735595703125
13.969999900000001,-3.512293815612793,-9.454702377319336,0.3998316824436188,11.16943359375,-18.6920166015625,-0.0762939453125
13.9899999,-3.5003228187561035,-9.370905876159668,0.5386953949928284,7.14111328125,-12.5885009765625,-4.1351318359375
14.0099999,-3.406949043273926,-9.289502143859863,0.7469909191131592,-0.3204345703125,-0.18310546875,-3.4637451171875
14.0299999,-3.2609026432037354,-9.241618156433105,0.9169792532920837,-7.2021484375,7.5225830078125,0.5035400390625
14.049999900000001,-3.162740468978882,-9.241618156433105,0.9911994934082031,-9.368896484375,10.2996826171875,0.457763671875
14.069999900000001,-3.1459810733795166,-9.29189682006836,0.9313444495201111,-7.87353515625,9.0179443359375,0.0457763671875
14.0899999,-3.224989652633667,-9.373299598693848,0.7876923680305481,-4.6234130859375,3.41796875,2.471923828125
14.1099999,-3.337517261505127,-9.435548782348633,0.608127236366272,-2.1514892578125,-0.701904296875,3.0364990234375
14.129999900000001,-3.445256233215332,-9.490615844726562,0.4596867263317108,0.0152587890625,0.030517578125,-0.7476806640625
14.149999900000001,-3.5194764137268066,-9.502586364746094,0.38307225704193115,1.52587890625,-0.1678466796875,-2.288818359375
14.1699999,-3.512293815612793,-9.476250648498535,0.3471592366695404,1.8157958984375,-0.762939453125,-0.244140625
14.1899999,-3.485957622528076,-9.428366661071777,0.38307225704193115,0.732421875,0.06103515625,1.7547607421875
14.209999900000001,-3.421314239501953,-9.366117477416992,0.42616790533065796,-0.030517578125,2.0751953125,-1.495361328125
14.229999900000001,-3.3662476539611816,-9.334992408752441,0.4908113479614258,0.30517578125,2.4261474609375,-5.31005859375
14.2499999,-3.3207578659057617,-9.334992408752441,0.569819986820221,1.1444091796875,-1.4495849609375,-3.5400390625
14.2699999,-3.2561142444610596,-9.337387084960938,0.6272808313369751,0.4730224609375,-2.227783203125,0.67138671875
14.289999900000002,-3.2321722507476807,-9.349357604980469,0.6919242739677429,-1.434326171875,2.6397705078125,0.9918212890625
14.309999900000001,-3.2609026432037354,-9.351752281188965,0.7086837291717529,-2.5177001953125,5.7220458984375,-1.3580322265625
14.3299999,-3.31118106842041,-9.35654067993164,0.6847416758537292,-2.3345947265625,3.60107421875,-3.11279296875
14.3499999,-3.3638534545898438,-9.370905876159668,0.6512228846549988,-1.617431640625,0.701904296875,-2.44140625
14.3699999,-3.3710360527038574,-9.35893440246582,0.6009446382522583,-1.251220703125,-0.701904296875,0.396728515625
14.389999900000001,-3.375824451446533,-9.349357604980469,0.5746083855628967,-1.800537109375,0.6866455078125,2.44140625
14.4099999,-3.361459255218506,-9.318233489990234,0.5674257874488831,-2.655029296875,2.8228759765625,1.861572265625
14.4299999,-3.375824451446533,-9.32302188873291,0.5985504388809204,-2.99072265625,2.8076171875,-1.5869140625
14.4499999,-3.3854012489318848,-9.313444137573242,0.6512228846549988,-4.8065185546875,5.2947998046875,-3.23486328125
14.469999900000001,-3.397372245788574,-9.318233489990234,0.7015010714530945,-9.490966796875,7.9803466796875,-1.03759765625
14.4899999,-3.380612850189209,-9.32541561126709,0.7134721279144287,-11.322021484375,2.593994140625,2.6092529296875
14.5099999,-3.445256233215332,-9.346963882446289,0.6655880808830261,-10.19287109375,-1.1138916015625,1.1749267578125
14.5299999,-3.4093432426452637,-9.406818389892578,0.5386953949928284,-8.0108642578125,4.39453125,-4.33349609375
14.549999900000001,-3.4548330307006836,-9.469067573547363,0.3926490843296051,-4.0740966796875,4.5318603515625,-5.1116943359375
14.569999900000001,-3.4117374420166016,-9.552865028381348,0.2513911724090576,0.3814697265625,-5.4473876953125,1.6326904296875
14.5899999,-3.35667085647583,-9.59835433959961,0.17956513166427612,3.173828125,-8.30078125,6.0577392578125
14.6099999,-3.3279404640197754,-9.62947940826416,0.14844051003456116,3.5400390625,1.220703125,2.2735595703125
14.629999900000001,-3.3255462646484375,-9.622296333312988,0.19153612852096558,3.7384033203125,8.4228515625,-3.2806396484375
14.649999900000001,-3.3518824577331543,-9.581595420837402,0.2513911724090576,5.584716796875,0.3509521484375,-2.7313232421875
14.6699999,-3.380612850189209,-9.502586364746094,0.33997663855552673,6.34765625,-10.3759765625,0.9918212890625
14.6899999,-3.3949780464172363,-9.428366661071777,0.4405331015586853,3.3111572265625,-5.31005859375,2.0904541015625
14.709999900000001,-3.3854012489318848,-9.373299598693848,0.5339069962501526,-0.701904296875,4.7454833984375,0.7781982421875
14.729999900000001,-3.4093432426452637,-9.354146003723145,0.5889736413955688,-2.5787353515625,7.0953369140625,-3.0670166015625
14.7499999,-3.3949780464172363,-9.35893440246582,0.6248866319656372,-2.38037109375,0.1068115234375,-6.591796875
14.7699999,-3.3662476539611816,-9.35893440246582,0.6200982332229614,-3.631591796875,-4.0740966796875,-5.7525634765625
14.789999900000002,-3.292027235031128,-9.339780807495117,0.6033388376235962,-5.340576171875,-2.8839111328125,-0.8697509765625
14.809999900000001,-3.227383852005005,-9.282320022583008,0.5793967843055725,-5.889892578125,-1.922607421875,3.5552978515625
14.8299999,-3.2369606494903564,-9.265560150146484,0.507570743560791,-5.2337646484375,3.173828125,1.2969970703125
14.8499999,-3.292027235031128,-9.279925346374512,0.43335050344467163,-2.9449462890625,3.4332275390625,-2.7923583984375
14.8699999,-3.337517261505127,-9.351752281188965,0.3687070608139038,-0.335693359375,-2.6092529296875,-2.5787353515625
14.889999900000001,-3.3518824577331543,-9.411606788635254,0.3232172429561615,0.244140625,-5.2337646484375,1.28173828125
14.9099999,-3.332728862762451,-9.423578262329102,0.3519476354122162,-0.640869140625,-3.60107421875,2.1820068359375
14.9299999,-3.3207578659057617,-9.3828763961792,0.3902548849582672,-2.01416015625,-2.044677734375,0.091552734375
14.9499999,-3.339911460876465,-9.30386734008789,0.4620809257030487,-3.0517578125,-4.45556640625,0.5950927734375
14.969999900000001,-3.375824451446533,-9.241618156433105,0.5123591423034668,-4.7760009765625,-7.01904296875,3.143310546875
14.9899999,-3.40216064453125,-9.241618156433105,0.5530605912208557,-6.9122314453125,-2.532958984375,2.1820068359375
15.0099999,-3.4165258407592773,-9.287108421325684,0.5578489899635315,-7.62939453125,2.593994140625,-0.9918212890625
15.0299999,-3.404554843902588,-9.373299598693848,0.5291185975074768,-6.7138671875,-0.335693359375,-0.4730224609375
15.049999900000001,-3.3662476539611816,-9.44991397857666,0.4668693244457245,-5.6304931640625,-5.0506591796875,3.0364990234375
15.069999900000001,-3.354276657104492,-9.490615844726562,0.3734954595565796,-5.1116943359375,-2.1514892578125,2.50244140625
15.0899999,-3.383007049560547,-9.514557838439941,0.2322375625371933,-3.0975341796875,7.75146484375,-2.716064453125
15.1099999,-3.4524388313293457,-9.536105155944824,0.11252748221158981,2.3956298828125,4.69970703125,-3.6773681640625
15.129999900000001,-3.485957622528076,-9.564835548400879,0.05746084079146385,7.1868896484375,-11.077880859375,1.6021728515625
15.149999900000001,-3.466804027557373,-9.581595420837402,0.07422025501728058,6.4849853515625,-14.495849609375,4.9285888671875
15.1699999,-3.3710360527038574,-9.545681953430176,0.17956513166427612,0.7476806640625,2.3956298828125,0.152587890625
15.1899999,-3.2824504375457764,-9.500192642211914,0.26336219906806946,-2.7923583984375,15.9454345703125,-5.79833984375
15.209999900000001,-3.248931646347046,-9.430760383605957,0.29209262132644653,0.42724609375,8.30078125,-3.5858154296875
15.229999900000001,-3.265691041946411,-9.41400146484375,0.2801215946674347,4.791259765625,-7.4920654296875,2.410888671875
15.2499999,-3.3063924312591553,-9.394847869873047,0.24420857429504395,5.37109375,-6.9580078125,3.082275390625
15.2699999,-3.3470940589904785,-9.440337181091309,0.23702596127986908,3.11279296875,4.3792724609375,-0.244140625
15.289999900000002,-3.3710360527038574,-9.476250648498535,0.22744916379451752,2.5634765625,10.6964111328125,-2.227783203125
15.309999900000001,-3.4093432426452637,-9.555258750915527,0.2106897532939911,5.2642822265625,8.453369140625,-1.7242431640625
15.3299999,-3.421314239501953,-9.59835433959961,0.19871874153614044,8.85009765625,-1.0223388671875,-1.3885498046875
15.3499999,-3.4117374420166016,-9.591172218322754,0.21787235140800476,9.94873046875,-4.058837890625,-1.2664794921875
15.3699999,-3.3901896476745605,-9.516951560974121,0.26815059781074524,8.331298828125,3.0975341796875,-1.40380859375
15.389999900000001,-3.3638534545898438,-9.397241592407227,0.33039984107017517,6.3629150390625,11.3372802734375,-3.509521484375
15.4099999,-3.3901896476745605,-9.306262016296387,0.40462008118629456,6.500244140625,10.0555419921875,-4.0740966796875
15.4299999,-3.380612850189209,-9.255983352661133,0.47644615173339844,6.53076171875,0.6103515625,-1.64794921875
15.4499999,-3.359065055847168,-9.239224433898926,0.569819986820221,3.997802734375,-1.2054443359375,0.030517578125
15.469999900000001,-3.2800562381744385,-9.244012832641602,0.6631938815116882,0.0457763671875,4.8828125,-0.244140625
15.4899999,-3.203441858291626,-9.224859237670898,0.7230489253997803,-2.13623046875,8.0108642578125,-0.5035400390625
15.5099999,-3.203441858291626,-9.2033109664917,0.7469909191131592,-1.4801025390625,3.60107421875,0.5340576171875
15.5299999,-3.246537446975708,-9.186552047729492,0.727837324142456,-0.3814697265625,-2.86865234375,0.9002685546875
15.549999900000001,-3.3279404640197754,-9.208099365234375,0.6943184733390808,-0.396728515625,-2.5482177734375,0.5950927734375
15.569999900000001,-3.421314239501953,-9.263166427612305,0.6703764796257019,-0.7781982421875,1.434326171875,0.5950927734375
15.5899999,-3.44765043258667,-9.370905876159668,0.6129156351089478,0.335693359375,1.6632080078125,0.946044921875
15.6099999,-3.44765043258667,-9.473855972290039,0.5841852426528931,3.2501220703125,-0.152587890625,0.1983642578125
15.629999900000001,-3.450044631958008,-9.5408935546875,0.5482721924781799,5.767822265625,-2.62451171875,0.2593994140625
15.649999900000001,-3.3854012489318848,-9.615114212036133,0.5410895943641663,6.0577392578125,-1.64794921875,1.4495849609375
15.6699999,-3.40216064453125,-9.567230224609375,0.5410895943641663,5.340576171875,1.800537109375,1.7852783203125
15.6899999,-3.3446998596191406,-9.5624418258667,0.5793967843055725,5.767822265625,3.11279296875,-0.5035400390625
15.709999900000001,-3.339911460876465,-9.502586364746094,0.5770025849342346,6.1492919921875,4.33349609375,-2.3040771484375
15.729999900000001,-3.3039982318878174,-9.469067573547363,0.6057330369949341,6.6070556640625,3.875732421875,-0.7171630859375
15.7499999,-3.2752678394317627,-9.411606788635254,0.6009446382522583,7.4920654296875,0.8087158203125,1.8310546875
15.7699999,-3.292027235031128,-9.370905876159668,0.6105214357376099,8.5296630859375,1.312255859375,1.2359619140625
15.789999900000002,-3.3231520652770996,-9.299078941345215,0.6105214357376099,9.9334716796875,0.5645751953125,-1.2054443359375
15.809999900000001,-3.3016040325164795,-9.27034854888916,0.6440402865409851,10.498046875,-3.23486328125,-0.5645751953125
15.8299999,-3.28963303565979,-9.17697525024414,0.6847416758537292,9.2010498046875,-1.7242431640625,2.7008056640625
15.8499999,-3.201047658920288,-9.062053680419922,0.8738836050033569,3.7384033203125,-0.18310546875,4.8370361328125
15.869999900000002,-3.19865345954895,-8.978256225585938,0.9672574996948242,1.312255859375,-0.9307861328125,2.01416015625
15.889999900000001,-3.222595453262329,-8.913613319396973,1.036689281463623,-0.2899169921875,-0.8697509765625,-0.7476806640625
15.9099999,-3.24414324760437,-9.006986618041992,0.8954314589500427,1.495361328125,0.701904296875,-1.5411376953125
15.9299999,-3.155557870864868,-9.05487060546875,0.706289529800415,23.529052734375,-8.0108642578125,0.335693359375
15.9499999,-3.0334534645080566,-9.162610054016113,0.5099649429321289,48.248291015625,-12.176513671875,3.9520263671875
15.969999900000001,-2.8993782997131348,-9.10993766784668,0.5291185975074768,51.45263671875,-9.82666015625,4.82177734375
15.9899999,-2.801215887069702,-8.887276649475098,0.8690952062606812,41.046142578125,-0.5035400390625,0.18310546875
16.0099999,-2.832340717315674,-8.561665534973145,1.4532804489135742,25.5126953125,11.1541748046875,-9.0789794921875
16.0299999,-2.9759926795959473,-8.250418663024902,2.0614075660705566,8.148193359375,13.48876953125,-20.0958251953125
16.0499999,-3.160346269607544,-8.068459510803223,2.52109432220459,-5.4168701171875,4.1961669921875,-30.1055908203125
16.0699999,-3.287238836288452,-8.063671112060547,2.741360902786255,-15.7318115234375,-6.5765380859375,-34.5001220703125
16.089999900000002,-3.339911460876465,-8.233659744262695,2.7102363109588623,-25.45166015625,-10.7269287109375,-33.4930419921875
16.109999900000002,-3.294421434402466,-8.492233276367188,2.4827871322631836,-33.26416015625,-10.7269287109375,-33.0352783203125
16.1299999,-3.2345664501190186,-8.78193187713623,2.121262788772583,-36.2091064453125,-11.0931396484375,-39.00146484375
16.1499999,-3.1723172664642334,-9.047688484191895,1.702277421951294,-35.369873046875,-13.3819580078125,-45.9747314453125
16.1699999,-3.0550012588500977,-9.263166427612305,1.3000515699386597,-34.24072265625,-14.5416259765625,-49.560546875
16.1899999,-2.853888511657715,-9.440337181091309,0.9600749015808105,-32.3638916015625,-13.7481689453125,-50.933837890625
16.2099999,-2.5713725090026855,-9.576807022094727,0.7015010714530945,-27.6947021484375,-13.4429931640625,-51.1016845703125
16.2299999,-2.233790159225464,-9.684545516967773,0.5363011956214905,-19.9432373046875,-15.289306640625,-50.6591796875
16.249999900000002,-1.9369091987609863,-9.75397777557373,0.43335050344467163,-12.298583984375,-15.960693359375,-50.2166748046875
16.269999900000002,-1.7262194156646729,-9.797073364257812,0.38546648621559143,-7.01904296875,-16.876220703125,-51.1474609375
16.2899999,-1.5849615335464478,-9.801861763000488,0.3734954595565796,-2.2735595703125,-20.172119140625,-52.8717041015625
16.3099999,-1.479616641998291,-9.794678688049316,0.3926490843296051,2.4871826171875,-23.6053466796875,-53.4820556640625
16.3299999,-1.3742717504501343,-9.782708168029785,0.4381389021873474,5.1727294921875,-26.3671875,-50.84228515625
16.3499999,-1.2018892765045166,-9.770736694335938,0.5171475410461426,5.828857421875,-26.79443359375,-47.6837158203125
16.3699999,-0.9792284965515137,-9.749189376831055,0.6320692300796509,5.584716796875,-23.6053466796875,-47.027587890625
16.3899999,-0.7493851184844971,-9.739612579345703,0.751779317855835,6.6986083984375,-18.5394287109375,-45.989990234375
16.4099999,-0.524330198764801,-9.718064308166504,0.8595184087753296,6.3323974609375,-15.5181884765625,-42.8466796875
16.429999900000002,-0.3447650372982025,-9.742006301879883,0.9361328482627869,5.5389404296875,-17.6544189453125,-39.5355224609375
16.4499999,-0.20350714027881622,-9.81143856048584,0.993593692779541,5.7220458984375,-19.7296142578125,-35.919189453125
16.4699999,-0.09576806426048279,-9.895236015319824,1.0199298858642578,4.1656494140625,-12.6190185546875,-32.28759765625
16.4899999,-0.06224924325942993,-9.988609313964844,1.0007762908935547,2.5634765625,-4.7149658203125,-29.72412109375
16.5099999,-0.08379705995321274,-10.11789608001709,0.9624691009521484,4.5166015625,-8.4075927734375,-25.3448486328125
16.5299999,-0.15322890877723694,-10.232817649841309,0.8906430602073669,8.1939697265625,-17.0440673828125,-21.3470458984375
16.5499999,-0.2106897532939911,-10.340557098388672,0.8331822156906128,8.85009765625,-15.2587890625,-20.7977294921875
16.5699999,-0.22505496442317963,-10.441113471984863,0.790086567401886,7.232666015625,-6.2713623046875,-22.4609375
16.589999900000002,-0.14604631066322327,-10.498574256896973,0.7661445140838623,6.6986083984375,-2.716064453125,-21.514892578125
16.609999900000002,-0.011971008032560349,-10.536881446838379,0.7541735172271729,8.85009765625,-6.4239501953125,-16.4947509765625
16.6299999,0.1388636976480484,-10.556035041809082,0.768538773059845,10.955810546875,-9.033203125,-9.490966796875
16.6499999,0.2753331959247589,-10.553641319274902,0.8020575642585754,9.490966796875,-5.9814453125,-4.364013671875
16.6699999,0.3447650372982025,-10.517727851867676,0.8475474119186401,5.035400390625,-4.57763671875,-2.960205078125
16.6899999,0.3280056416988373,-10.462661743164062,0.912190854549408,3.7841796875,-8.4686279296875,-1.9989013671875
16.7099999,0.2753331959247589,-10.374075889587402,0.9696516990661621,2.593994140625,-8.056640625,-1.8157958984375
16.7299999,0.2346317619085312,-10.271124839782715,1.0271124839782715,-2.4566650390625,-3.23486328125,-4.69970703125
16.749999900000002,0.2346317619085312,-10.192116737365723,1.0606313943862915,-6.0882568359375,-1.1444091796875,-5.9356689453125
16.769999900000002,0.26815059781074524,-10.14902114868164,1.0462661981582642,-5.92041015625,-2.7923583984375,-2.3956298828125
16.7899999,0.33758243918418884,-10.132261276245117,0.9792284965515137,-3.6468505859375,-5.9814453125,1.46484375
16.8099999,0.4165911078453064,-10.122684478759766,0.8834604024887085,-2.532958984375,-4.5928955078125,0.5645751953125
16.8299999,0.4620809257030487,-10.129867553710938,0.7781155705451965,-1.52587890625,-0.0152587890625,-1.373291015625
16.8499999,0.5027823448181152,-10.132261276245117,0.706289529800415,1.2664794921875,0.091552734375,0.3204345703125
16.8699999,0.5363011956214905,-10.122684478759766,0.6943184733390808,3.326416015625,-2.899169921875,1.8157958984375
16.8899999,0.5602431893348694,-10.108319282531738,0.7445967197418213,2.1514892578125,-4.6539306640625,0.457763671875
16.9099999,0.5841852426528931,-10.074800491333008,0.8547300100326538,-0.823974609375,-1.8768310546875,-0.274658203125
16.929999900000002,0.5602431893348694,-10.019734382629395,0.9864110946655273,-4.3487548828125,2.5634765625,-0.0152587890625
16.9499999,0.507570743560791,-9.964667320251465,1.0845733880996704,-7.7056884765625,-0.6561279296875,-1.9989013671875
16.9699999,0.43335050344467163,-9.93593692779541,1.1252747774124146,-7.87353515625,-11.260986328125,-4.8980712890625
16.9899999,0.40940847992897034,-9.90241813659668,1.1276689767837524,-6.9427490234375,-18.00537109375,-4.94384765625
17.0099999,0.4644751250743866,-9.854534149169922,1.0965443849563599,-9.27734375,-12.39013671875,-4.7760009765625
17.0299999,0.5578489899635315,-9.832986831665039,1.0271124839782715,-10.8642578125,-4.4708251953125,-6.378173828125
17.0499999,0.6775590777397156,-9.835380554199219,0.9289502501487732,-7.8277587890625,-5.096435546875,-5.92041015625
17.0699999,0.7829039692878723,-9.864110946655273,0.8307880163192749,-1.6937255859375,-7.7362060546875,-2.25830078125
17.089999900000002,0.8547300100326538,-9.904812812805176,0.7565677165985107,1.312255859375,-5.6915283203125,1.7852783203125
17.109999900000002,0.9145850539207458,-9.923966407775879,0.730231523513794,0.6103515625,-0.5035400390625,3.4637451171875
17.1299999,0.7182605266571045,-10.524910926818848,0.8547300100326538,3.662109375,1.9378662109375,5.035400390625
17.1499999,0.6727706789970398,-10.503362655639648,0.9457096457481384,5.0048828125,-1.373291015625,-8.9263916015625
17.1699999,0.4620809257030487,-10.812214851379395,1.094150185585022,-1.6326904296875,2.9754638671875,-18.61572265625
17.1899999,0.47644615173339844,-10.450690269470215,1.1492167711257935,-1.89208984375,3.84521484375,-14.617919921875
17.2099999,0.608127236366272,-9.806650161743164,1.1492167711257935,-4.1656494140625,2.0904541015625,-9.490966796875
17.2299999,0.608127236366272,-9.77791976928711,1.113303780555725,-0.732421875,-3.021240234375,-1.8463134765625
17.249999900000002,0.8236053586006165,-9.514557838439941,1.0582371950149536,-4.0283203125,-4.8675537109375,-10.711669921875
17.269999900000002,0.8427590131759644,-9.940725326538086,0.9792284965515137,0.9307861328125,-3.5858154296875,-6.8206787109375
17.2899999,0.9744400978088379,-9.981427192687988,0.9193734526634216,0.4425048828125,1.0528564453125,-2.593994140625
17.3099999,1.091755986213684,-10.041281700134277,0.8595184087753296,0.640869140625,1.28173828125,-1.373291015625
17.3299999,1.1300631761550903,-9.945513725280762,0.849941611289978,0.48828125,0.6256103515625,0.244140625
17.3499999,1.1037269830703735,-9.888052940368652,0.849941611289978,-0.244140625,0.640869140625,1.5106201171875
17.3699999,1.0271124839782715,-9.856928825378418,0.8667010068893433,0.1220703125,0.5645751953125,0.640869140625
17.3899999,0.9217676520347595,-9.823410034179688,0.8810662031173706,0.5645751953125,0.6103515625,-0.5035400390625
17.409999900000003,0.8379706144332886,-9.835380554199219,0.8906430602073669,0.5645751953125,0.4425048828125,-0.732421875
17.429999900000002,0.811634361743927,-9.828198432922363,0.8978256583213806,-0.244140625,0.3509521484375,-0.42724609375
17.4499999,0.8259995579719543,-9.847352027893066,0.9074024558067322,-0.091552734375,0.762939453125,0.762939453125
17.4699999,0.8188169598579407,-9.849745750427246,0.9050082564353943,0.274658203125,0.946044921875,1.4495849609375
17.4899999,0.8236053586006165,-9.854534149169922,0.8978256583213806,0.2288818359375,0.5340576171875,-0.4425048828125
17.5099999,0.8307880163192749,-9.864110946655273,0.8882488012313843,0.18310546875,0.274658203125,-1.4495849609375
17.5299999,0.8643068075180054,-9.86650562286377,0.912190854549408,0.1068115234375,0.7476806640625,0.5035400390625
17.5499999,0.8690952062606812,-9.856928825378418,0.9289502501487732,-0.5950927734375,0.9613037109375,2.5177001953125
17.5699999,0.8355764150619507,-9.86889934539795,0.9026140570640564,-1.220703125,0.2899169921875,0.9918212890625
17.589999900000002,0.730231523513794,-9.856928825378418,0.8738836050033569,0.9307861328125,0.579833984375,-2.716064453125
17.609999900000002,0.608127236366272,-9.856928825378418,0.8643068075180054,2.6092529296875,1.2054443359375,-5.0048828125
17.6299999,0.667982280254364,-9.84495735168457,0.8954314589500427,0.3204345703125,0.4730224609375,-6.3629150390625
17.6499999,0.8427590131759644,-9.847352027893066,0.9002198576927185,-2.25830078125,-0.946044921875,-1.9073486328125
17.6699999,1.0271124839782715,-9.840168952941895,0.9289502501487732,-0.0152587890625,1.068115234375,4.8065185546875
17.6899999,1.1180921792984009,-9.832986831665039,0.9385270476341248,1.7852783203125,2.1514892578125,4.2572021484375
17.7099999,1.0271124839782715,-9.840168952941895,0.8954314589500427,-0.5340576171875,0.2593994140625,0.30517578125
17.7299999,0.8619126081466675,-9.84256362915039,0.9169792532920837,-0.48828125,0.0152587890625,-3.1890869140625
17.749999900000002,0.7637503147125244,-9.840168952941895,0.9289502501487732,0.6256103515625,0.7781982421875,-2.9296875
17.769999900000002,0.7709329724311829,-9.852140426635742,0.8978256583213806,-0.2899169921875,0.54931640625,0.1220703125
17.7899999,0.8236053586006165,-9.847352027893066,0.9026140570640564,-0.213623046875,0.8544921875,1.5716552734375
17.8099999,0.8571242094039917,-9.835380554199219,0.8930372595787048,-0.091552734375,0.701904296875,0.518798828125
17.8299999,0.849941611289978,-9.84495735168457,0.8858546018600464,0.0762939453125,0.4730224609375,-0.8544921875
17.8499999,0.8355764150619507,-9.837775230407715,0.9074024558067322,0.5950927734375,0.7781982421875,-1.2054443359375
17.8699999,0.8331822156906128,-9.84495735168457,0.9097966551780701,-0.4119873046875,0.5645751953125,-0.5645751953125
17.8899999,0.8451532125473022,-9.849745750427246,0.9097966551780701,-0.885009765625,0.30517578125,-0.06103515625
17.909999900000003,0.8595184087753296,-9.849745750427246,0.9193734526634216,0.4730224609375,0.9002685546875,-0.3204345703125
17.929999900000002,0.871489405632019,-9.84495735168457,0.9074024558067322,0.5950927734375,0.9002685546875,-0.3204345703125
17.9499999,0.8738836050033569,-9.84495735168457,0.9050082564353943,-0.274658203125,0.457763671875,-0.0152587890625
17.9699999,0.8595184087753296,-9.832986831665039,0.912190854549408,-0.42724609375,0.5950927734375,0.06103515625
17.9899999,0.8307880163192749,-9.835380554199219,0.9026140570640564,-0.1983642578125,0.6256103515625,-0.3662109375
18.0099999,0.8092401623725891,-9.840168952941895,0.9050082564353943,0.396728515625,0.7171630859375,-1.2054443359375
18.0299999,0.8188169598579407,-9.847352027893066,0.9145850539207458,0.2899169921875,0.6256103515625,-1.373291015625
18.0499999,0.8595184087753296,-9.859322547912598,0.9026140570640564,-0.48828125,0.396728515625,-0.152587890625
18.0699999,0.9002198576927185,-9.861717224121094,0.9002198576927185,-0.030517578125,0.762939453125,0.9307861328125
18.089999900000002,0.8978256583213806,-9.854534149169922,0.9026140570640564,0.54931640625,1.1444091796875,0.732421875
18.109999900000002,0.8547300100326538,-9.849745750427246,0.9050082564353943,-0.274658203125,0.579833984375,-0.48828125
18.1299999,0.8044517636299133,-9.840168952941895,0.9169792532920837,-0.5950927734375,0.1983642578125,-1.708984375
18.1499999,0.7996633648872375,-9.84256362915039,0.9361328482627869,0.2899169921875,0.6561279296875,-1.3885498046875
18.1699999,0.8355764150619507,-9.832986831665039,0.9265560507774353,0.274658203125,0.8392333984375,-0.0762939453125
18.1899999,0.8762778043746948,-9.852140426635742,0.9002198576927185,-0.5035400390625,0.518798828125,0.8087158203125
18.2099999,0.8834604024887085,-9.847352027893066,0.9074024558067322,0.0762939453125,0.8544921875,0.1220703125
18.2299999,0.8571242094039917,-9.854534149169922,0.9265560507774353,0.2899169921875,0.8392333984375,-0.9307861328125
18.249999900000002,0.8307880163192749,-9.854534149169922,0.9145850539207458,-0.67138671875,0.1983642578125,-1.190185546875
18.269999900000002,0.8355764150619507,-9.861717224121094,0.9145850539207458,-0.1373291015625,0.42724609375,-0.67138671875
18.2899999,0.8619126081466675,-9.856928825378418,0.9217676520347595,0.885009765625,1.1749267578125,0.1068115234375
18.3099999,0.8810662031173706,-9.859322547912598,0.9145850539207458,-0.30517578125,0.732421875,0.42724609375
18.3299999,0.8762778043746948,-9.854534149169922,0.9145850539207458,-1.007080078125,0.3204345703125,-0.091552734375
18.3499999,0.8451532125473022,-9.849745750427246,0.9313444495201111,0.30517578125,0.8544921875,-0.7171630859375
18.3699999,0.8236053586006165,-9.84256362915039,0.9217676520347595,0.48828125,0.823974609375,-0.9002685546875
18.3899999,0.828393816947937,-9.849745750427246,0.9169792532920837,-0.213623046875,0.4730224609375,-0.6866455078125
18.409999900000003,0.8523358106613159,-9.847352027893066,0.9145850539207458,-0.30517578125,0.4425048828125,-0.1220703125
18.429999900000002,0.8738836050033569,-9.849745750427246,0.9050082564353943,-0.0457763671875,0.640869140625,0.3509521484375
18.4499999,0.8667010068893433,-9.847352027893066,0.912190854549408,0.54931640625,0.9307861328125,0.152587890625
18.4699999,0.8403648138046265,-9.84495735168457,0.9193734526634216,-0.18310546875,0.67138671875,-0.5645751953125
18.4899999,0.8236053586006165,-9.852140426635742,0.9145850539207458,-0.7781982421875,0.2593994140625,-1.0223388671875
18.5099999,0.8379706144332886,-9.849745750427246,0.9265560507774353,0.3814697265625,0.7171630859375,-0.9002685546875
18.5299999,0.8667010068893433,-9.849745750427246,0.9289502501487732,0.579833984375,1.0223388671875,0.06103515625
18.5499999,0.8858546018600464,-9.849745750427246,0.9074024558067322,-0.885009765625,0.3814697265625,0.8544921875
18.5699999,0.8762778043746948,-9.84495735168457,0.9097966551780701,-0.3204345703125,0.54931640625,0.1983642578125
18.589999900000002,0.8427590131759644,-9.84495735168457,0.9265560507774353,0.9918212890625,1.0833740234375,-0.8697509765625
18.609999900000002,0.8236053586006165,-9.849745750427246,0.9241618514060974,-0.091552734375,0.54931640625,-1.1444091796875
18.6299999,0.8331822156906128,-9.852140426635742,0.9217676520347595,-0.91552734375,0.2593994140625,-0.5950927734375
18.6499999,0.8571242094039917,-9.852140426635742,0.9193734526634216,0.0457763671875,0.7781982421875,0.3204345703125
18.6699999,0.8667010068893433,-9.84495735168457,0.9169792532920837,0.7476806640625,1.15966796875,0.5340576171875
18.6899999,0.8547300100326538,-9.854534149169922,0.9145850539207458,-0.152587890625,0.5950927734375,-0.274658203125
18.7099999,0.8355764150619507,-9.849745750427246,0.9217676520347595,-0.640869140625,0.2288818359375,-1.15966796875
18.7299999,0.8307880163192749,-9.852140426635742,0.9313444495201111,0.1220703125,0.701904296875,-0.8697509765625
18.749999900000002,0.8451532125473022,-9.856928825378418,0.9145850539207458,0.2288818359375,0.7781982421875,0
18.769999900000002,0.8619126081466675,-9.847352027893066,0.9097966551780701,-0.0152587890625,0.701904296875,0.274658203125
