# Time (seconds),Accel_X,Accel_Y,Accel_Z,Gyro_X,Gyro_Y,Gyro_Z
0.0099999,0.40462008118629456,-9.861717224121094,1.0654197931289673,-0.4119873046875,0.5035400390625,-2.01416015625
0.029999900000000003,0.4118026793003082,-9.864110946655273,1.0606313943862915,-0.274658203125,0.4119873046875,-1.3275146484375
0.0499999,0.4429273009300232,-9.86889934539795,1.0558429956436157,-0.1068115234375,0.4119873046875,-1.1749267578125
0.0699999,0.47405192255973816,-9.871294021606445,1.05105459690094,-0.213623046875,0.3814697265625,-1.434326171875
0.08999990000000001,0.5027823448181152,-9.86889934539795,1.048660397529602,-0.3662109375,0.4730224609375,-1.40380859375
0.10999990000000001,0.5291185975074768,-9.86889934539795,1.048660397529602,-0.152587890625,0.5645751953125,-0.7781982421875
0.1299999,0.5530605912208557,-9.871294021606445,1.0438719987869263,-0.1220703125,0.518798828125,-0.1983642578125
0.14999990000000002,0.5530605912208557,-9.86889934539795,1.0414776802062988,-0.0152587890625,0.7781982421875,-0.1068115234375
0.1699999,0.5147533416748047,-9.864110946655273,1.0534487962722778,-0.518798828125,0.3814697265625,-1.495361328125
0.1899999,0.5099649429321289,-9.86650562286377,1.05105459690094,-0.396728515625,0.5950927734375,-0.823974609375
0.20999990000000002,0.5123591423034668,-9.864110946655273,1.05105459690094,0.335693359375,0.91552734375,0.42724609375
0.2299999,0.507570743560791,-9.86650562286377,1.0558429956436157,0.30517578125,0.732421875,0.0762939453125
0.2499999,0.5147533416748047,-9.86650562286377,1.048660397529602,-0.67138671875,0.3509521484375,-1.1444091796875
0.2699999,0.5027823448181152,-9.86650562286377,1.0558429956436157,-0.30517578125,0.701904296875,-0.7476806640625
0.28999990000000003,0.5051765441894531,-9.864110946655273,1.0630255937576294,0.3662109375,0.6256103515625,0.1983642578125
0.3099999,0.5147533416748047,-9.86650562286377,1.0606313943862915,-0.274658203125,0.457763671875,-0.244140625
0.3299999,0.5099649429321289,-9.864110946655273,1.0606313943862915,-0.640869140625,0.5035400390625,-0.6561279296875
0.34999990000000003,0.507570743560791,-9.859322547912598,1.070208191871643,0.06103515625,0.701904296875,-0.396728515625
0.3699999,0.507570743560791,-9.861717224121094,1.0630255937576294,-0.152587890625,0.518798828125,-0.0457763671875
0.3899999,0.5123591423034668,-9.861717224121094,1.0582371950149536,-0.48828125,0.396728515625,-0.2288818359375
0.40999990000000003,0.5099649429321289,-9.859322547912598,1.0630255937576294,-0.1373291015625,0.6103515625,-0.5340576171875
0.4299999,0.5003881454467773,-9.859322547912598,1.0606313943862915,-0.335693359375,0.4730224609375,-0.5035400390625
0.4499999,0.507570743560791,-9.859322547912598,1.0606313943862915,-0.4119873046875,0.3509521484375,-0.6561279296875
0.4699999,0.5051765441894531,-9.859322547912598,1.05105459690094,-0.1983642578125,0.5950927734375,-0.3814697265625
0.4899999,0.4908113479614258,-9.859322547912598,1.0534487962722778,0,0.7171630859375,-0.396728515625
0.5099999,0.49320554733276367,-9.864110946655273,1.0414776802062988,-0.3814697265625,0.4119873046875,-1.312255859375
0.5299999,0.5003881454467773,-9.861717224121094,1.0534487962722778,-0.244140625,0.701904296875,-1.0833740234375
0.5499999,0.5099649429321289,-9.888052940368652,1.01753568649292,-0.3204345703125,0.7781982421875,-0.1678466796875
0.5699999,0.5291185975074768,-9.8784761428833,1.0342950820922852,1.3580322265625,1.0528564453125,0.3662109375
0.5899998999999999,0.5003881454467773,-9.890447616577148,1.0462661981582642,0.7781982421875,0.579833984375,-0.4119873046875
0.6099998999999999,0.4812345504760742,-9.885659217834473,1.0247182846069336,-1.556396484375,-0.0762939453125,-0.946044921875
0.6299999,0.49320554733276367,-9.84495735168457,1.1013327836990356,0.8697509765625,0.9765625,-0.7171630859375
0.6499999,0.4812345504760742,-9.854534149169922,1.072602391242981,0.4730224609375,0.6103515625,-0.1068115234375
0.6699999,0.5315127968788147,-9.813833236694336,1.1085153818130493,-1.495361328125,0.5950927734375,-0.48828125
0.6899999,0.5434837937355042,-9.825803756713867,1.0869675874710083,-1.0528564453125,0.2899169921875,-0.6103515625
0.7099999,0.5267243981361389,-9.818621635437012,1.0869675874710083,0.091552734375,0.9307861328125,0.1678466796875
0.7299998999999999,0.5171475410461426,-9.854534149169922,1.0558429956436157,-0.4425048828125,0.6256103515625,0.4425048828125
0.7499998999999999,0.507570743560791,-9.84495735168457,1.0582371950149536,-0.4730224609375,0.396728515625,-0.54931640625
0.7699999,0.47165772318840027,-9.904812812805176,1.0534487962722778,0.0762939453125,0.885009765625,-0.9613037109375
0.7899999,0.47165772318840027,-9.86889934539795,1.0558429956436157,-0.1983642578125,0.4119873046875,-0.5035400390625
0.8099999,0.47884035110473633,-9.9000244140625,1.0558429956436157,-0.152587890625,0.5340576171875,-0.4425048828125
0.8299999,0.4644751250743866,-9.885659217834473,1.05105459690094,-0.152587890625,0.6561279296875,-0.396728515625
0.8499998999999999,0.49799394607543945,-9.856928825378418,1.0654197931289673,-0.4425048828125,0.701904296875,-0.3662109375
0.8699998999999999,0.49559974670410156,-9.8784761428833,1.0582371950149536,-0.091552734375,0.6561279296875,-0.213623046875
0.8899999,0.4884171485900879,-9.864110946655273,1.070208191871643,0.06103515625,0.5340576171875,-0.1983642578125
0.9099999,0.5051765441894531,-9.859322547912598,1.0678139925003052,-0.18310546875,0.7476806640625,-0.9307861328125
0.9299999,0.5123591423034668,-9.86650562286377,1.070208191871643,-0.213623046875,0.7171630859375,-0.457763671875
0.9499999,0.5027823448181152,-9.861717224121094,1.0749965906143188,-0.274658203125,0.5035400390625,0.335693359375
0.9699998999999999,0.5123591423034668,-9.84495735168457,1.0749965906143188,-0.2593994140625,0.6561279296875,0.030517578125
0.9899998999999999,0.49559974670410156,-9.852140426635742,1.0749965906143188,0,0.6103515625,-0.6561279296875
1.0099999,0.47405192255973816,-9.861717224121094,1.0630255937576294,-0.1220703125,0.518798828125,-0.8697509765625
1.0299999,0.4836287498474121,-9.86889934539795,1.0582371950149536,-0.30517578125,0.457763671875,-0.4730224609375
1.0499999,0.4908113479614258,-9.86650562286377,1.0582371950149536,0,0.79345703125,0
1.0699999,0.49799394607543945,-9.873687744140625,1.0558429956436157,-0.3662109375,0.732421875,0.091552734375
1.0899999,0.4836287498474121,-9.86889934539795,1.0534487962722778,-0.1373291015625,0.67138671875,-0.67138671875
1.1099999,0.4908113479614258,-9.86650562286377,1.0630255937576294,-0.1678466796875,0.6256103515625,-0.91552734375
1.1299999,0.49559974670410156,-9.861717224121094,1.0606313943862915,-0.3814697265625,0.5645751953125,-0.0762939453125
1.1499999,0.5099649429321289,-9.86889934539795,1.0678139925003052,-0.0152587890625,0.8392333984375,0.0762939453125
1.1699998999999999,0.5147533416748047,-9.859322547912598,1.0797849893569946,-0.0762939453125,0.4730224609375,-0.4730224609375
1.1899998999999999,0.49559974670410156,-9.86650562286377,1.072602391242981,-0.54931640625,0.30517578125,-0.4730224609375
1.2099999,0.49799394607543945,-9.856928825378418,1.0845733880996704,-0.152587890625,0.640869140625,-0.2593994140625
1.2299999,0.4812345504760742,-9.861717224121094,1.0678139925003052,0.0762939453125,0.7476806640625,-0.0457763671875
1.2499999,0.49320554733276367,-9.859322547912598,1.070208191871643,-0.2899169921875,0.5950927734375,-0.2899169921875
1.2699999,0.49559974670410156,-9.864110946655273,1.0630255937576294,-0.091552734375,0.6866455078125,-0.6866455078125
1.2899999,0.5051765441894531,-9.856928825378418,1.0678139925003052,0,0.6866455078125,-0.4730224609375
1.3099999,0.5123591423034668,-9.86650562286377,1.0678139925003052,-0.3204345703125,0.579833984375,0
1.3299999,0.5099649429321289,-9.86889934539795,1.0558429956436157,-0.335693359375,0.54931640625,-0.3204345703125
1.3499999,0.49320554733276367,-9.883264541625977,1.0534487962722778,-0.0457763671875,0.67138671875,-0.42724609375
1.3699999,0.47165772318840027,-9.880870819091797,1.036689281463623,-0.091552734375,0.5950927734375,-0.3509521484375
1.3899999,0.48602294921875,-9.876082420349121,1.0342950820922852,-0.3814697265625,0.5950927734375,-0.3509521484375
1.4099999,0.47644615173339844,-9.86889934539795,1.0414776802062988,-0.0152587890625,0.701904296875,-0.0762939453125
1.4299998999999999,0.5051765441894531,-9.864110946655273,1.0534487962722778,-0.2288818359375,0.6256103515625,-0.1983642578125
1.4499999,0.4836287498474121,-9.871294021606445,1.05105459690094,-0.3204345703125,0.67138671875,-0.67138671875
1.4699999,0.49559974670410156,-9.859322547912598,1.072602391242981,-0.152587890625,0.762939453125,-0.457763671875
1.4899999,0.48602294921875,-9.852140426635742,1.072602391242981,-0.1373291015625,0.8697509765625,0
1.5099999,0.49799394607543945,-9.852140426635742,1.0678139925003052,-0.030517578125,0.7171630859375,-0.5645751953125
1.5299999,0.4836287498474121,-9.854534149169922,1.0678139925003052,-0.0762939453125,0.518798828125,-0.7476806640625
1.5499999,0.49320554733276367,-9.854534149169922,1.070208191871643,-0.1983642578125,0.5035400390625,-0.518798828125
1.5699999,0.49559974670410156,-9.849745750427246,1.072602391242981,-0.3509521484375,0.6256103515625,-0.1678466796875
1.5899999,0.5123591423034668,-9.854534149169922,1.070208191871643,-0.18310546875,0.579833984375,-0.18310546875
1.6099999,0.4908113479614258,-9.873687744140625,1.048660397529602,-0.2288818359375,0.5950927734375,-0.1373291015625
1.6299999,0.47884035110473633,-9.880870819091797,1.0462661981582642,0.1678466796875,0.7171630859375,-0.8544921875
1.6499999,0.47405192255973816,-9.876082420349121,1.0438719987869263,-0.274658203125,0.48828125,-0.885009765625
1.6699999,0.4908113479614258,-9.859322547912598,1.0582371950149536,-0.640869140625,0.42724609375,-0.1983642578125
1.6899998999999999,0.5051765441894531,-9.856928825378418,1.070208191871643,0.0152587890625,0.8087158203125,-0.030517578125
1.7099999,0.5147533416748047,-9.864110946655273,1.0630255937576294,-0.2899169921875,0.5340576171875,-0.4119873046875
1.7299999,0.4884171485900879,-9.876082420349121,1.0534487962722778,-0.579833984375,0.335693359375,-0.30517578125
1.7499999,0.4908113479614258,-9.86650562286377,1.0606313943862915,0.244140625,0.6561279296875,-0.3204345703125
1.7699999,0.4836287498474121,-9.861717224121094,1.0630255937576294,-0.0762939453125,0.518798828125,-0.42724609375
1.7899999,0.49559974670410156,-9.86650562286377,1.0582371950149536,-0.6561279296875,0.335693359375,-0.518798828125
1.8099999,0.5123591423034668,-9.876082420349121,1.0558429956436157,-0.1678466796875,0.79345703125,-0.4119873046875
1.8299999,0.5051765441894531,-9.86889934539795,1.0630255937576294,-0.0762939453125,0.7476806640625,0.2288818359375
1.8499999,0.5195417404174805,-9.864110946655273,1.05105459690094,-0.274658203125,0.5340576171875,-0.2593994140625
1.8699999,0.5051765441894531,-9.854534149169922,1.070208191871643,-0.06103515625,0.640869140625,-0.8697509765625
1.8899999,0.4908113479614258,-9.86650562286377,1.070208191871643,-0.06103515625,0.6256103515625,-0.30517578125
1.9099999,0.47405192255973816,-9.871294021606445,1.0678139925003052,-0.54931640625,0.4119873046875,-0.244140625
1.9299998999999999,0.49320554733276367,-9.859322547912598,1.0797849893569946,-0.091552734375,0.640869140625,-0.579833984375
1.9499999,0.4908113479614258,-9.856928825378418,1.0678139925003052,-0.2899169921875,0.4425048828125,-0.518798828125
1.9699999,0.507570743560791,-9.873687744140625,1.048660397529602,-0.4425048828125,0.5950927734375,-0.3662109375
1.9899999,0.4908113479614258,-9.880870819091797,1.0414776802062988,0.213623046875,0.6866455078125,-0.335693359375
2.0099999,0.49320554733276367,-9.890447616577148,1.0438719987869263,-0.1983642578125,0.48828125,-0.396728515625
2.0299999,0.4908113479614258,-9.871294021606445,1.0582371950149536,-0.48828125,0.6866455078125,-0.4730224609375
2.0499999,0.5051765441894531,-9.852140426635742,1.072602391242981,0.06103515625,0.732421875,-0.5035400390625
2.0699999,0.507570743560791,-9.859322547912598,1.0773907899856567,-0.030517578125,0.4730224609375,-0.5340576171875
2.0899999,0.5027823448181152,-9.86650562286377,1.0606313943862915,-0.518798828125,0.54931640625,-0.335693359375
2.1099999,0.5099649429321289,-9.859322547912598,1.0749965906143188,0.152587890625,0.79345703125,-0.2899169921875
2.1299999,0.5147533416748047,-9.847352027893066,1.0797849893569946,-0.06103515625,0.6256103515625,-0.396728515625
2.1499999,0.5195417404174805,-9.84495735168457,1.072602391242981,-0.518798828125,0.4425048828125,-0.4425048828125
2.1699999,0.524330198764801,-9.856928825378418,1.0797849893569946,-0.1373291015625,0.67138671875,-0.48828125
2.1899999,0.49799394607543945,-9.880870819091797,1.048660397529602,0.06103515625,0.67138671875,-0.1068115234375
2.2099999,0.48602294921875,-9.888052940368652,1.0414776802062988,-0.1983642578125,0.5645751953125,-0.1220703125
2.2299999,0.4884171485900879,-9.86889934539795,1.036689281463623,0,0.640869140625,-0.67138671875
2.2499999,0.4884171485900879,-9.86650562286377,1.0438719987869263,-0.3204345703125,0.54931640625,-0.2593994140625
2.2699999,0.48602294921875,-9.876082420349121,1.036689281463623,-0.3662109375,0.54931640625,-0.18310546875
2.2899999,0.5051765441894531,-9.86650562286377,1.0606313943862915,-0.2288818359375,0.732421875,-0.3204345703125
2.3099999,0.49799394607543945,-9.873687744140625,1.0534487962722778,-0.244140625,0.732421875,-0.1373291015625
2.3299999,0.5195417404174805,-9.849745750427246,1.0582371950149536,0.0152587890625,0.701904296875,-0.18310546875
2.3499999,0.5171475410461426,-9.859322547912598,1.0678139925003052,0.335693359375,0.701904296875,-0.701904296875
2.3699999,0.5147533416748047,-9.871294021606445,1.0630255937576294,-0.2899169921875,0.42724609375,-0.48828125
2.3899999,0.5051765441894531,-9.871294021606445,1.072602391242981,-0.30517578125,0.5035400390625,-0.42724609375
2.4099999,0.5099649429321289,-9.864110946655273,1.0869675874710083,0.030517578125,0.67138671875,-0.2593994140625
2.4299999,0.5147533416748047,-9.859322547912598,1.0773907899856567,-0.1983642578125,0.457763671875,-0.42724609375
2.4499999,0.5219359993934631,-9.854534149169922,1.070208191871643,-0.1373291015625,0.67138671875,-0.518798828125
2.4699999,0.5003881454467773,-9.873687744140625,1.0630255937576294,0.18310546875,0.8087158203125,-0.274658203125
2.4899999,0.4884171485900879,-9.86889934539795,1.0582371950149536,-0.3204345703125,0.457763671875,-0.1678466796875
2.5099999,0.4812345504760742,-9.861717224121094,1.072602391242981,-0.30517578125,0.54931640625,-0.5035400390625
2.5299999,0.49320554733276367,-9.84495735168457,1.070208191871643,-0.030517578125,0.54931640625,-0.54931640625
2.5499999,0.5051765441894531,-9.854534149169922,1.0606313943862915,-0.30517578125,0.6103515625,-0.3204345703125
2.5699999,0.5027823448181152,-9.86650562286377,1.048660397529602,0,0.885009765625,-0.3509521484375
2.5899999,0.49320554733276367,-9.876082420349121,1.0462661981582642,0,0.6256103515625,-0.3814697265625
2.6099999,0.5051765441894531,-9.861717224121094,1.0630255937576294,-0.457763671875,0.518798828125,-0.274658203125
2.6299999,0.5099649429321289,-9.847352027893066,1.072602391242981,-0.2288818359375,0.640869140625,-0.396728515625
2.6499999,0.5219359993934631,-9.849745750427246,1.0797849893569946,0.1068115234375,0.7781982421875,-0.4425048828125
2.6699999,0.5195417404174805,-9.859322547912598,1.0582371950149536,-0.3204345703125,0.640869140625,-0.244140625
2.6899999,0.5051765441894531,-9.86889934539795,1.048660397529602,-0.18310546875,0.640869140625,-0.213623046875
2.7099999,0.49320554733276367,-9.86650562286377,1.0678139925003052,0.030517578125,0.5645751953125,-0.1220703125
2.7299999,0.5003881454467773,-9.849745750427246,1.0773907899856567,-0.54931640625,0.518798828125,-0.79345703125
2.7499999,0.49559974670410156,-9.864110946655273,1.0797849893569946,-0.457763671875,0.640869140625,-0.8697509765625
2.7699999,0.507570743560791,-9.849745750427246,1.0869675874710083,0.0762939453125,0.762939453125,-0.030517578125
2.7899999,0.49320554733276367,-9.890447616577148,1.0462661981582642,-0.1983642578125,0.518798828125,0.213623046875
2.8099999,0.5171475410461426,-9.856928825378418,1.05105459690094,-0.06103515625,0.5645751953125,-0.67138671875
2.8299999,0.49559974670410156,-9.871294021606445,1.0534487962722778,-0.06103515625,0.5950927734375,-0.8392333984375
2.8499999,0.5123591423034668,-9.86650562286377,1.0582371950149536,-0.42724609375,0.579833984375,-0.1373291015625
2.8699999,0.507570743560791,-9.871294021606445,1.072602391242981,-0.1983642578125,0.5645751953125,-0.2288818359375
2.8899999,0.507570743560791,-9.871294021606445,1.0654197931289673,-0.1068115234375,0.701904296875,-0.457763671875
2.9099999,0.5219359993934631,-9.852140426635742,1.070208191871643,-0.30517578125,0.54931640625,-0.48828125
2.9299999,0.5123591423034668,-9.832986831665039,1.072602391242981,-0.030517578125,0.7476806640625,-0.18310546875
2.9499999,0.5171475410461426,-9.813833236694336,1.0773907899856567,-0.1220703125,0.54931640625,-0.1373291015625
2.9699999,0.49559974670410156,-9.823410034179688,1.072602391242981,-0.5950927734375,0.5035400390625,-0.1983642578125
2.9899999,0.48602294921875,-9.828198432922363,1.0558429956436157,-0.3204345703125,0.457763671875,-0.518798828125
3.0099999,0.48602294921875,-9.835380554199219,1.0558429956436157,0.06103515625,0.6103515625,-0.6256103515625
3.0299999,0.49799394607543945,-9.84256362915039,1.0558429956436157,-0.30517578125,0.579833984375,-0.30517578125
3.0499999,0.5123591423034668,-9.861717224121094,1.0654197931289673,-0.244140625,0.6561279296875,-0.1220703125
3.0699999,0.5219359993934631,-9.880870819091797,1.0821791887283325,0.0762939453125,0.6866455078125,-0.2288818359375
3.0899999,0.5147533416748047,-9.911994934082031,1.0797849893569946,-0.18310546875,0.4119873046875,-0.67138671875
3.1099999,0.5051765441894531,-9.928754806518555,1.0630255937576294,-0.274658203125,0.6561279296875,-0.5950927734375
3.1299999,0.4908113479614258,-9.93354320526123,1.0534487962722778,-0.1068115234375,0.732421875,-0.1983642578125
3.1499999,0.48602294921875,-9.919178009033203,1.0438719987869263,-0.0457763671875,0.640869140625,-0.1373291015625
3.1699999,0.47644615173339844,-9.892841339111328,1.039083480834961,-0.2288818359375,0.518798828125,-0.42724609375
3.1899999,0.4908113479614258,-9.847352027893066,1.0630255937576294,-0.18310546875,0.640869140625,-0.6256103515625
3.2099999,0.507570743560791,-9.813833236694336,1.0821791887283325,-0.1220703125,0.7171630859375,-0.30517578125
3.2299999,0.5219359993934631,-9.818621635437012,1.0893617868423462,-0.213623046875,0.6103515625,-0.274658203125
3.2499999,0.5339069962501526,-9.840168952941895,1.0821791887283325,-0.213623046875,0.579833984375,-0.54931640625
3.2699999,0.5267243981361389,-9.880870819091797,1.0630255937576294,-0.152587890625,0.6561279296875,-0.457763671875
3.2899999,0.5171475410461426,-9.897629737854004,1.0558429956436157,-0.0762939453125,0.701904296875,-0.152587890625
3.3099999,0.5003881454467773,-9.880870819091797,1.0558429956436157,-0.1983642578125,0.6103515625,-0.0152587890625
3.3299999000000002,0.524330198764801,-9.84495735168457,1.0749965906143188,-0.3204345703125,0.5035400390625,-0.42724609375
3.3499999,0.5123591423034668,-9.84495735168457,1.0869675874710083,-0.030517578125,0.7781982421875,-0.5340576171875
3.3699999,0.5219359993934631,-9.854534149169922,1.0773907899856567,-0.1373291015625,0.67138671875,-0.335693359375
3.3899999,0.5219359993934631,-9.8784761428833,1.070208191871643,-0.42724609375,0.54931640625,-0.1220703125
3.4099999,0.49559974670410156,-9.888052940368652,1.0630255937576294,-0.030517578125,0.7476806640625,-0.213623046875
3.4299999,0.5003881454467773,-9.864110946655273,1.070208191871643,-0.0457763671875,0.5340576171875,-0.457763671875
3.4499999,0.5051765441894531,-9.849745750427246,1.0654197931289673,-0.3204345703125,0.48828125,-0.67138671875
3.4699999,0.5003881454467773,-9.864110946655273,1.0582371950149536,-0.1983642578125,0.732421875,-0.244140625
3.4899999,0.5123591423034668,-9.871294021606445,1.0606313943862915,0.0152587890625,0.823974609375,-0.18310546875
3.5099999,0.49559974670410156,-9.890447616577148,1.0630255937576294,-0.335693359375,0.48828125,-0.42724609375
3.5299999,0.4836287498474121,-9.873687744140625,1.072602391242981,-0.42724609375,0.4730224609375,-0.6256103515625
3.5499999,0.5051765441894531,-9.84495735168457,1.0869675874710083,-0.1373291015625,0.6561279296875,-0.4730224609375
3.5699999,0.5003881454467773,-9.859322547912598,1.0821791887283325,-0.1373291015625,0.5950927734375,-0.213623046875
3.5899999,0.524330198764801,-9.86650562286377,1.0654197931289673,-0.3814697265625,0.5950927734375,-0.274658203125
3.6099999,0.5219359993934631,-9.888052940368652,1.0606313943862915,-0.091552734375,0.732421875,-0.3662109375
3.6299999,0.507570743560791,-9.883264541625977,1.0534487962722778,-0.0457763671875,0.640869140625,-0.274658203125
3.6499999,0.5219359993934631,-9.852140426635742,1.0606313943862915,-0.396728515625,0.42724609375,-0.2899169921875
3.6699999,0.5051765441894531,-9.854534149169922,1.0606313943862915,-0.2593994140625,0.6866455078125,-0.30517578125
3.6899999,0.5099649429321289,-9.859322547912598,1.0606313943862915,-0.1068115234375,0.7476806640625,-0.3814697265625
3.7099999,0.5003881454467773,-9.880870819091797,1.0582371950149536,-0.1983642578125,0.6103515625,-0.48828125
3.7299999,0.5051765441894531,-9.873687744140625,1.0582371950149536,-0.274658203125,0.6256103515625,-0.274658203125
3.7499999,0.507570743560791,-9.856928825378418,1.0606313943862915,-0.06103515625,0.579833984375,-0.0762939453125
3.7699999,0.5267243981361389,-9.837775230407715,1.0749965906143188,0.1373291015625,0.640869140625,-0.396728515625
3.7899999,0.5267243981361389,-9.859322547912598,1.0678139925003052,-0.4119873046875,0.5950927734375,-0.5340576171875
3.8099999,0.49799394607543945,-9.880870819091797,1.0630255937576294,0,0.7781982421875,0.0762939453125
3.8299999000000002,0.5051765441894531,-9.859322547912598,1.0558429956436157,-0.2288818359375,0.5035400390625,-0.091552734375
3.8499999,0.5051765441894531,-9.849745750427246,1.0654197931289673,-0.213623046875,0.6103515625,-0.6256103515625
3.8699999,0.5003881454467773,-9.861717224121094,1.0606313943862915,-0.0457763671875,0.762939453125,-0.579833984375
3.8899999,0.5171475410461426,-9.86650562286377,1.0797849893569946,-0.1220703125,0.762939453125,-0.335693359375
3.9099999,0.5051765441894531,-9.880870819091797,1.0821791887283325,-0.6103515625,0.396728515625,-0.1678466796875
3.9299999,0.5099649429321289,-9.854534149169922,1.0869675874710083,-0.2288818359375,0.640869140625,-0.30517578125
3.9499999,0.5147533416748047,-9.840168952941895,1.0869675874710083,-0.1220703125,0.7171630859375,-0.4119873046875
3.9699999,0.507570743560791,-9.840168952941895,1.070208191871643,-0.30517578125,0.5340576171875,-0.4425048828125
3.9899999,0.5099649429321289,-9.86650562286377,1.0606313943862915,-0.335693359375,0.54931640625,-0.3204345703125
4.0099999,0.5027823448181152,-9.8784761428833,1.0630255937576294,-0.1068115234375,0.732421875,-0.2593994140625
4.029999900000001,0.49320554733276367,-9.871294021606445,1.0582371950149536,-0.030517578125,0.4730224609375,-0.4425048828125
4.0499999,0.5123591423034668,-9.852140426635742,1.0654197931289673,-0.5035400390625,0.335693359375,-0.457763671875
4.069999900000001,0.5195417404174805,-9.837775230407715,1.0678139925003052,-0.0762939453125,0.79345703125,-0.2593994140625
4.0899999000000005,0.5171475410461426,-9.856928825378418,1.05105459690094,-0.0457763671875,0.7171630859375,0
4.1099999,0.5195417404174805,-9.864110946655273,1.0630255937576294,-0.274658203125,0.54931640625,-0.3204345703125
4.1299999000000005,0.5003881454467773,-9.876082420349121,1.0582371950149536,-0.244140625,0.6561279296875,-0.5950927734375
4.1499999,0.5099649429321289,-9.84495735168457,1.070208191871643,0,0.762939453125,-0.2288818359375
4.1699999000000005,0.5171475410461426,-9.84256362915039,1.0773907899856567,-0.030517578125,0.54931640625,-0.1983642578125
4.1899999,0.5099649429321289,-9.861717224121094,1.05105459690094,-0.4425048828125,0.48828125,-0.3509521484375
4.209999900000001,0.5267243981361389,-9.86650562286377,1.0678139925003052,0.1373291015625,0.762939453125,-0.335693359375
4.2299999,0.49559974670410156,-9.892841339111328,1.0558429956436157,0.0152587890625,0.6561279296875,-0.1983642578125
4.249999900000001,0.5147533416748047,-9.861717224121094,1.0821791887283325,-0.42724609375,0.6103515625,-0.18310546875
4.2699999,0.5195417404174805,-9.84495735168457,1.0821791887283325,-0.2593994140625,0.579833984375,-0.2899169921875
4.289999900000001,0.5171475410461426,-9.852140426635742,1.0797849893569946,0.1068115234375,0.7781982421875,-0.0762939453125
4.3099999,0.5147533416748047,-9.86889934539795,1.0654197931289673,-0.0457763671875,0.457763671875,-0.5340576171875
4.329999900000001,0.5099649429321289,-9.888052940368652,1.0582371950149536,-0.518798828125,0.4730224609375,-0.579833984375
4.3499999,0.5051765441894531,-9.880870819091797,1.070208191871643,-0.0152587890625,0.823974609375,-0.1983642578125
4.369999900000001,0.5219359993934631,-9.847352027893066,1.0845733880996704,-0.1220703125,0.6256103515625,0.06103515625
4.3899999,0.524330198764801,-9.854534149169922,1.0797849893569946,-0.3509521484375,0.518798828125,-0.3662109375
4.409999900000001,0.524330198764801,-9.859322547912598,1.0678139925003052,-0.1068115234375,0.48828125,-0.5340576171875
4.4299999,0.507570743560791,-9.885659217834473,1.05105459690094,0.1068115234375,0.8544921875,-0.0762939453125
4.449999900000001,0.49320554733276367,-9.8784761428833,1.0438719987869263,-0.1983642578125,0.518798828125,-0.1373291015625
4.4699999,0.5051765441894531,-9.854534149169922,1.0606313943862915,-0.640869140625,0.5645751953125,-0.2899169921875
4.489999900000001,0.507570743560791,-9.84256362915039,1.0749965906143188,-0.091552734375,0.6866455078125,-0.54931640625
4.5099999,0.5219359993934631,-9.84256362915039,1.0773907899856567,-0.1373291015625,0.5340576171875,-0.3662109375
4.529999900000001,0.5291185975074768,-9.86650562286377,1.0678139925003052,-0.30517578125,0.6561279296875,-0.3509521484375
4.5499999,0.5147533416748047,-9.8784761428833,1.0582371950149536,-0.1220703125,0.6866455078125,-0.3662109375
4.569999900000001,0.5099649429321289,-9.861717224121094,1.0582371950149536,-0.06103515625,0.8392333984375,-0.244140625
4.5899999000000005,0.5147533416748047,-9.852140426635742,1.0630255937576294,-0.274658203125,0.18310546875,-0.457763671875
4.609999900000001,0.49559974670410156,-9.861717224121094,1.0654197931289673,-0.3509521484375,0.5340576171875,-0.5950927734375
4.6299999000000005,0.5099649429321289,-9.876082420349121,1.0606313943862915,-0.06103515625,0.79345703125,-0.3662109375
4.6499999,0.507570743560791,-9.890447616577148,1.0606313943862915,-0.152587890625,0.5340576171875,-0.1220703125
4.6699999000000005,0.5003881454467773,-9.8784761428833,1.0678139925003052,-0.0762939453125,0.518798828125,-0.457763671875
4.6899999,0.5219359993934631,-9.84495735168457,1.072602391242981,-0.1678466796875,0.42724609375,-0.67138671875
4.709999900000001,0.5099649429321289,-9.837775230407715,1.0821791887283325,-0.06103515625,0.946044921875,-0.457763671875
4.7299999,0.5027823448181152,-9.852140426635742,1.0558429956436157,-0.30517578125,0.48828125,-0.3662109375
4.749999900000001,0.5099649429321289,-9.86889934539795,1.0654197931289673,-0.335693359375,0.5645751953125,-0.4425048828125
4.7699999,0.4884171485900879,-9.883264541625977,1.0534487962722778,0.030517578125,0.701904296875,-0.4119873046875
4.789999900000001,0.5003881454467773,-9.854534149169922,1.0630255937576294,0,0.54931640625,-0.5950927734375
4.8099999,0.5195417404174805,-9.84256362915039,1.072602391242981,-0.3814697265625,0.6103515625,-0.6561279296875
4.829999900000001,0.5195417404174805,-9.840168952941895,1.072602391242981,-0.30517578125,0.640869140625,-0.4425048828125
4.8499999,0.5267243981361389,-9.859322547912598,1.0749965906143188,0.18310546875,0.701904296875,-0.457763671875
4.869999900000001,0.5291185975074768,-9.880870819091797,1.0630255937576294,-0.244140625,0.30517578125,-0.579833984375
4.8899999,0.507570743560791,-9.892841339111328,1.05105459690094,0.152587890625,0.48828125,-0.518798828125
4.909999900000001,0.5195417404174805,-9.873687744140625,1.0654197931289673,0.30517578125,0.8392333984375,-0.54931640625
4.9299999,0.5027823448181152,-9.852140426635742,1.05105459690094,-0.8392333984375,0.457763671875,-0.2593994140625
4.949999900000001,0.524330198764801,-9.849745750427246,1.0678139925003052,-0.335693359375,0.4730224609375,-0.640869140625
4.9699999,0.49320554733276367,-9.856928825378418,1.0558429956436157,0.274658203125,0.91552734375,-0.5645751953125
4.989999900000001,0.5171475410461426,-9.84495735168457,1.070208191871643,-0.3662109375,0.6561279296875,-0.18310546875
5.0099999,0.5171475410461426,-9.859322547912598,1.0606313943862915,-0.7171630859375,0.2899169921875,-0.3204345703125
5.029999900000001,0.5291185975074768,-9.84495735168457,1.0845733880996704,0.030517578125,0.732421875,-0.6561279296875
5.0499999,0.5315127968788147,-9.849745750427246,1.072602391242981,-0.1220703125,0.5950927734375,-0.0762939453125
5.069999900000001,0.5267243981361389,-9.854534149169922,1.0821791887283325,-0.30517578125,0.457763671875,-0.4425048828125
5.0899999000000005,0.5267243981361389,-9.871294021606445,1.070208191871643,-0.1220703125,0.67138671875,-0.946044921875
5.109999900000001,0.5267243981361389,-9.854534149169922,1.072602391242981,-0.0152587890625,0.5645751953125,-0.3509521484375
5.1299999000000005,0.5386953949928284,-9.871294021606445,1.070208191871643,-0.42724609375,0.5645751953125,-0.1678466796875
5.1499999,0.5291185975074768,-9.86889934539795,1.05105459690094,-0.0762939453125,0.5645751953125,-0.518798828125
5.1699999000000005,0.5195417404174805,-9.873687744140625,1.0654197931289673,-0.091552734375,0.5645751953125,-0.42724609375
5.1899999,0.5099649429321289,-9.873687744140625,1.0558429956436157,-0.244140625,0.7171630859375,-0.457763671875
5.209999900000001,0.5123591423034668,-9.856928825378418,1.0582371950149536,-0.1373291015625,0.7476806640625,-0.4730224609375
5.2299999,0.5171475410461426,-9.856928825378418,1.0414776802062988,-0.0457763671875,0.4730224609375,-0.4730224609375
5.249999900000001,0.5363011956214905,-9.859322547912598,1.0414776802062988,-0.518798828125,0.4425048828125,-0.335693359375
5.2699999,0.5219359993934631,-9.871294021606445,1.039083480834961,-0.152587890625,0.732421875,-0.3509521484375
5.289999900000001,0.5434837937355042,-9.856928825378418,1.0773907899856567,-0.0457763671875,0.5340576171875,-0.457763671875
5.3099999,0.545877993106842,-9.849745750427246,1.0797849893569946,-0.518798828125,0.5035400390625,-0.518798828125
5.329999900000001,0.5410895943641663,-9.832986831665039,1.0821791887283325,-0.1373291015625,0.762939453125,-0.396728515625
5.3499999,0.5339069962501526,-9.849745750427246,1.0654197931289673,0.152587890625,0.5035400390625,-0.1220703125
5.369999900000001,0.507570743560791,-9.876082420349121,1.0462661981582642,-0.457763671875,0.518798828125,-0.3662109375
5.3899999,0.507570743560791,-9.883264541625977,1.0534487962722778,-0.3662109375,0.67138671875,-0.5645751953125
5.409999900000001,0.5386953949928284,-9.871294021606445,1.070208191871643,-0.091552734375,0.6561279296875,-0.0762939453125
5.4299999,0.5386953949928284,-9.859322547912598,1.070208191871643,-0.152587890625,0.640869140625,0.1220703125
5.449999900000001,0.5530605912208557,-9.84256362915039,1.0773907899856567,0.1373291015625,0.79345703125,-0.42724609375
5.4699999,0.5171475410461426,-9.864110946655273,1.0630255937576294,-0.1678466796875,0.4425048828125,-0.762939453125
5.489999900000001,0.5051765441894531,-9.864110946655273,1.0558429956436157,-0.4730224609375,0.54931640625,-0.3204345703125
5.5099999,0.5051765441894531,-9.8784761428833,1.070208191871643,0,0.79345703125,0.0457763671875
5.529999900000001,0.5315127968788147,-9.849745750427246,1.0678139925003052,-0.0762939453125,0.640869140625,-0.1220703125
5.5499999,0.5363011956214905,-9.864110946655273,1.072602391242981,-0.457763671875,0.5950927734375,-0.5645751953125
5.569999900000001,0.5482721924781799,-9.849745750427246,1.0773907899856567,0.1068115234375,0.762939453125,-0.5645751953125
5.5899999000000005,0.5195417404174805,-9.873687744140625,1.0534487962722778,-0.1220703125,0.4730224609375,-0.1678466796875
5.609999900000001,0.5339069962501526,-9.861717224121094,1.0606313943862915,-0.5035400390625,0.5950927734375,-0.1068115234375
5.6299999000000005,0.5195417404174805,-9.852140426635742,1.0558429956436157,0.0152587890625,0.701904296875,-0.518798828125
5.6499999,0.5315127968788147,-9.84256362915039,1.0654197931289673,-0.0762939453125,0.6103515625,-0.6256103515625
5.6699999000000005,0.5291185975074768,-9.859322547912598,1.048660397529602,-0.42724609375,0.6256103515625,-0.3204345703125
5.6899999,0.5339069962501526,-9.861717224121094,1.0749965906143188,0.2288818359375,0.9002685546875,-0.18310546875
5.709999900000001,0.5195417404174805,-9.876082420349121,1.0582371950149536,-0.3204345703125,0.396728515625,-0.2593994140625
5.7299999,0.5386953949928284,-9.854534149169922,1.0821791887283325,-0.5035400390625,0.4730224609375,-0.6256103515625
5.749999900000001,0.5315127968788147,-9.84495735168457,1.0749965906143188,0.1220703125,0.701904296875,-0.3509521484375
5.7699999,0.5363011956214905,-9.849745750427246,1.0630255937576294,-0.152587890625,0.762939453125,-0.1678466796875
5.789999900000001,0.5195417404174805,-9.876082420349121,1.0319008827209473,-0.3662109375,0.701904296875,-0.18310546875
5.8099999,0.5147533416748047,-9.8784761428833,1.0582371950149536,0.2593994140625,0.823974609375,-0.30517578125
5.829999900000001,0.507570743560791,-9.86889934539795,1.0558429956436157,-0.3662109375,0.6256103515625,-0.1373291015625
5.8499999,0.524330198764801,-9.852140426635742,1.0869675874710083,-0.30517578125,0.7171630859375,-0.3204345703125
5.869999900000001,0.5339069962501526,-9.835380554199219,1.0869675874710083,-0.06103515625,0.6103515625,-0.48828125
5.8899999,0.5339069962501526,-9.854534149169922,1.0678139925003052,-0.1220703125,0.6561279296875,-0.3509521484375
5.909999900000001,0.524330198764801,-9.861717224121094,1.05105459690094,-0.244140625,0.6256103515625,0.06103515625
5.9299999,0.5171475410461426,-9.852140426635742,1.0654197931289673,0.3204345703125,0.6561279296875,-0.48828125
5.949999900000001,0.5291185975074768,-9.849745750427246,1.070208191871643,-0.5035400390625,0.5035400390625,-0.5950927734375
5.9699999,0.5315127968788147,-9.840168952941895,1.0797849893569946,-0.30517578125,0.6866455078125,-0.396728515625
5.989999900000001,0.5339069962501526,-9.86650562286377,1.0773907899856567,0.0457763671875,0.6256103515625,-0.030517578125
6.0099999,0.5147533416748047,-9.885659217834473,1.0462661981582642,-0.3204345703125,0.4730224609375,-0.1983642578125
6.029999900000001,0.4884171485900879,-9.907206535339355,1.0199298858642578,-0.244140625,0.67138671875,-0.42724609375
6.0499999,0.5003881454467773,-9.8784761428833,1.048660397529602,0.335693359375,0.6866455078125,-0.4425048828125
6.069999900000001,0.5147533416748047,-9.861717224121094,1.05105459690094,-0.457763671875,0.4425048828125,-0.2593994140625
6.0899999000000005,0.5482721924781799,-9.830592155456543,1.091755986213684,-0.18310546875,0.8087158203125,-0.335693359375
6.109999900000001,0.5506663918495178,-9.84256362915039,1.1061211824417114,0,0.701904296875,-0.1068115234375
6.1299999000000005,0.5363011956214905,-9.852140426635742,1.0989385843276978,-0.152587890625,0.7171630859375,-0.274658203125
6.149999900000001,0.5051765441894531,-9.883264541625977,1.070208191871643,-0.274658203125,0.67138671875,-0.5645751953125
6.1699999000000005,0.5219359993934631,-9.86650562286377,1.0773907899856567,0.0457763671875,0.6256103515625,-0.2899169921875
6.1899999,0.5363011956214905,-9.861717224121094,1.0749965906143188,-0.3204345703125,0.640869140625,-0.1068115234375
6.209999900000001,0.5482721924781799,-9.852140426635742,1.070208191871643,-0.1678466796875,0.762939453125,-0.3814697265625
6.2299999,0.5554547905921936,-9.861717224121094,1.091755986213684,-0.1373291015625,0.6866455078125,-0.2899169921875
6.249999900000001,0.5315127968788147,-9.871294021606445,1.0773907899856567,-0.213623046875,0.5950927734375,-0.1220703125
6.2699999,0.5027823448181152,-9.888052940368652,1.0582371950149536,-0.1068115234375,0.6561279296875,-0.3509521484375
6.289999900000001,0.5171475410461426,-9.86889934539795,1.0558429956436157,0.06103515625,0.518798828125,-0.457763671875
6.3099999,0.5171475410461426,-9.864110946655273,1.0414776802062988,-0.4119873046875,0.6866455078125,-0.3814697265625
6.329999900000001,0.5267243981361389,-9.864110946655273,1.048660397529602,-0.1678466796875,0.79345703125,-0.2899169921875
6.3499999,0.5339069962501526,-9.859322547912598,1.070208191871643,-0.1373291015625,0.518798828125,-0.18310546875
6.369999900000001,0.5147533416748047,-9.871294021606445,1.0654197931289673,-0.42724609375,0.54931640625,-0.30517578125
6.3899999,0.5339069962501526,-9.835380554199219,1.091755986213684,0.091552734375,0.8392333984375,-0.5645751953125
6.409999900000001,0.5123591423034668,-9.852140426635742,1.070208191871643,0,0.5950927734375,-0.3662109375
6.4299999,0.5386953949928284,-9.830592155456543,1.0821791887283325,-0.4425048828125,0.48828125,-0.2899169921875
6.449999900000001,0.5219359993934631,-9.859322547912598,1.0654197931289673,-0.1220703125,0.7476806640625,-0.1983642578125
6.4699999,0.5171475410461426,-9.864110946655273,1.0654197931289673,-0.18310546875,0.5950927734375,-0.18310546875
6.489999900000001,0.524330198764801,-9.86650562286377,1.0678139925003052,-0.30517578125,0.54931640625,-0.30517578125
6.5099999,0.5339069962501526,-9.84495735168457,1.091755986213684,0.0762939453125,0.79345703125,-0.3204345703125
6.529999900000001,0.5267243981361389,-9.84495735168457,1.0773907899856567,-0.244140625,0.3509521484375,-0.1983642578125
6.5499999,0.5339069962501526,-9.859322547912598,1.0678139925003052,-0.3814697265625,0.2899169921875,-0.6561279296875
6.569999900000001,0.5099649429321289,-9.885659217834473,1.048660397529602,-0.1068115234375,0.8544921875,-0.3509521484375
6.5899999000000005,0.5027823448181152,-9.9000244140625,1.0342950820922852,-0.0762939453125,0.732421875,0.06103515625
6.609999900000001,0.5219359993934631,-9.876082420349121,1.048660397529602,-0.42724609375,0.67138671875,0.0152587890625
6.6299999000000005,0.5410895943641663,-9.847352027893066,1.0965443849563599,0.274658203125,0.8392333984375,-0.67138671875
6.649999900000001,0.5554547905921936,-9.837775230407715,1.0845733880996704,-0.396728515625,0.5035400390625,-0.396728515625
6.6699999000000005,0.5482721924781799,-9.847352027893066,1.091755986213684,-0.5950927734375,0.48828125,-0.1220703125
6.6899999,0.5363011956214905,-9.86650562286377,1.0773907899856567,-0.0762939453125,0.640869140625,0.06103515625
6.709999900000001,0.5099649429321289,-9.864110946655273,1.0606313943862915,-0.2288818359375,0.67138671875,-0.213623046875
6.7299999,0.5147533416748047,-9.856928825378418,1.0462661981582642,-0.2288818359375,0.6561279296875,-0.5645751953125
6.749999900000001,0.524330198764801,-9.84256362915039,1.0845733880996704,0.2899169921875,0.762939453125,-0.6103515625
6.7699999,0.5123591423034668,-9.871294021606445,1.0414776802062988,-0.518798828125,0.518798828125,0.1220703125
6.789999900000001,0.5171475410461426,-9.876082420349121,1.0654197931289673,-0.335693359375,0.579833984375,0.091552734375
6.8099999,0.5003881454467773,-9.880870819091797,1.0414776802062988,0.0762939453125,0.6256103515625,-0.274658203125
6.829999900000001,0.5003881454467773,-9.876082420349121,1.039083480834961,-0.274658203125,0.6561279296875,-0.48828125
6.8499999,0.5123591423034668,-9.864110946655273,1.015141487121582,-0.30517578125,0.6866455078125,-0.30517578125
6.869999900000001,0.5195417404174805,-9.86889934539795,1.048660397529602,0.2593994140625,0.7781982421875,-0.030517578125
6.8899999,0.5219359993934631,-9.856928825378418,1.0558429956436157,-0.5645751953125,0.54931640625,0.0152587890625
6.909999900000001,0.524330198764801,-9.847352027893066,1.094150185585022,-0.3509521484375,0.5645751953125,-0.6561279296875
6.9299999,0.5219359993934631,-9.837775230407715,1.1037269830703735,-0.0457763671875,0.6561279296875,-0.6256103515625
6.949999900000001,0.5386953949928284,-9.828198432922363,1.0965443849563599,-0.06103515625,0.6256103515625,-0.1983642578125
6.9699999,0.5386953949928284,-9.859322547912598,1.072602391242981,-0.2593994140625,0.701904296875,-0.0762939453125
6.989999900000001,0.5171475410461426,-9.861717224121094,1.0630255937576294,0.3814697265625,0.8697509765625,-0.213623046875
7.0099999,0.5099649429321289,-9.880870819091797,1.0654197931289673,-0.457763671875,0.396728515625,-0.42724609375
7.029999900000001,0.49799394607543945,-9.864110946655273,1.0582371950149536,-0.335693359375,0.5340576171875,-0.640869140625
7.0499999,0.5099649429321289,-9.864110946655273,1.070208191871643,-0.0152587890625,0.8087158203125,-0.1678466796875
7.069999900000001,0.524330198764801,-9.86650562286377,1.0414776802062988,-0.244140625,0.7476806640625,0.152587890625
7.0899999000000005,0.5123591423034668,-9.897629737854004,1.0223240852355957,-0.1983642578125,0.8087158203125,-0.1678466796875
7.109999900000001,0.5051765441894531,-9.888052940368652,1.0319008827209473,0.2593994140625,0.5950927734375,-0.4425048828125
7.1299999000000005,0.5051765441894531,-9.880870819091797,1.0462661981582642,-0.6561279296875,0.457763671875,-0.274658203125
7.149999900000001,0.5195417404174805,-9.849745750427246,1.0869675874710083,-0.3509521484375,0.640869140625,-0.2899169921875
7.1699999000000005,0.5363011956214905,-9.828198432922363,1.1061211824417114,-0.06103515625,0.5340576171875,-0.0762939453125
7.1899999,0.545877993106842,-9.835380554199219,1.0989385843276978,-0.3509521484375,0.518798828125,-0.06103515625
7.209999900000001,0.5099649429321289,-9.871294021606445,1.0654197931289673,-0.152587890625,0.762939453125,-0.274658203125
7.2299999,0.507570743560791,-9.871294021606445,1.070208191871643,0.152587890625,0.5645751953125,-0.3509521484375
7.249999900000001,0.5219359993934631,-9.86889934539795,1.0678139925003052,-0.7476806640625,0.4119873046875,-0.2288818359375
7.2699999,0.5363011956214905,-9.852140426635742,1.0893617868423462,-0.30517578125,0.732421875,-0.2288818359375
7.289999900000001,0.5506663918495178,-9.837775230407715,1.0965443849563599,0.06103515625,0.7171630859375,-0.1068115234375
7.3099999,0.5339069962501526,-9.854534149169922,1.0797849893569946,-0.30517578125,0.579833984375,-0.3509521484375
7.329999900000001,0.49559974670410156,-9.86889934539795,1.0414776802062988,-0.0762939453125,0.79345703125,-0.4425048828125
7.3499999,0.4908113479614258,-9.86889934539795,1.036689281463623,0.1068115234375,0.762939453125,-0.1678466796875
7.369999900000001,0.4908113479614258,-9.871294021606445,1.0295066833496094,-0.5035400390625,0.579833984375,-0.1068115234375
7.3899999,0.5123591423034668,-9.847352027893066,1.0534487962722778,-0.18310546875,0.6866455078125,-0.6103515625
7.409999900000001,0.507570743560791,-9.876082420349121,1.070208191871643,-0.3204345703125,0.5645751953125,-0.1373291015625
7.4299999,0.5195417404174805,-9.861717224121094,1.0845733880996704,0.1678466796875,0.885009765625,-0.213623046875
7.449999900000001,0.507570743560791,-9.859322547912598,1.070208191871643,0.0457763671875,0.457763671875,-0.1220703125
7.4699999,0.524330198764801,-9.825803756713867,1.0749965906143188,-0.457763671875,0.3662109375,-0.640869140625
7.489999900000001,0.5315127968788147,-9.832986831665039,1.0773907899856567,-0.2288818359375,0.7781982421875,-0.67138671875
7.5099999,0.5219359993934631,-9.852140426635742,1.0630255937576294,-0.06103515625,0.7476806640625,-0.18310546875
7.529999900000001,0.5171475410461426,-9.880870819091797,1.05105459690094,-0.30517578125,0.640869140625,-0.0762939453125
7.5499999,0.5219359993934631,-9.86650562286377,1.0797849893569946,0.152587890625,0.7781982421875,-0.48828125
7.569999900000001,0.5123591423034668,-9.856928825378418,1.0654197931289673,-0.213623046875,0.4425048828125,-0.5340576171875
7.5899999000000005,0.5195417404174805,-9.837775230407715,1.070208191871643,-0.3814697265625,0.5340576171875,-0.4730224609375
7.609999900000001,0.5339069962501526,-9.835380554199219,1.0582371950149536,-0.06103515625,0.640869140625,-0.30517578125
7.6299999000000005,0.5051765441894531,-9.873687744140625,1.036689281463623,-0.1373291015625,0.5950927734375,-0.2288818359375
7.649999900000001,0.5147533416748047,-9.880870819091797,1.0271124839782715,-0.3814697265625,0.5645751953125,-0.335693359375
7.6699999000000005,0.5123591423034668,-9.8784761428833,1.0821791887283325,0.244140625,0.7781982421875,-0.54931640625
7.6899999,0.5195417404174805,-9.864110946655273,1.0773907899856567,-0.3509521484375,0.4730224609375,-0.335693359375
7.709999900000001,0.5386953949928284,-9.852140426635742,1.091755986213684,-0.3814697265625,0.5035400390625,-0.396728515625
7.7299999,0.5434837937355042,-9.859322547912598,1.0893617868423462,0.0762939453125,0.732421875,-0.244140625
7.749999900000001,0.524330198764801,-9.8784761428833,1.048660397529602,-0.1678466796875,0.6256103515625,-0.1678466796875
7.7699999,0.5147533416748047,-9.892841339111328,1.0342950820922852,-0.244140625,0.67138671875,-0.30517578125
7.789999900000001,0.524330198764801,-9.859322547912598,1.070208191871643,0.396728515625,0.823974609375,-0.5340576171875
7.8099999,0.524330198764801,-9.849745750427246,1.0582371950149536,-0.4730224609375,0.518798828125,-0.2899169921875
7.829999900000001,0.5410895943641663,-9.849745750427246,1.0773907899856567,-0.30517578125,0.6256103515625,-0.30517578125
7.8499999,0.5171475410461426,-9.86650562286377,1.0534487962722778,0.06103515625,0.6866455078125,-0.3204345703125
7.869999900000001,0.5051765441894531,-9.888052940368652,1.0414776802062988,-0.274658203125,0.6561279296875,-0.213623046875
7.8899999,0.5123591423034668,-9.8784761428833,1.0319008827209473,-0.3814697265625,0.732421875,-0.4425048828125
7.909999900000001,0.5219359993934631,-9.849745750427246,1.072602391242981,0.4730224609375,0.7781982421875,-0.457763671875
7.9299999,0.5291185975074768,-9.84256362915039,1.0845733880996704,-0.3814697265625,0.54931640625,-0.091552734375
7.949999900000001,0.5195417404174805,-9.854534149169922,1.094150185585022,-0.30517578125,0.67138671875,-0.762939453125
7.9699999,0.507570743560791,-9.856928825378418,1.094150185585022,0,0.701904296875,-0.3509521484375
7.989999900000001,0.5051765441894531,-9.861717224121094,1.070208191871643,-0.18310546875,0.5035400390625,-0.06103515625
8.0099999,0.5267243981361389,-9.852140426635742,1.0582371950149536,-0.3204345703125,0.5950927734375,-0.3509521484375
8.0299999,0.5219359993934631,-9.849745750427246,1.0606313943862915,0.2899169921875,0.6256103515625,-0.6256103515625
8.049999900000001,0.5339069962501526,-9.86650562286377,1.0630255937576294,-0.5340576171875,0.5035400390625,-0.2288818359375
8.069999900000001,0.5123591423034668,-9.8784761428833,1.0678139925003052,-0.213623046875,0.67138671875,-0.213623046875
8.0899999,0.5171475410461426,-9.871294021606445,1.072602391242981,0.0457763671875,0.5950927734375,-0.335693359375
8.1099999,0.5195417404174805,-9.876082420349121,1.0534487962722778,-0.3204345703125,0.5645751953125,-0.2593994140625
8.129999900000001,0.524330198764801,-9.871294021606445,1.0319008827209473,-0.1220703125,0.7476806640625,-0.213623046875
8.149999900000001,0.5147533416748047,-9.873687744140625,1.036689281463623,0.396728515625,0.6103515625,-0.396728515625
8.1699999,0.5147533416748047,-9.885659217834473,1.0462661981582642,-0.67138671875,0.3509521484375,-0.4425048828125
8.1899999,0.5051765441894531,-9.871294021606445,1.0654197931289673,-0.244140625,0.640869140625,-0.2288818359375
8.2099999,0.5291185975074768,-9.84495735168457,1.1013327836990356,0,0.6561279296875,-0.0152587890625
8.229999900000001,0.5434837937355042,-9.825803756713867,1.1109095811843872,-0.30517578125,0.4730224609375,-0.2288818359375
8.2499999,0.5434837937355042,-9.80904483795166,1.091755986213684,0.06103515625,0.7476806640625,-0.579833984375
8.2699999,0.5339069962501526,-9.832986831665039,1.094150185585022,0.1678466796875,0.579833984375,-0.48828125
8.2899999,0.5147533416748047,-9.864110946655273,1.0654197931289673,-0.579833984375,0.42724609375,-0.2593994140625
8.309999900000001,0.49799394607543945,-9.895236015319824,1.0678139925003052,-0.1373291015625,0.79345703125,-0.1068115234375
8.3299999,0.5099649429321289,-9.888052940368652,1.0821791887283325,0.0457763671875,0.7476806640625,-0.274658203125
8.3499999,0.5195417404174805,-9.8784761428833,1.072602391242981,-0.3814697265625,0.5645751953125,-0.42724609375
8.3699999,0.5051765441894531,-9.854534149169922,1.0749965906143188,0.1220703125,0.762939453125,-0.5340576171875
8.389999900000001,0.5123591423034668,-9.876082420349121,1.0438719987869263,-0.091552734375,0.42724609375,-0.4730224609375
8.4099999,0.49799394607543945,-9.859322547912598,1.0438719987869263,-0.79345703125,0.5035400390625,-0.091552734375
8.4299999,0.5027823448181152,-9.890447616577148,1.0438719987869263,0.0762939453125,0.8697509765625,-0.3814697265625
8.4499999,0.5195417404174805,-9.84495735168457,1.0797849893569946,0.06103515625,0.7171630859375,-0.213623046875
8.469999900000001,0.5267243981361389,-9.859322547912598,1.0797849893569946,-0.4425048828125,0.6103515625,-0.244140625
8.4899999,0.5339069962501526,-9.828198432922363,1.091755986213684,0.18310546875,0.6561279296875,-0.4425048828125
8.5099999,0.5195417404174805,-9.854534149169922,1.0869675874710083,0.0762939453125,0.48828125,-0.3662109375
8.5299999,0.5195417404174805,-9.864110946655273,1.0773907899856567,-0.640869140625,0.4425048828125,-0.457763671875
8.549999900000001,0.507570743560791,-9.876082420349121,1.0797849893569946,0.06103515625,0.823974609375,-0.3662109375
8.569999900000001,0.5123591423034668,-9.885659217834473,1.072602391242981,0.06103515625,0.67138671875,-0.1678466796875
8.5899999,0.5339069962501526,-9.86889934539795,1.0678139925003052,-0.396728515625,0.4425048828125,-0.335693359375
8.6099999,0.5386953949928284,-9.856928825378418,1.0606313943862915,0.0152587890625,0.5950927734375,-0.5340576171875
8.629999900000001,0.5602431893348694,-9.813833236694336,1.091755986213684,0.2899169921875,0.79345703125,-0.48828125
8.649999900000001,0.5578489899635315,-9.81143856048584,1.0869675874710083,-0.8087158203125,0.3509521484375,-0.30517578125
8.6699999,0.5506663918495178,-9.801861763000488,1.094150185585022,-0.1220703125,0.67138671875,-0.42724609375
8.6899999,0.5315127968788147,-9.813833236694336,1.0845733880996704,-0.1068115234375,0.579833984375,-0.0762939453125
8.709999900000001,0.5363011956214905,-9.821015357971191,1.0773907899856567,-0.213623046875,0.640869140625,-0.457763671875
8.729999900000001,0.5099649429321289,-9.861717224121094,1.0606313943862915,-0.0457763671875,0.579833984375,-0.5035400390625
8.7499999,0.5291185975074768,-9.86889934539795,1.0582371950149536,0.030517578125,0.762939453125,-0.0762939453125
8.7699999,0.49559974670410156,-9.90241813659668,1.0654197931289673,-0.0762939453125,0.5950927734375,-0.152587890625
8.7899999,0.5051765441894531,-9.919178009033203,1.0606313943862915,-0.6256103515625,0.42724609375,-0.5645751953125
8.809999900000001,0.4884171485900879,-9.93593692779541,1.0630255937576294,0.0152587890625,0.8392333984375,-0.5340576171875
8.8299999,0.5003881454467773,-9.921571731567383,1.0773907899856567,-0.1068115234375,0.6866455078125,-0.091552734375
8.8499999,0.5051765441894531,-9.919178009033203,1.0654197931289673,-0.2288818359375,0.67138671875,-0.2288818359375
8.8699999,0.507570743560791,-9.885659217834473,1.072602391242981,-0.3204345703125,0.5645751953125,-0.18310546875
8.889999900000001,0.49320554733276367,-9.856928825378418,1.0797849893569946,0.1373291015625,0.8087158203125,-0.48828125
8.9099999,0.5003881454467773,-9.821015357971191,1.0678139925003052,-0.1220703125,0.579833984375,-0.5035400390625
8.9299999,0.5147533416748047,-9.801861763000488,1.0630255937576294,-0.579833984375,0.42724609375,-0.30517578125
8.9499999,0.5171475410461426,-9.797073364257812,1.05105459690094,0.0152587890625,0.7781982421875,0.0457763671875
8.969999900000001,0.5434837937355042,-9.813833236694336,1.036689281463623,-0.0762939453125,0.4730224609375,-0.1678466796875
8.9899999,0.5195417404174805,-9.859322547912598,1.039083480834961,-0.274658203125,0.4425048828125,-0.6561279296875
9.0099999,0.5123591423034668,-9.904812812805176,1.0295066833496094,-0.213623046875,0.640869140625,-0.274658203125
9.0299999,0.507570743560791,-9.914389610290527,1.0630255937576294,0.1220703125,1.0223388671875,-0.1983642578125
9.049999900000001,0.5003881454467773,-9.921571731567383,1.0654197931289673,-0.457763671875,0.3509521484375,-0.3662109375
9.069999900000001,0.5291185975074768,-9.876082420349121,1.1061211824417114,-0.1068115234375,0.6256103515625,-0.640869140625
9.0899999,0.5363011956214905,-9.828198432922363,1.113303780555725,-0.030517578125,0.885009765625,-0.06103515625
9.1099999,0.5386953949928284,-9.823410034179688,1.115697979927063,-0.3509521484375,0.6256103515625,-0.1068115234375
9.129999900000001,0.5530605912208557,-9.821015357971191,1.0989385843276978,-0.2593994140625,0.54931640625,-0.6561279296875
9.149999900000001,0.5291185975074768,-9.864110946655273,1.072602391242981,-0.18310546875,0.5950927734375,-0.3814697265625
9.1699999,0.5386953949928284,-9.890447616577148,1.0773907899856567,0.0152587890625,0.9613037109375,-0.4425048828125
9.1899999,0.49799394607543945,-9.909601211547852,1.039083480834961,-0.4730224609375,0.518798828125,0.1220703125
9.209999900000001,0.507570743560791,-9.86889934539795,1.0749965906143188,-0.0152587890625,0.579833984375,-0.518798828125
9.229999900000001,0.5027823448181152,-9.864110946655273,1.0606313943862915,-0.152587890625,0.579833984375,-0.5340576171875
9.2499999,0.507570743560791,-9.849745750427246,1.0654197931289673,-0.213623046875,0.54931640625,-0.3814697265625
9.2699999,0.5434837937355042,-9.823410034179688,1.072602391242981,-0.1678466796875,0.640869140625,-0.213623046875
9.2899999,0.5363011956214905,-9.86889934539795,1.0414776802062988,-0.1068115234375,0.6561279296875,-0.1068115234375
9.309999900000001,0.5434837937355042,-9.840168952941895,1.094150185585022,0.1220703125,0.9307861328125,-0.518798828125
9.3299999,0.545877993106842,-9.849745750427246,1.05105459690094,-0.42724609375,0.274658203125,-0.6103515625
9.3499999,0.545877993106842,-9.856928825378418,1.115697979927063,-0.0762939453125,0.701904296875,-0.396728515625
9.3699999,0.5482721924781799,-9.840168952941895,1.072602391242981,-0.1373291015625,0.7171630859375,0.2288818359375
9.389999900000001,0.5267243981361389,-9.8784761428833,1.072602391242981,-0.30517578125,0.7171630859375,-0.213623046875
9.4099999,0.5195417404174805,-9.859322547912598,1.05105459690094,-0.1220703125,0.579833984375,-0.5950927734375
9.4299999,0.4908113479614258,-9.876082420349121,1.0462661981582642,-0.030517578125,0.579833984375,-0.4119873046875
9.4499999,0.4812345504760742,-9.883264541625977,1.039083480834961,-0.0762939453125,0.9307861328125,-0.3814697265625
9.469999900000001,0.5027823448181152,-9.84495735168457,1.072602391242981,-0.274658203125,0.30517578125,-0.48828125
9.4899999,0.5147533416748047,-9.873687744140625,1.0869675874710083,-0.48828125,0.640869140625,-0.579833984375
9.5099999,0.5506663918495178,-9.847352027893066,1.1013327836990356,-0.06103515625,0.6866455078125,-0.091552734375
9.5299999,0.5554547905921936,-9.849745750427246,1.1085153818130493,-0.1068115234375,0.3814697265625,-0.1068115234375
9.549999900000001,0.5602431893348694,-9.86650562286377,1.1013327836990356,-0.152587890625,0.7781982421875,-0.335693359375
9.569999900000001,0.5434837937355042,-9.84495735168457,1.0893617868423462,-0.1068115234375,0.6103515625,-0.3814697265625
9.5899999,0.5267243981361389,-9.84256362915039,1.0845733880996704,-0.1983642578125,0.823974609375,-0.457763671875
9.6099999,0.5410895943641663,-9.847352027893066,1.0989385843276978,-0.091552734375,0.6256103515625,-0.4119873046875
9.629999900000001,0.5219359993934631,-9.835380554199219,1.0582371950149536,-0.579833984375,0.579833984375,-0.1983642578125
9.649999900000001,0.5171475410461426,-9.847352027893066,1.070208191871643,0.1678466796875,0.7476806640625,-0.4119873046875
9.6699999,0.5123591423034668,-9.8784761428833,1.0414776802062988,-0.2288818359375,0.3662109375,-0.18310546875
9.6899999,0.49799394607543945,-9.883264541625977,1.0247182846069336,-0.213623046875,0.7781982421875,-0.274658203125
9.709999900000001,0.507570743560791,-9.8784761428833,1.0630255937576294,-0.0152587890625,0.5645751953125,-0.2288818359375
9.729999900000001,0.5147533416748047,-9.90241813659668,1.0534487962722778,-0.335693359375,0.5950927734375,-0.4425048828125
9.7499999,0.507570743560791,-9.885659217834473,1.0534487962722778,-0.1983642578125,0.8087158203125,-0.3509521484375
9.7699999,0.5291185975074768,-9.86889934539795,1.0606313943862915,-0.1220703125,0.3204345703125,-0.274658203125
9.7899999,0.5099649429321289,-9.86889934539795,1.0462661981582642,-0.3509521484375,0.7171630859375,-0.4119873046875
9.809999900000001,0.5315127968788147,-9.854534149169922,1.0606313943862915,0.0152587890625,0.4730224609375,-0.3204345703125
9.8299999,0.5291185975074768,-9.849745750427246,1.0797849893569946,-0.274658203125,0.54931640625,-0.3509521484375
9.8499999,0.5530605912208557,-9.840168952941895,1.0893617868423462,-0.2899169921875,0.8087158203125,-0.1983642578125
9.8699999,0.5434837937355042,-9.837775230407715,1.0989385843276978,-0.1068115234375,0.42724609375,-0.0762939453125
9.889999900000001,0.5386953949928284,-9.830592155456543,1.094150185585022,-0.18310546875,0.6866455078125,-0.4730224609375
9.9099999,0.524330198764801,-9.840168952941895,1.1061211824417114,-0.06103515625,0.640869140625,-0.518798828125
9.9299999,0.5027823448181152,-9.883264541625977,1.072602391242981,-0.6561279296875,0.4119873046875,-0.152587890625
9.9499999,0.507570743560791,-9.90241813659668,1.0773907899856567,0.030517578125,0.7476806640625,-0.3204345703125
9.969999900000001,0.507570743560791,-9.919178009033203,1.0438719987869263,-0.2899169921875,0.457763671875,-0.091552734375
9.9899999,0.524330198764801,-9.883264541625977,1.0534487962722778,-0.213623046875,0.762939453125,-0.335693359375
10.0099999,0.5410895943641663,-9.840168952941895,1.072602391242981,0,0.67138671875,-0.4119873046875
10.0299999,0.5434837937355042,-9.806650161743164,1.0821791887283325,-0.30517578125,0.5950927734375,-0.18310546875
10.049999900000001,0.545877993106842,-9.792284965515137,1.091755986213684,-0.213623046875,0.67138671875,-0.0457763671875
10.069999900000001,0.5339069962501526,-9.794678688049316,1.1228805780410767,0.152587890625,0.6561279296875,-0.18310546875
10.0899999,0.5051765441894531,-9.835380554199219,1.070208191871643,-0.5340576171875,0.4730224609375,-0.5035400390625
10.1099999,0.5099649429321289,-9.84256362915039,1.0989385843276978,-0.091552734375,0.640869140625,-0.5340576171875
10.129999900000001,0.5051765441894531,-9.861717224121094,1.0582371950149536,-0.1068115234375,0.640869140625,0.1983642578125
10.149999900000001,0.507570743560791,-9.885659217834473,1.0582371950149536,-0.1983642578125,0.79345703125,-0.091552734375
10.1699999,0.5219359993934631,-9.885659217834473,1.070208191871643,-0.2288818359375,0.518798828125,-0.30517578125
10.1899999,0.5147533416748047,-9.90241813659668,1.0630255937576294,-0.152587890625,0.579833984375,-0.4119873046875
10.209999900000001,0.5219359993934631,-9.895236015319824,1.0749965906143188,-0.1220703125,0.6256103515625,-0.3509521484375
10.229999900000001,0.5363011956214905,-9.883264541625977,1.0845733880996704,-0.030517578125,0.5645751953125,-0.3662109375
10.2499999,0.5219359993934631,-9.880870819091797,1.0534487962722778,-0.5645751953125,0.579833984375,-0.152587890625
10.2699999,0.5219359993934631,-9.86889934539795,1.0654197931289673,0.1220703125,0.7171630859375,-0.2899169921875
10.2899999,0.5051765441894531,-9.876082420349121,1.039083480834961,-0.2593994140625,0.4425048828125,-0.2593994140625
10.309999900000001,0.5003881454467773,-9.86650562286377,1.039083480834961,-0.2593994140625,0.762939453125,-0.4425048828125
10.3299999,0.5171475410461426,-9.86650562286377,1.0606313943862915,0,0.5645751953125,-0.30517578125
10.3499999,0.5267243981361389,-9.854534149169922,1.0630255937576294,-0.274658203125,0.5645751953125,-0.1678466796875
10.3699999,0.5267243981361389,-9.871294021606445,1.0654197931289673,-0.18310546875,0.640869140625,-0.213623046875
10.389999900000001,0.5291185975074768,-9.849745750427246,1.0965443849563599,0.1220703125,0.48828125,-0.518798828125
10.4099999,0.5171475410461426,-9.871294021606445,1.0582371950149536,-0.6103515625,0.5035400390625,-0.6103515625
10.4299999,0.5291185975074768,-9.830592155456543,1.094150185585022,-0.0152587890625,0.732421875,-0.518798828125
10.4499999,0.5291185975074768,-9.847352027893066,1.0654197931289673,0.030517578125,0.457763671875,-0.091552734375
10.469999900000001,0.5410895943641663,-9.835380554199219,1.0678139925003052,-0.3204345703125,0.640869140625,-0.213623046875
10.4899999,0.5410895943641663,-9.837775230407715,1.070208191871643,-0.152587890625,0.5340576171875,-0.274658203125
10.5099999,0.5410895943641663,-9.84256362915039,1.070208191871643,-0.18310546875,0.54931640625,-0.091552734375
10.5299999,0.5171475410461426,-9.856928825378418,1.0678139925003052,-0.152587890625,0.701904296875,-0.1068115234375
10.549999900000001,0.5291185975074768,-9.837775230407715,1.0989385843276978,0.1220703125,0.6866455078125,-0.6103515625
10.569999900000001,0.5051765441894531,-9.871294021606445,1.0558429956436157,-0.640869140625,0.5645751953125,-0.3662109375
10.5899999,0.5195417404174805,-9.84495735168457,1.0845733880996704,0.091552734375,0.6561279296875,-0.1678466796875
10.6099999,0.5171475410461426,-9.849745750427246,1.0630255937576294,-0.2288818359375,0.48828125,0.1068115234375
10.629999900000001,0.5147533416748047,-9.856928825378418,1.0582371950149536,-0.2899169921875,0.8697509765625,-0.4119873046875
10.649999900000001,0.49799394607543945,-9.854534149169922,1.0606313943862915,-0.1983642578125,0.5645751953125,-0.6561279296875
10.6699999,0.507570743560791,-9.861717224121094,1.0582371950149536,-0.274658203125,0.5340576171875,-0.4425048828125
10.6899999,0.49559974670410156,-9.86650562286377,1.05105459690094,-0.06103515625,0.732421875,-0.213623046875
10.709999900000001,0.524330198764801,-9.852140426635742,1.0893617868423462,0.06103515625,0.6866455078125,-0.244140625
10.729999900000001,0.5219359993934631,-9.861717224121094,1.0678139925003052,-0.579833984375,0.518798828125,-0.3662109375
10.7499999,0.5267243981361389,-9.849745750427246,1.091755986213684,0.030517578125,0.579833984375,-0.5035400390625
10.7699999,0.5267243981361389,-9.847352027893066,1.0749965906143188,-0.06103515625,0.5340576171875,-0.1983642578125
10.7899999,0.5219359993934631,-9.864110946655273,1.0534487962722778,-0.2899169921875,0.5340576171875,-0.3509521484375
10.809999900000001,0.5315127968788147,-9.852140426635742,1.0606313943862915,-0.0457763671875,0.6561279296875,-0.213623046875
10.8299999,0.5363011956214905,-9.861717224121094,1.0630255937576294,-0.1373291015625,0.732421875,-0.152587890625
10.8499999,0.5410895943641663,-9.859322547912598,1.0654197931289673,-0.152587890625,0.732421875,-0.3662109375
10.8699999,0.5315127968788147,-9.847352027893066,1.091755986213684,0.18310546875,0.579833984375,-0.67138671875
10.889999900000001,0.5339069962501526,-9.861717224121094,1.0630255937576294,-0.4425048828125,0.4730224609375,-0.518798828125
10.9099999,0.5315127968788147,-9.864110946655273,1.0773907899856567,0,0.732421875,-0.4119873046875
10.9299999,0.5315127968788147,-9.8784761428833,1.0606313943862915,-0.1068115234375,0.54931640625,-0.0152587890625
10.9499999,0.5219359993934631,-9.888052940368652,1.0558429956436157,-0.213623046875,0.7171630859375,-0.244140625
10.969999900000001,0.5051765441894531,-9.888052940368652,1.0558429956436157,-0.0762939453125,0.5950927734375,-0.6256103515625
10.9899999,0.49559974670410156,-9.885659217834473,1.0558429956436157,-0.1220703125,0.54931640625,-0.6256103515625
11.0099999,0.49799394607543945,-9.888052940368652,1.0414776802062988,-0.3204345703125,0.67138671875,-0.213623046875
11.0299999,0.5027823448181152,-9.885659217834473,1.0534487962722778,-0.3662109375,0.335693359375,-0.274658203125
11.049999900000001,0.5147533416748047,-9.880870819091797,1.070208191871643,-0.18310546875,0.54931640625,-0.91552734375
11.069999900000001,0.49799394607543945,-9.890447616577148,1.0678139925003052,-0.06103515625,0.6103515625,-0.54931640625
11.0899999,0.5386953949928284,-9.880870819091797,1.0845733880996704,-0.2593994140625,0.9307861328125,-0.518798828125
11.1099999,0.5291185975074768,-9.8784761428833,1.0797849893569946,-0.1068115234375,0.7476806640625,0.2288818359375
11.129999900000001,0.5291185975074768,-9.861717224121094,1.094150185585022,-0.152587890625,0.42724609375,-0.2288818359375
11.149999900000001,0.5267243981361389,-9.828198432922363,1.0869675874710083,-0.1220703125,0.7476806640625,-0.946044921875
11.1699999,0.5147533416748047,-9.832986831665039,1.0749965906143188,-0.274658203125,0.6256103515625,-0.396728515625
11.1899999,0.5051765441894531,-9.84256362915039,1.0630255937576294,-0.1068115234375,0.6866455078125,0.244140625
11.209999900000001,0.5267243981361389,-9.835380554199219,1.070208191871643,-0.1068115234375,0.6103515625,-0.457763671875
11.229999900000001,0.5219359993934631,-9.873687744140625,1.05105459690094,-0.2593994140625,0.54931640625,-0.6561279296875
11.2499999,0.5291185975074768,-9.84495735168457,1.0797849893569946,-0.2288818359375,0.7476806640625,-0.3204345703125
11.2699999,0.5386953949928284,-9.861717224121094,1.0558429956436157,0.0457763671875,0.640869140625,-0.244140625
11.2899999,0.5410895943641663,-9.847352027893066,1.0845733880996704,-0.2593994140625,0.5645751953125,-0.1983642578125
11.309999900000001,0.5315127968788147,-9.86650562286377,1.0534487962722778,-0.1983642578125,0.6256103515625,-0.457763671875
11.3299999,0.5171475410461426,-9.864110946655273,1.0797849893569946,0.030517578125,0.5950927734375,-0.579833984375
11.3499999,0.5123591423034668,-9.880870819091797,1.0869675874710083,-0.1068115234375,0.732421875,-0.5340576171875
11.3699999,0.5051765441894531,-9.864110946655273,1.0582371950149536,-0.4425048828125,0.3814697265625,-0.213623046875
11.389999900000001,0.5051765441894531,-9.876082420349121,1.0893617868423462,0.0762939453125,0.732421875,-0.518798828125
11.4099999,0.5291185975074768,-9.854534149169922,1.070208191871643,-0.0152587890625,0.4119873046875,-0.2593994140625
11.4299999,0.5339069962501526,-9.861717224121094,1.070208191871643,-0.3662109375,0.579833984375,-0.18310546875
11.4499999,0.5626373887062073,-9.835380554199219,1.0797849893569946,0.152587890625,0.823974609375,-0.274658203125
11.469999900000001,0.5291185975074768,-9.861717224121094,1.0654197931289673,-0.213623046875,0.42724609375,-0.30517578125
11.4899999,0.5554547905921936,-9.835380554199219,1.0654197931289673,-0.213623046875,0.7171630859375,-0.7476806640625
11.5099999,0.5099649429321289,-9.873687744140625,1.0654197931289673,0.2593994140625,0.6103515625,-0.42724609375
11.5299999,0.5267243981361389,-9.86650562286377,1.0534487962722778,-0.1068115234375,0.7476806640625,-0.18310546875
11.549999900000001,0.5291185975074768,-9.86889934539795,1.070208191871643,-0.1983642578125,0.5340576171875,-0.4119873046875
11.569999900000001,0.5410895943641663,-9.852140426635742,1.0558429956436157,-0.4425048828125,0.6103515625,-0.2899169921875
11.5899999,0.5386953949928284,-9.835380554199219,1.0797849893569946,0.2593994140625,0.8697509765625,-0.2899169921875
11.6099999,0.524330198764801,-9.84495735168457,1.0821791887283325,-0.54931640625,0.274658203125,-0.18310546875
11.629999900000001,0.524330198764801,-9.830592155456543,1.1037269830703735,-0.1220703125,0.9002685546875,-0.457763671875
11.649999900000001,0.5123591423034668,-9.849745750427246,1.1037269830703735,0.030517578125,0.579833984375,-0.3662109375
11.6699999,0.5315127968788147,-9.84256362915039,1.113303780555725,-0.213623046875,0.6256103515625,-0.518798828125
11.6899999,0.5339069962501526,-9.864110946655273,1.0869675874710083,-0.1678466796875,0.6866455078125,-0.2899169921875
11.709999900000001,0.524330198764801,-9.8784761428833,1.0797849893569946,0.0152587890625,0.6561279296875,0.0762939453125
11.729999900000001,0.49799394607543945,-9.909601211547852,1.0414776802062988,-0.0762939453125,0.7476806640625,-0.4119873046875
11.7499999,0.5051765441894531,-9.904812812805176,1.0342950820922852,-0.244140625,0.2593994140625,-0.6866455078125
11.7699999,0.5051765441894531,-9.904812812805176,1.0247182846069336,-0.3509521484375,0.701904296875,-0.3204345703125
11.7899999,0.5291185975074768,-9.876082420349121,1.0534487962722778,0.1678466796875,0.7781982421875,0.0457763671875
11.809999900000001,0.5339069962501526,-9.873687744140625,1.0582371950149536,-0.5950927734375,0.396728515625,-0.18310546875
11.8299999,0.545877993106842,-9.840168952941895,1.0869675874710083,0.0457763671875,0.8087158203125,-1.007080078125
11.8499999,0.5363011956214905,-9.84495735168457,1.0845733880996704,-0.06103515625,0.4730224609375,-0.5340576171875
11.8699999,0.5363011956214905,-9.840168952941895,1.0821791887283325,-0.4119873046875,0.701904296875,-0.152587890625
11.889999900000001,0.5339069962501526,-9.84495735168457,1.0797849893569946,-0.213623046875,0.6866455078125,-0.1983642578125
11.9099999,0.507570743560791,-9.871294021606445,1.0797849893569946,0.0152587890625,0.67138671875,-0.396728515625
11.9299999,0.5027823448181152,-9.8784761428833,1.0630255937576294,-0.274658203125,0.6103515625,-0.6103515625
11.9499999,0.4908113479614258,-9.892841339111328,1.0654197931289673,-0.2593994140625,0.3204345703125,-0.274658203125
11.969999900000001,0.5051765441894531,-9.885659217834473,1.0582371950149536,-0.2288818359375,0.79345703125,-0.152587890625
11.9899999,0.5219359993934631,-9.864110946655273,1.0749965906143188,0.06103515625,0.732421875,-0.2899169921875
12.0099999,0.5482721924781799,-9.837775230407715,1.072602391242981,-0.54931640625,0.3814697265625,-0.4119873046875
12.0299999,0.5746083855628967,-9.80904483795166,1.113303780555725,0.030517578125,0.823974609375,-0.396728515625
12.049999900000001,0.5722141861915588,-9.806650161743164,1.1061211824417114,-0.0457763671875,0.518798828125,-0.152587890625
12.069999900000001,0.5578489899635315,-9.813833236694336,1.113303780555725,-0.30517578125,0.7781982421875,-0.457763671875
12.0899999,0.524330198764801,-9.852140426635742,1.094150185585022,-0.2288818359375,0.5035400390625,-0.4119873046875
12.1099999,0.49799394607543945,-9.871294021606445,1.072602391242981,-0.0762939453125,0.67138671875,-0.18310546875
12.129999900000001,0.48602294921875,-9.890447616577148,1.036689281463623,-0.2593994140625,0.701904296875,-0.244140625
12.149999900000001,0.5171475410461426,-9.861717224121094,1.05105459690094,-0.0762939453125,0.42724609375,-0.54931640625
12.1699999,0.5339069962501526,-9.852140426635742,1.0319008827209473,-0.396728515625,0.6866455078125,-0.5950927734375
12.1899999,0.5602431893348694,-9.835380554199219,1.0678139925003052,0.1678466796875,0.5950927734375,-0.3662109375
12.209999900000001,0.5482721924781799,-9.852140426635742,1.048660397529602,-0.518798828125,0.457763671875,0.0457763671875
12.229999900000001,0.5434837937355042,-9.861717224121094,1.0630255937576294,-0.152587890625,0.8544921875,-0.3662109375
12.2499999,0.524330198764801,-9.873687744140625,1.0630255937576294,-0.0457763671875,0.4730224609375,-0.5035400390625
12.2699999,0.5171475410461426,-9.871294021606445,1.0678139925003052,-0.4425048828125,0.54931640625,-0.3509521484375
12.289999900000002,0.5195417404174805,-9.86889934539795,1.0893617868423462,0,0.6103515625,-0.5340576171875
12.309999900000001,0.5123591423034668,-9.8784761428833,1.0989385843276978,-0.0152587890625,0.579833984375,-0.3662109375
12.3299999,0.5099649429321289,-9.883264541625977,1.0965443849563599,-0.335693359375,0.701904296875,-0.2593994140625
12.3499999,0.5099649429321289,-9.864110946655273,1.115697979927063,0.0457763671875,0.5950927734375,-0.274658203125
12.3699999,0.524330198764801,-9.849745750427246,1.1013327836990356,-0.3814697265625,0.54931640625,-0.3662109375
12.389999900000001,0.5386953949928284,-9.828198432922363,1.1204863786697388,0.06103515625,0.6561279296875,-0.640869140625
12.4099999,0.5363011956214905,-9.828198432922363,1.091755986213684,-0.2593994140625,0.396728515625,-0.213623046875
12.4299999,0.5339069962501526,-9.84495735168457,1.0797849893569946,-0.2288818359375,0.7781982421875,-0.30517578125
12.4499999,0.5195417404174805,-9.861717224121094,1.0534487962722778,-0.1068115234375,0.54931640625,-0.274658203125
12.469999900000001,0.5171475410461426,-9.873687744140625,1.0462661981582642,-0.213623046875,0.5645751953125,-0.274658203125
12.4899999,0.5315127968788147,-9.856928825378418,1.048660397529602,-0.152587890625,0.640869140625,-0.4119873046875
12.5099999,0.5554547905921936,-9.84256362915039,1.0582371950149536,-0.274658203125,0.54931640625,-0.2593994140625
12.5299999,0.5602431893348694,-9.84256362915039,1.0678139925003052,-0.0152587890625,0.8087158203125,-0.030517578125
12.549999900000001,0.5626373887062073,-9.84256362915039,1.0845733880996704,0.030517578125,0.640869140625,-0.1373291015625
12.569999900000001,0.545877993106842,-9.859322547912598,1.0749965906143188,-0.457763671875,0.5340576171875,-0.396728515625
12.5899999,0.5315127968788147,-9.86889934539795,1.094150185585022,0.152587890625,0.8392333984375,-0.48828125
12.6099999,0.5195417404174805,-9.876082420349121,1.0773907899856567,-0.18310546875,0.4425048828125,0
12.629999900000001,0.5219359993934631,-9.873687744140625,1.0654197931289673,-0.335693359375,0.6866455078125,-0.213623046875
12.649999900000001,0.5267243981361389,-9.871294021606445,1.0797849893569946,0.1220703125,0.7476806640625,-0.213623046875
12.6699999,0.5195417404174805,-9.86650562286377,1.0749965906143188,-0.213623046875,0.640869140625,-0.0457763671875
12.6899999,0.5267243981361389,-9.859322547912598,1.0989385843276978,-0.0762939453125,0.6561279296875,-0.5340576171875
12.709999900000001,0.507570743560791,-9.864110946655273,1.1013327836990356,-0.1373291015625,0.5035400390625,-0.3662109375
12.729999900000001,0.5123591423034668,-9.86650562286377,1.094150185585022,-0.2288818359375,0.7781982421875,-0.18310546875
12.7499999,0.5051765441894531,-9.856928825378418,1.1061211824417114,-0.1220703125,0.640869140625,-0.06103515625
12.7699999,0.49799394607543945,-9.861717224121094,1.0678139925003052,-0.48828125,0.30517578125,-0.30517578125
12.789999900000002,0.5147533416748047,-9.837775230407715,1.0749965906143188,-0.1983642578125,0.8392333984375,-0.4119873046875
12.809999900000001,0.5123591423034668,-9.854534149169922,1.0630255937576294,-0.030517578125,0.54931640625,-0.1983642578125
12.8299999,0.5267243981361389,-9.859322547912598,1.0606313943862915,-0.5340576171875,0.48828125,-0.3814697265625
12.8499999,0.5530605912208557,-9.86650562286377,1.0773907899856567,-0.091552734375,0.732421875,-0.2593994140625
12.8699999,0.5267243981361389,-9.871294021606445,1.0869675874710083,-0.091552734375,0.518798828125,0.0457763671875
12.889999900000001,0.545877993106842,-9.86650562286377,1.0845733880996704,-0.30517578125,0.579833984375,-0.3814697265625
12.9099999,0.524330198764801,-9.859322547912598,1.0821791887283325,-0.0762939453125,0.42724609375,-0.5340576171875
12.9299999,0.49559974670410156,-9.86889934539795,1.070208191871643,-0.0762939453125,0.7476806640625,-0.48828125
12.9499999,0.5171475410461426,-9.849745750427246,1.0678139925003052,-0.3509521484375,0.54931640625,-0.0762939453125
12.969999900000001,0.47884035110473633,-9.885659217834473,1.0582371950149536,-0.0457763671875,0.6256103515625,-0.213623046875
12.9899999,0.5195417404174805,-9.864110946655273,1.0654197931289673,-0.1068115234375,0.54931640625,-0.2593994140625
13.0099999,0.5291185975074768,-9.880870819091797,1.05105459690094,-0.640869140625,0.4425048828125,-0.244140625
13.0299999,0.5386953949928284,-9.873687744140625,1.072602391242981,0.2593994140625,0.946044921875,-0.5035400390625
13.049999900000001,0.524330198764801,-9.876082420349121,1.0606313943862915,-0.4119873046875,0.3814697265625,-0.1068115234375
13.069999900000001,0.5386953949928284,-9.84256362915039,1.0773907899856567,-0.4730224609375,0.732421875,-0.244140625
13.0899999,0.47405192255973816,-9.873687744140625,1.0797849893569946,0.3204345703125,0.7781982421875,-0.2593994140625
13.1099999,0.5171475410461426,-9.837775230407715,1.0821791887283325,-0.3509521484375,0.6256103515625,-0.3509521484375
13.129999900000001,0.5051765441894531,-9.859322547912598,1.0797849893569946,-0.457763671875,0.640869140625,-0.5645751953125
13.149999900000001,0.5410895943641663,-9.828198432922363,1.091755986213684,0.030517578125,0.579833984375,-0.152587890625
13.1699999,0.5410895943641663,-9.835380554199219,1.0773907899856567,-0.30517578125,0.6561279296875,0.030517578125
13.1899999,0.5434837937355042,-9.837775230407715,1.0749965906143188,-0.335693359375,0.4425048828125,-0.4730224609375
13.209999900000001,0.5003881454467773,-9.859322547912598,1.070208191871643,-0.0457763671875,0.67138671875,-0.457763671875
13.229999900000001,0.5003881454467773,-9.895236015319824,1.0582371950149536,-0.1373291015625,0.640869140625,-0.2899169921875
13.2499999,0.4668693244457245,-9.904812812805176,1.0558429956436157,-0.274658203125,0.5340576171875,-0.2899169921875
13.2699999,0.5051765441894531,-9.9000244140625,1.0630255937576294,-0.0152587890625,0.762939453125,-0.1678466796875
13.289999900000002,0.507570743560791,-9.873687744140625,1.0654197931289673,-0.3814697265625,0.42724609375,-0.091552734375
13.309999900000001,0.5195417404174805,-9.864110946655273,1.0773907899856567,-0.0762939453125,0.732421875,-0.54931640625
13.3299999,0.524330198764801,-9.847352027893066,1.0773907899856567,0.030517578125,0.6256103515625,-0.6103515625
13.3499999,0.524330198764801,-9.84495735168457,1.0797849893569946,-0.54931640625,0.396728515625,-0.1678466796875
13.3699999,0.524330198764801,-9.86650562286377,1.070208191871643,-0.1983642578125,0.8087158203125,-0.3204345703125
13.389999900000001,0.5171475410461426,-9.864110946655273,1.0678139925003052,0.0457763671875,0.6256103515625,-0.396728515625
13.4099999,0.5195417404174805,-9.873687744140625,1.0654197931289673,-0.4730224609375,0.579833984375,-0.3662109375
13.4299999,0.507570743560791,-9.864110946655273,1.0773907899856567,0.0762939453125,0.6561279296875,-0.640869140625
13.4499999,0.5315127968788147,-9.840168952941895,1.0821791887283325,-0.1373291015625,0.5950927734375,-0.5035400390625
13.469999900000001,0.5363011956214905,-9.840168952941895,1.0893617868423462,-0.335693359375,0.6103515625,-0.2593994140625
13.4899999,0.5386953949928284,-9.84495735168457,1.0869675874710083,0.0457763671875,0.5645751953125,-0.274658203125
13.5099999,0.5315127968788147,-9.847352027893066,1.0797849893569946,-0.2288818359375,0.5950927734375,-0.4425048828125
13.5299999,0.524330198764801,-9.873687744140625,1.0654197931289673,-0.2288818359375,0.5950927734375,-0.396728515625
13.549999900000001,0.507570743560791,-9.876082420349121,1.0678139925003052,0.1220703125,0.640869140625,-0.1983642578125
13.569999900000001,0.5434837937355042,-9.856928825378418,1.0630255937576294,-0.2899169921875,0.5950927734375,-0.2288818359375
13.5899999,0.524330198764801,-9.871294021606445,1.0654197931289673,-0.2288818359375,0.6103515625,-0.457763671875
13.6099999,0.5339069962501526,-9.847352027893066,1.072602391242981,0.091552734375,0.7781982421875,-0.42724609375
13.629999900000001,0.5267243981361389,-9.864110946655273,1.0749965906143188,-0.2288818359375,0.579833984375,-0.335693359375
13.649999900000001,0.5363011956214905,-9.84495735168457,1.070208191871643,-0.3814697265625,0.5645751953125,-0.3509521484375
13.6699999,0.5123591423034668,-9.861717224121094,1.0797849893569946,0.2288818359375,0.823974609375,-0.457763671875
13.6899999,0.5291185975074768,-9.852140426635742,1.0749965906143188,-0.152587890625,0.6256103515625,-0.396728515625
13.709999900000001,0.5123591423034668,-9.852140426635742,1.0821791887283325,-0.3662109375,0.518798828125,-0.457763671875
13.729999900000001,0.5099649429321289,-9.871294021606445,1.0797849893569946,0,0.6866455078125,-0.457763671875
13.7499999,0.5339069962501526,-9.847352027893066,1.0869675874710083,-0.0457763671875,0.640869140625,-0.3814697265625
13.7699999,0.5195417404174805,-9.861717224121094,1.0797849893569946,-0.4119873046875,0.54931640625,-0.3662109375
13.789999900000002,0.5339069962501526,-9.864110946655273,1.0773907899856567,-0.1068115234375,0.579833984375,-0.3204345703125
13.809999900000001,0.524330198764801,-9.86889934539795,1.0654197931289673,-0.0152587890625,0.640869140625,-0.3509521484375
13.8299999,0.5315127968788147,-9.86889934539795,1.0534487962722778,-0.1068115234375,0.6103515625,-0.5950927734375
13.8499999,0.5219359993934631,-9.871294021606445,1.0630255937576294,-0.0152587890625,0.79345703125,-0.6103515625
13.8699999,0.5339069962501526,-9.859322547912598,1.0654197931289673,-0.3814697265625,0.6103515625,-0.2288818359375
13.889999900000001,0.5339069962501526,-9.840168952941895,1.0797849893569946,-0.2288818359375,0.6256103515625,-0.2593994140625
13.9099999,0.5219359993934631,-9.856928825378418,1.0821791887283325,-0.152587890625,0.518798828125,-0.30517578125
13.9299999,0.524330198764801,-9.852140426635742,1.0773907899856567,-0.1373291015625,0.5950927734375,-0.457763671875
13.9499999,0.5171475410461426,-9.864110946655273,1.0797849893569946,-0.091552734375,0.67138671875,-0.4730224609375
13.969999900000001,0.5147533416748047,-9.86889934539795,1.0845733880996704,-0.0457763671875,0.579833984375,-0.335693359375
13.9899999,0.5195417404174805,-9.864110946655273,1.0869675874710083,-0.1068115234375,0.579833984375,-0.335693359375
14.0099999,0.5339069962501526,-9.849745750427246,1.0965443849563599,-0.213623046875,0.579833984375,-0.4425048828125
14.0299999,0.5267243981361389,-9.871294021606445,1.0773907899856567,-0.3662109375,0.5950927734375,-0.396728515625
14.049999900000001,0.5506663918495178,-9.86650562286377,1.0845733880996704,0.1068115234375,0.79345703125,-0.2288818359375
14.069999900000001,0.5602431893348694,-9.854534149169922,1.072602391242981,-0.1373291015625,0.54931640625,-0.030517578125
14.0899999,0.5506663918495178,-9.854534149169922,1.072602391242981,-0.30517578125,0.5645751953125,-0.3662109375
14.1099999,0.5339069962501526,-9.840168952941895,1.0749965906143188,-0.2593994140625,0.4425048828125,-0.5035400390625
14.129999900000001,0.5195417404174805,-9.847352027893066,1.0797849893569946,0.0762939453125,0.6256103515625,-0.4119873046875
14.149999900000001,0.5051765441894531,-9.871294021606445,1.072602391242981,-0.274658203125,0.6866455078125,-0.152587890625
14.1699999,0.5195417404174805,-9.86650562286377,1.072602391242981,-0.2288818359375,0.732421875,-0.2288818359375
14.1899999,0.5482721924781799,-9.859322547912598,1.070208191871643,-0.091552734375,0.6256103515625,-0.42724609375
14.209999900000001,0.5219359993934631,-9.86889934539795,1.0654197931289673,-0.244140625,0.5950927734375,-0.1678466796875
14.229999900000001,0.5386953949928284,-9.849745750427246,1.0749965906143188,0.0152587890625,0.732421875,-0.2593994140625
14.2499999,0.5219359993934631,-9.861717224121094,1.0773907899856567,-0.274658203125,0.5645751953125,-0.18310546875
14.2699999,0.49559974670410156,-9.873687744140625,1.0845733880996704,-0.2593994140625,0.640869140625,-0.457763671875
14.289999900000002,0.5410895943641663,-9.84495735168457,1.091755986213684,-0.06103515625,0.701904296875,-0.42724609375
14.309999900000001,0.524330198764801,-9.852140426635742,1.0965443849563599,-0.2288818359375,0.67138671875,-0.3204345703125
14.3299999,0.5530605912208557,-9.832986831665039,1.1061211824417114,-0.18310546875,0.5950927734375,-0.3662109375
14.3499999,0.5315127968788147,-9.856928825378418,1.0821791887283325,-0.1220703125,0.6103515625,-0.1220703125
14.3699999,0.5219359993934631,-9.861717224121094,1.0797849893569946,0.0152587890625,0.5950927734375,-0.091552734375
14.389999900000001,0.49320554733276367,-9.9000244140625,1.0414776802062988,-0.396728515625,0.4425048828125,-0.3814697265625
14.4099999,0.4836287498474121,-9.907206535339355,1.0462661981582642,0.18310546875,0.9002685546875,-0.42724609375
14.4299999,0.5171475410461426,-9.8784761428833,1.05105459690094,-0.2288818359375,0.335693359375,-0.3509521484375
14.4499999,0.5410895943641663,-9.854534149169922,1.072602391242981,-0.3814697265625,0.732421875,-0.396728515625
14.469999900000001,0.5770025849342346,-9.830592155456543,1.0965443849563599,0.213623046875,0.6561279296875,-0.213623046875
14.4899999,0.586579442024231,-9.806650161743164,1.1061211824417114,-0.244140625,0.48828125,-0.335693359375
14.5099999,0.5506663918495178,-9.84495735168457,1.1061211824417114,-0.244140625,0.6561279296875,-0.640869140625
14.5299999,0.5554547905921936,-9.835380554199219,1.1037269830703735,0.091552734375,0.518798828125,-0.3204345703125
14.549999900000001,0.48602294921875,-9.892841339111328,1.0749965906143188,-0.244140625,0.701904296875,-0.1220703125
14.569999900000001,0.5027823448181152,-9.883264541625977,1.0678139925003052,-0.335693359375,0.5340576171875,-0.2288818359375
14.5899999,0.5051765441894531,-9.890447616577148,1.05105459690094,0.0152587890625,0.67138671875,-0.48828125
14.6099999,0.5051765441894531,-9.873687744140625,1.0749965906143188,-0.1220703125,0.67138671875,-0.3509521484375
14.629999900000001,0.5386953949928284,-9.849745750427246,1.070208191871643,-0.4730224609375,0.54931640625,-0.274658203125
14.649999900000001,0.545877993106842,-9.837775230407715,1.113303780555725,0.244140625,0.8697509765625,-0.4425048828125
14.6699999,0.5363011956214905,-9.852140426635742,1.1037269830703735,-0.5340576171875,0.335693359375,-0.1220703125
14.6899999,0.5434837937355042,-9.835380554199219,1.115697979927063,-0.2899169921875,0.6866455078125,-0.4425048828125
14.709999900000001,0.5291185975074768,-9.84495735168457,1.0821791887283325,-0.3509521484375,0.48828125,-0.2593994140625
14.729999900000001,0.5267243981361389,-9.854534149169922,1.0582371950149536,-0.213623046875,0.7476806640625,-0.1983642578125
14.7499999,0.5123591423034668,-9.8784761428833,1.0558429956436157,0,0.5340576171875,-0.152587890625
14.7699999,0.5195417404174805,-9.86650562286377,1.0534487962722778,-0.2288818359375,0.5950927734375,-0.4119873046875
14.789999900000002,0.5099649429321289,-9.86889934539795,1.0797849893569946,-0.1983642578125,0.518798828125,-0.6103515625
14.809999900000001,0.5051765441894531,-9.86650562286377,1.0845733880996704,-0.1983642578125,0.54931640625,-0.2593994140625
14.8299999,0.524330198764801,-9.837775230407715,1.0869675874710083,-0.30517578125,0.701904296875,-0.213623046875
14.8499999,0.5195417404174805,-9.856928825378418,1.0797849893569946,0.030517578125,0.54931640625,-0.2593994140625
14.8699999,0.5410895943641663,-9.849745750427246,1.0630255937576294,-0.518798828125,0.5340576171875,-0.335693359375
14.889999900000001,0.5363011956214905,-9.864110946655273,1.0606313943862915,0.0152587890625,0.7781982421875,-0.518798828125
14.9099999,0.5434837937355042,-9.871294021606445,1.0534487962722778,0.0152587890625,0.518798828125,-0.2593994140625
14.9299999,0.5386953949928284,-9.873687744140625,1.0558429956436157,-0.3509521484375,0.67138671875,-0.244140625
14.9499999,0.5386953949928284,-9.86889934539795,1.0582371950149536,-0.1220703125,0.5340576171875,-0.244140625
14.969999900000001,0.5363011956214905,-9.856928825378418,1.0821791887283325,-0.0152587890625,0.640869140625,-0.2593994140625
14.9899999,0.5195417404174805,-9.871294021606445,1.0797849893569946,-0.1678466796875,0.67138671875,-0.4730224609375
15.0099999,0.5123591423034668,-9.873687744140625,1.094150185585022,-0.1678466796875,0.4119873046875,-0.4730224609375
15.0299999,0.5003881454467773,-9.888052940368652,1.0869675874710083,-0.396728515625,0.701904296875,-0.274658203125
15.049999900000001,0.5027823448181152,-9.883264541625977,1.0965443849563599,0.1068115234375,0.701904296875,-0.1983642578125
15.069999900000001,0.5003881454467773,-9.880870819091797,1.0869675874710083,-0.42724609375,0.42724609375,-0.2288818359375
15.0899999,0.5147533416748047,-9.86650562286377,1.0989385843276978,-0.0457763671875,0.8544921875,-0.579833984375
15.1099999,0.5219359993934631,-9.852140426635742,1.091755986213684,-0.0762939453125,0.5340576171875,-0.2899169921875
15.129999900000001,0.5315127968788147,-9.847352027893066,1.091755986213684,-0.3814697265625,0.6561279296875,-0.2288818359375
15.149999900000001,0.5386953949928284,-9.837775230407715,1.0821791887283325,-0.18310546875,0.54931640625,-0.3814697265625
15.1699999,0.5315127968788147,-9.849745750427246,1.0797849893569946,0.030517578125,0.701904296875,-0.6103515625
15.1899999,0.524330198764801,-9.861717224121094,1.0558429956436157,-0.30517578125,0.67138671875,-0.5340576171875
15.209999900000001,0.5363011956214905,-9.864110946655273,1.070208191871643,-0.244140625,0.457763671875,-0.0762939453125
15.229999900000001,0.5315127968788147,-9.86650562286377,1.0678139925003052,-0.1983642578125,0.8392333984375,0.0152587890625
15.2499999,0.545877993106842,-9.852140426635742,1.094150185585022,0.030517578125,0.640869140625,-0.3814697265625
15.2699999,0.5363011956214905,-9.854534149169922,1.0869675874710083,-0.6561279296875,0.4119873046875,-0.396728515625
15.289999900000002,0.5339069962501526,-9.854534149169922,1.0989385843276978,0.152587890625,0.9307861328125,-0.3662109375
15.309999900000001,0.5267243981361389,-9.856928825378418,1.0869675874710083,-0.091552734375,0.4730224609375,-0.0152587890625
15.3299999,0.5315127968788147,-9.852140426635742,1.0821791887283325,-0.4425048828125,0.640869140625,-0.3509521484375
15.3499999,0.5386953949928284,-9.849745750427246,1.0845733880996704,-0.06103515625,0.67138671875,-0.3204345703125
15.3699999,0.5339069962501526,-9.84256362915039,1.0821791887283325,-0.06103515625,0.67138671875,-0.0762939453125
15.389999900000001,0.545877993106842,-9.84495735168457,1.0678139925003052,-0.42724609375,0.67138671875,-0.2288818359375
15.4099999,0.5410895943641663,-9.84256362915039,1.072602391242981,-0.091552734375,0.42724609375,-0.335693359375
15.4299999,0.5482721924781799,-9.835380554199219,1.0534487962722778,-0.3204345703125,0.823974609375,-0.396728515625
15.4499999,0.5410895943641663,-9.835380554199219,1.0654197931289673,0.06103515625,0.732421875,-0.3204345703125
15.469999900000001,0.5386953949928284,-9.84495735168457,1.0534487962722778,-0.4425048828125,0.335693359375,-0.1373291015625
15.4899999,0.5291185975074768,-9.84495735168457,1.0630255937576294,-0.1373291015625,0.7781982421875,-0.457763671875
15.5099999,0.507570743560791,-9.873687744140625,1.0462661981582642,-0.091552734375,0.5645751953125,-0.3509521484375
15.5299999,0.507570743560791,-9.871294021606445,1.0582371950149536,-0.2288818359375,0.67138671875,-0.30517578125
15.549999900000001,0.5147533416748047,-9.880870819091797,1.0606313943862915,-0.152587890625,0.6103515625,-0.2593994140625
15.569999900000001,0.5195417404174805,-9.873687744140625,1.0773907899856567,-0.1220703125,0.640869140625,-0.06103515625
15.5899999,0.5267243981361389,-9.873687744140625,1.0821791887283325,-0.1678466796875,0.7171630859375,-0.30517578125
15.6099999,0.5195417404174805,-9.864110946655273,1.0869675874710083,-0.091552734375,0.396728515625,-0.518798828125
15.629999900000001,0.5267243981361389,-9.859322547912598,1.0821791887283325,-0.30517578125,0.79345703125,-0.4730224609375
15.649999900000001,0.5315127968788147,-9.852140426635742,1.091755986213684,0.1220703125,0.79345703125,-0.091552734375
15.6699999,0.5410895943641663,-9.847352027893066,1.0821791887283325,-0.48828125,0.42724609375,0.0762939453125
15.6899999,0.5434837937355042,-9.840168952941895,1.1109095811843872,0.152587890625,0.8544921875,-0.5340576171875
15.709999900000001,0.5506663918495178,-9.832986831665039,1.1061211824417114,-0.0762939453125,0.4425048828125,-0.5340576171875
15.729999900000001,0.545877993106842,-9.823410034179688,1.115697979927063,-0.335693359375,0.7171630859375,-0.30517578125
15.7499999,0.5506663918495178,-9.828198432922363,1.1109095811843872,-0.1373291015625,0.6103515625,-0.1068115234375
15.7699999,0.5363011956214905,-9.837775230407715,1.094150185585022,-0.213623046875,0.5340576171875,-0.1220703125
15.789999900000002,0.5123591423034668,-9.86650562286377,1.0606313943862915,-0.1678466796875,0.7476806640625,-0.3509521484375
15.809999900000001,0.49799394607543945,-9.885659217834473,1.0630255937576294,-0.06103515625,0.3509521484375,-0.3662109375
15.8299999,0.4884171485900879,-9.897629737854004,1.048660397529602,-0.5340576171875,0.7171630859375,-0.3662109375
15.8499999,0.49320554733276367,-9.890447616577148,1.070208191871643,0.1068115234375,0.6103515625,-0.3814697265625
15.869999900000002,0.5051765441894531,-9.888052940368652,1.0797849893569946,-0.4425048828125,0.518798828125,-0.2593994140625
15.889999900000001,0.5123591423034668,-9.86650562286377,1.091755986213684,-0.1220703125,0.823974609375,-0.3509521484375
15.9099999,0.5171475410461426,-9.86650562286377,1.0989385843276978,-0.030517578125,0.396728515625,-0.1068115234375
15.9299999,0.5171475410461426,-9.859322547912598,1.1061211824417114,-0.2899169921875,0.6561279296875,-0.274658203125
15.9499999,0.5315127968788147,-9.849745750427246,1.0989385843276978,-0.1678466796875,0.6103515625,-0.5645751953125
15.969999900000001,0.545877993106842,-9.832986831665039,1.113303780555725,-0.0152587890625,0.6561279296875,-0.18310546875
15.9899999,0.5530605912208557,-9.835380554199219,1.0869675874710083,-0.3662109375,0.7476806640625,0.030517578125
16.0099999,0.5554547905921936,-9.818621635437012,1.0893617868423462,-0.1373291015625,0.3814697265625,-0.152587890625
16.0299999,0.5363011956214905,-9.840168952941895,1.0654197931289673,-0.30517578125,0.701904296875,-0.3204345703125
16.0499999,0.5267243981361389,-9.840168952941895,1.070208191871643,0.1983642578125,0.7171630859375,-0.5340576171875
16.0699999,0.5123591423034668,-9.864110946655273,1.05105459690094,-0.5340576171875,0.4730224609375,-0.2288818359375
16.089999900000002,0.5171475410461426,-9.86650562286377,1.070208191871643,-0.0762939453125,0.9765625,-0.091552734375
16.109999900000002,0.5027823448181152,-9.883264541625977,1.0558429956436157,-0.18310546875,0.6103515625,0.030517578125
16.1299999,0.5003881454467773,-9.888052940368652,1.0630255937576294,-0.244140625,0.6866455078125,-0.396728515625
16.1499999,0.49320554733276367,-9.890447616577148,1.0582371950149536,-0.1220703125,0.48828125,-0.579833984375
16.1699999,0.4884171485900879,-9.897629737854004,1.0606313943862915,0.0152587890625,0.762939453125,-0.4425048828125
16.1899999,0.49799394607543945,-9.897629737854004,1.05105459690094,-0.2593994140625,0.762939453125,-0.30517578125
16.2099999,0.4884171485900879,-9.895236015319824,1.0606313943862915,-0.3509521484375,0.396728515625,-0.152587890625
16.2299999,0.5099649429321289,-9.892841339111328,1.0606313943862915,-0.18310546875,0.762939453125,-0.5950927734375
16.249999900000002,0.5003881454467773,-9.876082420349121,1.0845733880996704,0.1373291015625,0.6256103515625,-0.5645751953125
16.269999900000002,0.5315127968788147,-9.864110946655273,1.0797849893569946,-0.67138671875,0.3509521484375,-0.274658203125
16.2899999,0.5506663918495178,-9.830592155456543,1.1085153818130493,0.152587890625,1.03759765625,-0.2288818359375
16.3099999,0.5650315880775452,-9.813833236694336,1.1037269830703735,0,0.457763671875,0.0152587890625
16.3299999,0.5506663918495178,-9.813833236694336,1.1037269830703735,-0.3509521484375,0.762939453125,-0.6561279296875
16.3499999,0.5626373887062073,-9.804255485534668,1.1013327836990356,-0.030517578125,0.5035400390625,-0.7476806640625
16.3699999,0.5267243981361389,-9.847352027893066,1.072602391242981,0,0.6103515625,-0.213623046875
16.3899999,0.5267243981361389,-9.86889934539795,1.0654197931289673,-0.3204345703125,0.701904296875,-0.1678466796875
16.4099999,0.524330198764801,-9.861717224121094,1.0845733880996704,0.091552734375,0.5645751953125,-0.5340576171875
16.429999900000002,0.5195417404174805,-9.873687744140625,1.0773907899856567,-0.3814697265625,0.640869140625,-0.5340576171875
16.4499999,0.5386953949928284,-9.84256362915039,1.113303780555725,0.0762939453125,0.67138671875,-0.5950927734375
16.4699999,0.5506663918495178,-9.825803756713867,1.1037269830703735,-0.3814697265625,0.5035400390625,-0.06103515625
16.4899999,0.5554547905921936,-9.830592155456543,1.0893617868423462,-0.2288818359375,0.7476806640625,-0.1678466796875
16.5099999,0.5267243981361389,-9.849745750427246,1.0869675874710083,0.091552734375,0.5950927734375,-0.335693359375
16.5299999,0.49799394607543945,-9.873687744140625,1.0654197931289673,-0.335693359375,0.54931640625,-0.701904296875
16.5499999,0.49799394607543945,-9.888052940368652,1.0582371950149536,-0.213623046875,0.640869140625,-0.396728515625
16.5699999,0.4836287498474121,-9.880870819091797,1.0678139925003052,-0.06103515625,0.5950927734375,-0.1220703125
16.589999900000002,0.524330198764801,-9.86650562286377,1.0558429956436157,-0.1983642578125,0.6866455078125,-0.3509521484375
16.609999900000002,0.5051765441894531,-9.856928825378418,1.072602391242981,-0.1678466796875,0.4730224609375,-0.6103515625
16.6299999,0.5339069962501526,-9.849745750427246,1.0869675874710083,0.06103515625,0.823974609375,-0.54931640625
16.6499999,0.5315127968788147,-9.849745750427246,1.0869675874710083,-0.54931640625,0.457763671875,-0.2593994140625
16.6699999,0.5482721924781799,-9.830592155456543,1.1180921792984009,0.1220703125,0.732421875,-0.335693359375
16.6899999,0.5506663918495178,-9.837775230407715,1.1013327836990356,-0.030517578125,0.4425048828125,-0.3509521484375
16.7099999,0.5339069962501526,-9.854534149169922,1.0797849893569946,-0.4730224609375,0.54931640625,-0.5645751953125
16.7299999,0.49320554733276367,-9.885659217834473,1.0678139925003052,0.0457763671875,0.91552734375,-0.274658203125
16.749999900000002,0.49320554733276367,-9.883264541625977,1.0534487962722778,-0.213623046875,0.42724609375,0
16.769999900000002,0.4908113479614258,-9.888052940368652,1.0558429956436157,-0.274658203125,0.6561279296875,-0.5035400390625
16.7899999,0.507570743560791,-9.873687744140625,1.070208191871643,0.0762939453125,0.5035400390625,-0.7171630859375
16.8099999,0.5650315880775452,-9.837775230407715,1.0797849893569946,-0.2899169921875,0.6866455078125,-0.091552734375
16.8299999,0.5171475410461426,-9.871294021606445,1.0821791887283325,-0.2593994140625,0.7171630859375,-0.0152587890625
16.8499999,0.5650315880775452,-9.816226959228516,1.1037269830703735,0.030517578125,0.5950927734375,-0.54931640625
16.8699999,0.5147533416748047,-9.840168952941895,1.1013327836990356,-0.18310546875,0.6561279296875,-0.7171630859375
16.8899999,0.507570743560791,-9.854534149169922,1.0893617868423462,-0.3509521484375,0.3814697265625,-0.1678466796875
16.9099999,0.524330198764801,-9.859322547912598,1.072602391242981,-0.0762939453125,0.7476806640625,-0.1068115234375
16.929999900000002,0.5291185975074768,-9.880870819091797,1.0654197931289673,0.0457763671875,0.67138671875,-0.4730224609375
16.9499999,0.5363011956214905,-9.888052940368652,1.048660397529602,-0.518798828125,0.3204345703125,-0.7171630859375
16.9699999,0.5434837937355042,-9.8784761428833,1.072602391242981,-0.030517578125,0.8087158203125,-0.42724609375
16.9899999,0.5363011956214905,-9.861717224121094,1.0797849893569946,0.0152587890625,0.4425048828125,0.1220703125
17.0099999,0.5410895943641663,-9.840168952941895,1.0893617868423462,-0.3662109375,0.5340576171875,-0.48828125
17.0299999,0.5410895943641663,-9.823410034179688,1.1085153818130493,-0.06103515625,0.6561279296875,-0.6866455078125
17.0499999,0.5219359993934631,-9.823410034179688,1.1085153818130493,-0.1678466796875,0.5035400390625,-0.091552734375
17.0699999,0.5410895943641663,-9.813833236694336,1.1109095811843872,-0.335693359375,0.6561279296875,-0.213623046875
17.089999900000002,0.48602294921875,-9.871294021606445,1.0965443849563599,0,0.518798828125,-0.4119873046875
17.109999900000002,0.524330198764801,-9.859322547912598,1.070208191871643,-0.213623046875,0.6256103515625,-0.4119873046875
17.1299999,0.5363011956214905,-9.856928825378418,1.0821791887283325,-0.18310546875,0.762939453125,-0.274658203125
17.1499999,0.5363011956214905,-9.854534149169922,1.0630255937576294,-0.2899169921875,0.42724609375,-0.3662109375
17.1699999,0.5530605912208557,-9.847352027893066,1.0749965906143188,-0.213623046875,0.8087158203125,-0.5340576171875
17.1899999,0.5315127968788147,-9.852140426635742,1.0797849893569946,0,0.48828125,-0.3204345703125
17.2099999,0.5219359993934631,-9.864110946655273,1.0821791887283325,-0.42724609375,0.5645751953125,-0.1678466796875
17.2299999,0.524330198764801,-9.871294021606445,1.0845733880996704,0.0152587890625,0.8544921875,-0.335693359375
17.249999900000002,0.5410895943641663,-9.849745750427246,1.094150185585022,-0.18310546875,0.4730224609375,-0.4730224609375
17.269999900000002,0.5171475410461426,-9.871294021606445,1.0749965906143188,-0.3662109375,0.823974609375,-0.4730224609375
17.2899999,0.5171475410461426,-9.873687744140625,1.072602391242981,-0.0152587890625,0.5950927734375,-0.1373291015625
17.3099999,0.5051765441894531,-9.864110946655273,1.072602391242981,-0.213623046875,0.701904296875,-0.1068115234375
17.3299999,0.4884171485900879,-9.890447616577148,1.0558429956436157,-0.18310546875,0.6103515625,-0.6256103515625
17.3499999,0.524330198764801,-9.840168952941895,1.091755986213684,-0.152587890625,0.579833984375,-0.7171630859375
17.3699999,0.5410895943641663,-9.849745750427246,1.0893617868423462,-0.1068115234375,0.823974609375,-0.1220703125
17.3899999,0.5171475410461426,-9.856928825378418,1.091755986213684,-0.335693359375,0.3662109375,0
17.409999900000003,0.5578489899635315,-9.847352027893066,1.0965443849563599,0.030517578125,0.7781982421875,-0.54931640625
17.429999900000002,0.49799394607543945,-9.871294021606445,1.0869675874710083,-0.1678466796875,0.4730224609375,-0.42724609375
17.4499999,0.5386953949928284,-9.861717224121094,1.0797849893569946,-0.42724609375,0.5035400390625,-0.3662109375
17.4699999,0.5147533416748047,-9.859322547912598,1.091755986213684,0.030517578125,0.8392333984375,-0.396728515625
17.4899999,0.524330198764801,-9.871294021606445,1.0678139925003052,-0.3509521484375,0.4119873046875,-0.091552734375
17.5099999,0.5410895943641663,-9.832986831665039,1.1013327836990356,-0.1373291015625,0.823974609375,-0.335693359375
17.5299999,0.5171475410461426,-9.86889934539795,1.0797849893569946,-0.0152587890625,0.5035400390625,-0.457763671875
17.5499999,0.5315127968788147,-9.84495735168457,1.094150185585022,-0.244140625,0.640869140625,-0.3662109375
17.5699999,0.5386953949928284,-9.84256362915039,1.0965443849563599,-0.091552734375,0.7171630859375,-0.18310546875
17.589999900000002,0.5123591423034668,-9.86889934539795,1.0797849893569946,-0.030517578125,0.640869140625,-0.2593994140625
17.609999900000002,0.5171475410461426,-9.854534149169922,1.072602391242981,-0.396728515625,0.457763671875,-0.4119873046875
17.6299999,0.5315127968788147,-9.854534149169922,1.0606313943862915,-0.1373291015625,0.5950927734375,-0.48828125
17.6499999,0.524330198764801,-9.84256362915039,1.0845733880996704,0.213623046875,0.8087158203125,-0.244140625
17.6699999,0.5410895943641663,-9.849745750427246,1.0630255937576294,-0.732421875,0.3509521484375,-0.091552734375
17.6899999,0.5410895943641663,-9.840168952941895,1.1061211824417114,-0.030517578125,0.9307861328125,-0.457763671875
17.7099999,0.5267243981361389,-9.854534149169922,1.0893617868423462,0.0457763671875,0.4730224609375,-0.244140625
17.7299999,0.5291185975074768,-9.864110946655273,1.0893617868423462,-0.579833984375,0.6561279296875,-0.30517578125
17.749999900000002,0.5219359993934631,-9.859322547912598,1.0965443849563599,-0.0152587890625,0.67138671875,-0.457763671875
17.769999900000002,0.5315127968788147,-9.86889934539795,1.0845733880996704,-0.1373291015625,0.48828125,-0.06103515625
17.7899999,0.524330198764801,-9.864110946655273,1.0797849893569946,-0.3662109375,0.8087158203125,-0.1220703125
17.8099999,0.5339069962501526,-9.861717224121094,1.072602391242981,0,0.5340576171875,-0.244140625
17.8299999,0.5506663918495178,-9.840168952941895,1.0773907899856567,-0.1678466796875,0.5950927734375,-0.335693359375
17.8499999,0.5386953949928284,-9.84495735168457,1.072602391242981,-0.6866455078125,0.579833984375,-0.244140625
17.8699999,0.5386953949928284,-9.847352027893066,1.0869675874710083,0.335693359375,0.79345703125,-0.4730224609375
17.8899999,0.5195417404174805,-9.86650562286377,1.0797849893569946,-0.6256103515625,0.3662109375,-0.2899169921875
17.909999900000003,0.5267243981361389,-9.859322547912598,1.0821791887283325,-0.244140625,0.6866455078125,-0.2288818359375
17.929999900000002,0.5315127968788147,-9.854534149169922,1.091755986213684,0.152587890625,0.6103515625,-0.2593994140625
17.9499999,0.5410895943641663,-9.835380554199219,1.0893617868423462,-0.54931640625,0.4119873046875,-0.4425048828125
17.9699999,0.5339069962501526,-9.854534149169922,1.0845733880996704,-0.06103515625,0.701904296875,-0.48828125
17.9899999,0.5219359993934631,-9.864110946655273,1.094150185585022,-0.0152587890625,0.640869140625,-0.244140625
18.0099999,0.524330198764801,-9.873687744140625,1.0773907899856567,-0.335693359375,0.6866455078125,-0.1068115234375
18.0299999,0.5315127968788147,-9.871294021606445,1.0797849893569946,-0.0457763671875,0.6103515625,-0.48828125
18.0499999,0.5410895943641663,-9.84256362915039,1.0965443849563599,-0.1678466796875,0.518798828125,-0.5645751953125
18.0699999,0.5386953949928284,-9.861717224121094,1.0678139925003052,-0.6103515625,0.54931640625,-0.3509521484375
18.089999900000002,0.5291185975074768,-9.854534149169922,1.1109095811843872,0.2593994140625,0.79345703125,-0.42724609375
18.109999900000002,0.5195417404174805,-9.871294021606445,1.0797849893569946,-0.48828125,0.2899169921875,-0.1678466796875
18.1299999,0.5291185975074768,-9.86650562286377,1.0893617868423462,-0.335693359375,0.79345703125,-0.4119873046875
18.1499999,0.5434837937355042,-9.828198432922363,1.1013327836990356,0.18310546875,0.6866455078125,-0.2593994140625
18.1699999,0.5339069962501526,-9.84495735168457,1.0630255937576294,-0.457763671875,0.48828125,-0.2899169921875
18.1899999,0.5195417404174805,-9.847352027893066,1.0749965906143188,-0.152587890625,0.823974609375,-0.457763671875
18.2099999,0.49799394607543945,-9.86650562286377,1.0558429956436157,-0.091552734375,0.4425048828125,-0.274658203125
18.2299999,0.49799394607543945,-9.883264541625977,1.0462661981582642,-0.274658203125,0.7171630859375,-0.274658203125
18.249999900000002,0.5147533416748047,-9.856928825378418,1.072602391242981,-0.0762939453125,0.6256103515625,-0.518798828125
18.269999900000002,0.5434837937355042,-9.837775230407715,1.094150185585022,0.06103515625,0.518798828125,-0.579833984375
18.2899999,0.5506663918495178,-9.84495735168457,1.0965443849563599,-0.5950927734375,0.5645751953125,-0.244140625
18.3099999,0.5386953949928284,-9.84256362915039,1.1228805780410767,0.152587890625,0.823974609375,0.0457763671875
18.3299999,0.5123591423034668,-9.86889934539795,1.0869675874710083,-0.3509521484375,0.6256103515625,-0.79345703125
18.3499999,0.5219359993934631,-9.854534149169922,1.0797849893569946,0.1678466796875,0.6866455078125,-0.7781982421875
18.3699999,0.5410895943641663,-9.849745750427246,1.0582371950149536,-0.54931640625,0.5340576171875,-0.1220703125
18.3899999,0.5482721924781799,-9.823410034179688,1.0797849893569946,-0.3204345703125,0.732421875,0.06103515625
18.409999900000003,0.5386953949928284,-9.849745750427246,1.0654197931289673,0.0762939453125,0.5035400390625,-0.091552734375
18.429999900000002,0.5315127968788147,-9.84495735168457,1.070208191871643,-0.213623046875,0.6866455078125,-0.6866455078125
18.4499999,0.5099649429321289,-9.885659217834473,1.072602391242981,-0.1068115234375,0.6103515625,-0.3662109375
18.4699999,0.5171475410461426,-9.876082420349121,1.091755986213684,0.1068115234375,0.5950927734375,-0.1068115234375
18.4899999,0.5219359993934631,-9.880870819091797,1.0869675874710083,-0.6561279296875,0.5340576171875,-0.244140625
18.5099999,0.5363011956214905,-9.849745750427246,1.1276689767837524,0.1983642578125,0.640869140625,-0.6256103515625
18.5299999,0.5291185975074768,-9.856928825378418,1.1037269830703735,-0.3509521484375,0.518798828125,-0.18310546875
18.5499999,0.5291185975074768,-9.854534149169922,1.0965443849563599,-0.213623046875,0.7171630859375,-0.3204345703125
18.5699999,0.5195417404174805,-9.871294021606445,1.070208191871643,0.091552734375,0.5645751953125,-0.4119873046875
18.589999900000002,0.5219359993934631,-9.864110946655273,1.05105459690094,-0.3509521484375,0.5340576171875,-0.213623046875
18.609999900000002,0.5291185975074768,-9.849745750427246,1.0630255937576294,-0.1373291015625,0.7476806640625,-0.1373291015625
18.6299999,0.524330198764801,-9.847352027893066,1.0654197931289673,-0.0762939453125,0.54931640625,-0.0457763671875
18.6499999,0.5267243981361389,-9.830592155456543,1.0678139925003052,-0.335693359375,0.79345703125,-0.4425048828125
18.6699999,0.5051765441894531,-9.880870819091797,1.0773907899856567,-0.1220703125,0.3814697265625,-0.6561279296875
18.6899999,0.5339069962501526,-9.835380554199219,1.0630255937576294,-0.1983642578125,0.6103515625,-0.2288818359375
18.7099999,0.524330198764801,-9.897629737854004,1.094150185585022,-0.0762939453125,0.732421875,-0.0457763671875
18.7299999,0.5219359993934631,-9.852140426635742,1.0821791887283325,-0.4425048828125,0.42724609375,-0.213623046875
18.749999900000002,0.545877993106842,-9.864110946655273,1.1037269830703735,0.030517578125,0.6866455078125,-0.5645751953125
18.769999900000002,0.507570743560791,-9.864110946655273,1.0965443849563599,-0.1068115234375,0.5950927734375,-0.18310546875
18.7899999,0.5410895943641663,-9.852140426635742,1.0845733880996704,-0.4119873046875,0.6866455078125,-0.4425048828125
18.8099999,0.5267243981361389,-9.852140426635742,1.0869675874710083,-0.1068115234375,0.732421875,-0.1220703125
18.8299999,0.5291185975074768,-9.835380554199219,1.1037269830703735,0,0.6256103515625,-0.06103515625
18.8499999,0.5171475410461426,-9.832986831665039,1.072602391242981,-0.6103515625,0.4425048828125,-0.5035400390625
18.8699999,0.5267243981361389,-9.816226959228516,1.1037269830703735,0.152587890625,0.8087158203125,-0.67138671875
18.8899999,0.5315127968788147,-9.832986831665039,1.0797849893569946,-0.3662109375,0.6103515625,-0.0457763671875
18.909999900000003,0.5386953949928284,-9.84495735168457,1.0773907899856567,-0.213623046875,0.701904296875,-0.06103515625
18.929999900000002,0.5386953949928284,-9.854534149169922,1.0989385843276978,-0.030517578125,0.579833984375,-0.30517578125
18.9499999,0.5291185975074768,-9.861717224121094,1.091755986213684,-0.3662109375,0.518798828125,-0.54931640625
18.9699999,0.5195417404174805,-9.890447616577148,1.0845733880996704,-0.152587890625,0.6561279296875,-0.6256103515625
18.9899999,0.5291185975074768,-9.885659217834473,1.1037269830703735,0.18310546875,0.7476806640625,-0.2593994140625
19.0099999,0.5147533416748047,-9.919178009033203,1.0438719987869263,-0.5950927734375,0.4730224609375,-0.06103515625
19.0299999,0.5339069962501526,-9.890447616577148,1.0749965906143188,0,0.6866455078125,-0.6103515625
19.0499999,0.5386953949928284,-9.86889934539795,1.05105459690094,-0.213623046875,0.54931640625,-0.3814697265625
19.0699999,0.5267243981361389,-9.837775230407715,1.0749965906143188,-0.2288818359375,0.8392333984375,-0.0457763671875
19.089999900000002,0.5482721924781799,-9.823410034179688,1.1061211824417114,-0.0152587890625,0.54931640625,-0.3662109375
19.109999900000002,0.5123591423034668,-9.830592155456543,1.0989385843276978,-0.4119873046875,0.518798828125,-0.518798828125
19.1299999,0.5171475410461426,-9.837775230407715,1.0989385843276978,-0.0457763671875,0.640869140625,-0.4425048828125
19.1499999,0.4908113479614258,-9.883264541625977,1.0821791887283325,0.0762939453125,0.4119873046875,-0.48828125
19.1699999,0.5267243981361389,-9.847352027893066,1.070208191871643,-0.5035400390625,0.7171630859375,-0.6103515625
19.1899999,0.5099649429321289,-9.883264541625977,1.070208191871643,0.2899169921875,0.579833984375,-0.3204345703125
19.2099999,0.5291185975074768,-9.876082420349121,1.0965443849563599,0.1983642578125,0.732421875,-0.1220703125
19.2299999,0.5291185975074768,-9.873687744140625,1.091755986213684,-0.8544921875,0.4425048828125,-0.3814697265625
19.249999900000002,0.5171475410461426,-9.880870819091797,1.0965443849563599,-0.701904296875,0.48828125,-0.457763671875
19.269999900000002,0.5195417404174805,-9.847352027893066,1.0869675874710083,0.396728515625,1.007080078125,-0.1983642578125
19.2899999,0.49320554733276367,-9.876082420349121,1.0534487962722778,-0.30517578125,0.2593994140625,-0.518798828125
19.3099999,0.5171475410461426,-9.84256362915039,1.0582371950149536,-0.579833984375,0.3662109375,-1.129150390625
19.3299999,0.5195417404174805,-9.861717224121094,1.0678139925003052,0,0.7171630859375,-0.244140625
19.3499999,0.5482721924781799,-9.835380554199219,1.0821791887283325,-0.152587890625,0.6866455078125,0.0762939453125
19.3699999,0.5578489899635315,-9.840168952941895,1.0989385843276978,-0.3814697265625,0.4119873046875,-0.396728515625
19.3899999,0.5219359993934631,-9.856928825378418,1.0773907899856567,-0.1678466796875,0.640869140625,-0.6866455078125
19.409999900000003,0.4884171485900879,-9.8784761428833,1.0558429956436157,0,0.6256103515625,-0.732421875
19.429999900000002,0.47884035110473633,-9.888052940368652,1.05105459690094,-0.3814697265625,0.1983642578125,-0.7781982421875
19.4499999,0.5123591423034668,-9.871294021606445,1.0630255937576294,-0.2288818359375,0.3509521484375,-0.5340576171875
19.4699999,0.5339069962501526,-9.847352027893066,1.0965443849563599,0.2593994140625,-0.6103515625,0.4425048828125
19.4899999,0.5386953949928284,-9.861717224121094,1.094150185585022,0.0762939453125,-2.288818359375,0.7171630859375
19.5099999,0.5339069962501526,-9.86889934539795,1.0965443849563599,-0.2593994140625,-0.762939453125,-0.8544921875
19.5299999,0.5171475410461426,-9.880870819091797,1.0773907899856567,0.1983642578125,0.2288818359375,-1.007080078125
19.5499999,0.5363011956214905,-9.859322547912598,1.0821791887283325,-0.3204345703125,-0.2899169921875,-0.18310546875
19.5699999,0.5793967843055725,-9.835380554199219,1.0845733880996704,-0.2899169921875,0.152587890625,-0.1983642578125
19.589999900000002,0.5817909836769104,-9.821015357971191,1.0893617868423462,0.091552734375,0,0
19.609999900000002,0.5602431893348694,-9.84495735168457,1.0773907899856567,-0.2288818359375,-1.068115234375,0.457763671875
19.6299999,0.5171475410461426,-9.864110946655273,1.0965443849563599,0.1220703125,-1.800537109375,-0.030517578125
19.6499999,0.4668693244457245,-9.880870819091797,1.0965443849563599,-0.091552734375,-1.617431640625,-1.007080078125
19.6699999,0.47644615173339844,-9.86889934539795,1.1180921792984009,-0.3509521484375,-1.251220703125,-0.885009765625
19.6899999,0.5219359993934631,-9.84256362915039,1.1061211824417114,-0.3662109375,-1.7242431640625,-0.1220703125
19.7099999,0.569819986820221,-9.84495735168457,1.0869675874710083,0.1220703125,0.030517578125,-0.0457763671875
19.7299999,0.608127236366272,-9.852140426635742,1.0558429956436157,0.1373291015625,0.9613037109375,0.1678466796875
19.749999900000002,0.6057330369949341,-9.86650562286377,1.0797849893569946,-0.0152587890625,0.8544921875,0.1068115234375
19.769999900000002,0.5506663918495178,-9.8784761428833,1.0582371950149536,-0.54931640625,0.4119873046875,-0.457763671875
19.7899999,0.5506663918495178,-9.847352027893066,1.1037269830703735,-0.274658203125,0.2899169921875,-1.1444091796875
19.8099999,0.524330198764801,-9.84256362915039,1.0845733880996704,-0.274658203125,0.4425048828125,-0.9613037109375
19.8299999,0.5339069962501526,-9.854534149169922,1.0606313943862915,-0.1678466796875,0.6103515625,-0.3204345703125
19.8499999,0.5434837937355042,-9.873687744140625,1.0319008827209473,-0.0762939453125,0.6103515625,-0.0152587890625
19.8699999,0.5363011956214905,-9.9000244140625,1.0438719987869263,0.2593994140625,0.8544921875,0.1220703125
19.8899999,0.524330198764801,-9.885659217834473,1.0534487962722778,-0.244140625,0.4425048828125,0.1220703125
19.909999900000003,0.5315127968788147,-9.861717224121094,1.0965443849563599,-0.244140625,0.5035400390625,-0.5340576171875
19.929999900000002,0.5147533416748047,-9.840168952941895,1.0989385843276978,-0.2288818359375,0.6561279296875,-0.701904296875
19.9499999,0.5291185975074768,-9.830592155456543,1.0893617868423462,-0.244140625,0.67138671875,-0.4730224609375
19.9699999,0.524330198764801,-9.856928825378418,1.05105459690094,-0.3204345703125,0.732421875,-0.030517578125
19.9899999,0.5363011956214905,-9.861717224121094,1.072602391242981,0.396728515625,0.8697509765625,-0.091552734375
20.0099999,0.524330198764801,-9.880870819091797,1.0749965906143188,-0.5035400390625,0.4425048828125,-0.152587890625
20.0299999,0.5219359993934631,-9.859322547912598,1.1061211824417114,-0.3509521484375,0.48828125,-0.6866455078125
20.0499999,0.524330198764801,-9.854534149169922,1.115697979927063,-0.06103515625,0.518798828125,-0.9613037109375
20.0699999,0.5363011956214905,-9.840168952941895,1.091755986213684,-0.3814697265625,0.5645751953125,-0.6256103515625
20.089999900000002,0.5578489899635315,-9.859322547912598,1.0582371950149536,-0.1678466796875,0.8087158203125,0
20.109999900000002,0.5626373887062073,-9.86650562286377,1.0582371950149536,0.579833984375,0.701904296875,0.2288818359375
20.1299999,0.5578489899635315,-9.883264541625977,1.0558429956436157,-0.6103515625,0.30517578125,0.335693359375
20.1499999,0.5339069962501526,-9.871294021606445,1.0869675874710083,-0.457763671875,0.5950927734375,-0.2899169921875
20.1699999,0.5315127968788147,-9.84495735168457,1.1061211824417114,0.0762939453125,0.640869140625,-0.54931640625
20.1899999,0.5147533416748047,-9.835380554199219,1.0869675874710083,-0.3814697265625,0.48828125,-0.4730224609375
20.2099999,0.5267243981361389,-9.84495735168457,1.0534487962722778,-0.335693359375,0.67138671875,-0.4425048828125
20.2299999,0.5195417404174805,-9.8784761428833,1.039083480834961,0.2593994140625,0.48828125,0.1373291015625
20.249999900000002,0.5219359993934631,-9.892841339111328,1.0438719987869263,-0.2288818359375,0.5645751953125,0.4425048828125
20.269999900000002,0.524330198764801,-9.890447616577148,1.0845733880996704,-0.213623046875,0.7171630859375,-0.4425048828125
20.2899999,0.5363011956214905,-9.854534149169922,1.1228805780410767,-0.2288818359375,0.640869140625,-0.5340576171875
20.3099999,0.5506663918495178,-9.823410034179688,1.1252747774124146,-0.3814697265625,0.6256103515625,0.0457763671875
20.3299999,0.5482721924781799,-9.825803756713867,1.1204863786697388,0.213623046875,0.9765625,0.0762939453125
20.3499999,0.5291185975074768,-9.849745750427246,1.0678139925003052,-0.0457763671875,0.54931640625,-0.3662109375
20.3699999,0.5099649429321289,-9.888052940368652,1.0462661981582642,-0.579833984375,0.4119873046875,-0.579833984375
20.3899999,0.5003881454467773,-9.9000244140625,1.048660397529602,0.0457763671875,0.7781982421875,-0.1983642578125
20.409999900000003,0.5123591423034668,-9.883264541625977,1.070208191871643,-0.152587890625,0.6256103515625,0.213623046875
20.429999900000002,0.5339069962501526,-9.864110946655273,1.0773907899856567,-0.5340576171875,0.4425048828125,-0.0762939453125
20.4499999,0.5434837937355042,-9.828198432922363,1.113303780555725,0.2593994140625,0.9307861328125,-0.579833984375
20.4699999,0.5315127968788147,-9.84256362915039,1.0749965906143188,-0.2899169921875,0.457763671875,-0.5340576171875
