# Time (seconds),Accel_X,Accel_Y,Accel_Z,Gyro_X,Gyro_Y,Gyro_Z
0.0099999,-10.096348762512207,0.5722141861915588,-0.38307225704193115,10.6353759765625,2.105712890625,8.026123046875
0.029999900000000003,-10.007762908935547,0.667982280254364,-0.4165911078453064,9.8724365234375,-0.4730224609375,8.1634521484375
0.0499999,-9.976638793945312,0.7709329724311829,-0.31603461503982544,7.843017578125,-1.15966796875,7.99560546875
0.0699999,-9.971850395202637,0.8882488012313843,-0.090979665517807,5.9051513671875,-1.5716552734375,8.4381103515625
0.08999990000000001,-9.962273597717285,1.0055646896362305,0.15322890877723694,2.86865234375,-0.518798828125,9.063720703125
0.10999990000000001,-9.921571731567383,1.1228805780410767,0.3280056416988373,2.471923828125,0.8087158203125,7.354736328125
0.1299999,-9.871294021606445,1.2186486721038818,0.4189853072166443,7.3699951171875,-0.2899169921875,3.692626953125
0.14999990000000002,-9.80904483795166,1.3311761617660522,0.42616790533065796,11.6119384765625,-2.25830078125,1.0223388671875
0.1699999,-9.804255485534668,1.4508862495422363,0.40222588181495667,11.7950439453125,-2.2430419921875,-1.46484375
0.1899999,-9.847352027893066,1.5514427423477173,0.35434186458587646,11.993408203125,-1.6632080078125,-5.7220458984375
0.20999990000000002,-9.926360130310059,1.623268723487854,0.33758243918418884,12.0697021484375,-1.9989013671875,-9.3536376953125
0.2299999,-10.000580787658691,1.6208745241165161,0.3423708379268646,9.521484375,-2.777099609375,-10.528564453125
0.2499999,-10.041281700134277,1.4724340438842773,0.38307225704193115,4.669189453125,-1.4495849609375,-10.3607177734375
0.2699999,-10.043676376342773,1.1875240802764893,0.42856210470199585,1.5106201171875,0.8544921875,-8.819580078125
0.28999990000000003,-10.022128105163574,0.828393816947937,0.49320554733276367,2.227783203125,1.2359619140625,-5.340576171875
0.3099999,-9.99100399017334,0.4908113479614258,0.5027823448181152,3.204345703125,1.0833740234375,-0.457763671875
0.3299999,-9.959878921508789,0.272938996553421,0.45489832758903503,3.7841796875,1.190185546875,2.899169921875
0.34999990000000003,-9.955090522766113,0.1867477297782898,0.31603461503982544,5.8441162109375,-0.0762939453125,3.936767578125
0.3699999,-9.95748519897461,0.2585737705230713,0.14844051003456116,9.6435546875,-3.9520263671875,5.1422119140625
0.3899999,-9.962273597717285,0.4213795065879822,-0.019153613597154617,11.474609375,-8.0718994140625,6.805419921875
0.40999990000000003,-9.967061996459961,0.6320692300796509,-0.0933738648891449,10.467529296875,-10.101318359375,6.65283203125
0.4299999,-9.96945571899414,0.8379706144332886,-0.043095629662275314,7.720947265625,-10.4522705078125,5.7525634765625
0.4499999,-9.967061996459961,1.0414776802062988,0.11971008777618408,3.662109375,-9.8114013671875,6.103515625
0.4699999,-9.976638793945312,1.1899182796478271,0.33518823981285095,-0.091552734375,-8.6517333984375,6.34765625
0.4899999,-9.967061996459961,1.2856862545013428,0.5339069962501526,-2.655029296875,-7.049560546875,5.096435546875
0.5099999,-9.928754806518555,1.3096283674240112,0.6512228846549988,-3.997802734375,-5.9661865234375,3.692626953125
0.5299999,-9.86889934539795,1.2856862545013428,0.689530074596405,-2.471923828125,-6.65283203125,3.387451171875
0.5499999,-9.832986831665039,1.2258312702178955,0.6919242739677429,0.5035400390625,-7.7972412109375,3.2501220703125
0.5699999,-9.84495735168457,1.1540051698684692,0.6991068720817566,2.6397705078125,-7.14111328125,2.2735595703125
0.5899998999999999,-9.880870819091797,1.0989385843276978,0.7182605266571045,3.0364990234375,-5.1422119140625,2.3956298828125
0.6099998999999999,-9.909601211547852,1.0869675874710083,0.751779317855835,3.631591796875,-4.730224609375,3.23486328125
0.6299999,-9.892841339111328,1.1228805780410767,0.7733271718025208,3.84521484375,-5.2032470703125,2.4871826171875
0.6499999,-9.856928825378418,1.192312479019165,0.7924807667732239,2.3040771484375,-4.1656494140625,0.2593994140625
0.6699999,-9.823410034179688,1.2665326595306396,0.7805097699165344,0.1373291015625,-2.38037109375,-1.312255859375
0.6899999,-9.832986831665039,1.3263877630233765,0.7709329724311829,1.2359619140625,-2.9754638671875,-1.5106201171875
0.7099999,-9.873687744140625,1.359906554222107,0.7422025203704834,4.2877197265625,-4.6539306640625,-2.5634765625
0.7299998999999999,-9.90241813659668,1.3694833517074585,0.6751648783683777,5.126953125,-4.8065185546875,-4.638671875
0.7499998999999999,-9.921571731567383,1.3910311460494995,0.6105214357376099,4.852294921875,-5.6610107421875,-6.7291259765625
0.7699999,-9.9000244140625,1.3838485479354858,0.5650315880775452,6.40869140625,-8.1939697265625,-8.3465576171875
0.7899999,-9.871294021606445,1.3455413579940796,0.5650315880775452,7.38525390625,-9.58251953125,-9.5062255859375
0.8099999,-9.861717224121094,1.2761094570159912,0.6153098344802856,5.2642822265625,-8.880615234375,-10.0555419921875
0.8299999,-9.864110946655273,1.1659762859344482,0.6560112833976746,2.74658203125,-8.6517333984375,-9.857177734375
0.8499998999999999,-9.876082420349121,1.0342950820922852,0.7015010714530945,4.5166015625,-11.0626220703125,-9.124755859375
0.8699998999999999,-9.885659217834473,0.8906430602073669,0.706289529800415,8.697509765625,-13.5040283203125,-8.026123046875
0.8899999,-9.885659217834473,0.7398083209991455,0.6488286852836609,12.420654296875,-14.7552490234375,-7.0953369140625
0.9099999,-9.6989107131958,0.6177040338516235,0.6392518281936646,18.6004638671875,-18.096923828125,-5.9051513671875
0.9299999,-9.696516990661621,0.5410895943641663,0.727837324142456,23.7274169921875,-21.331787109375,-5.6304931640625
0.9499999,-9.564835548400879,0.5722141861915588,0.9313444495201111,21.6522216796875,-19.5465087890625,-5.7830810546875
0.9699998999999999,-9.586383819580078,0.6320692300796509,1.2425906658172607,14.6636962890625,-14.495849609375,-4.913330078125
0.9899998999999999,-9.691728591918945,0.790086567401886,1.6711528301239014,7.62939453125,-10.80322265625,-3.47900390625
1.0099999,-9.691728591918945,0.9409212470054626,2.0422539710998535,-2.2735595703125,-5.0048828125,-1.739501953125
1.0299999,-9.66539192199707,1.0797849893569946,2.300827741622925,-11.688232421875,2.105712890625,-0.762939453125
1.0499999,-9.617507934570312,1.1180921792984009,2.3965959548950195,-15.2130126953125,6.8511962890625,-0.8392333984375
1.0699999,-9.57441234588623,1.1468225717544556,2.2864625453948975,-15.3350830078125,9.9945068359375,-0.701904296875
1.0899999,-9.634267807006836,1.1180921792984009,1.9991583824157715,-14.9383544921875,13.3514404296875,-0.762939453125
1.1099999,-9.751583099365234,1.0319008827209473,1.5490485429763794,-10.467529296875,14.4805908203125,-2.7313232421875
1.1299999,-9.890447616577148,0.950498104095459,1.094150185585022,-0.6561279296875,7.2021484375,-4.5013427734375
1.1499999,-9.93354320526123,0.8307880163192749,0.6991068720817566,7.4462890625,2.0751953125,-4.7607421875
1.1699998999999999,-9.952696800231934,0.7469909191131592,0.4189853072166443,10.0250244140625,0.946044921875,-5.6304931640625
1.1899998999999999,-9.909601211547852,0.629675030708313,0.31603461503982544,12.5885009765625,-1.64794921875,-7.904052734375
1.2099999,-9.96945571899414,0.5626373887062073,0.33758243918418884,16.41845703125,-6.9732666015625,-8.270263671875
1.2299999,-9.99100399017334,0.47644615173339844,0.4620809257030487,17.6239013671875,-10.711669921875,-6.6375732421875
1.2499999,-10.06043529510498,0.43095630407333374,0.5817909836769104,16.448974609375,-12.6190185546875,-5.6610107421875
1.2699999,-10.036493301391602,0.4165911078453064,0.8020575642585754,17.15087890625,-16.3421630859375,-5.43212890625
1.2899999,-9.943120002746582,0.4884171485900879,1.01753568649292,15.716552734375,-18.7530517578125,-1.28173828125
1.3099999,-9.837775230407715,0.629675030708313,1.2258312702178955,10.5133056640625,-16.082763671875,2.9754638671875
1.3299999,-9.80904483795166,0.768538773059845,1.3048399686813354,8.1024169921875,-12.3443603515625,2.6702880859375
1.3499999,-9.813833236694336,0.9361328482627869,1.4269442558288574,11.016845703125,-12.4359130859375,-1.7547607421875
1.3699999,-9.86889934539795,1.1180921792984009,1.4844050407409668,8.1787109375,-14.4805908203125,-4.1046142578125
1.3899999,-9.86650562286377,1.2497732639312744,1.6208745241165161,-2.7923583984375,-9.21630859375,-5.218505859375
1.4099999,-9.818621635437012,1.3072341680526733,1.723825216293335,-11.77978515625,-4.180908203125,-9.033203125
1.4299998999999999,-9.780313491821289,1.237802267074585,1.723825216293335,-12.969970703125,-7.110595703125,-12.359619140625
1.4499999,-9.787496566772461,0.9768342971801758,1.5897499322891235,-9.2010498046875,-11.1541748046875,-13.4429931640625
1.4699999,-9.86650562286377,0.5937620401382446,1.4532804489135742,-1.52587890625,-15.777587890625,-11.1541748046875
1.4899999,-9.964667320251465,0.21308395266532898,1.3072341680526733,9.674072265625,-22.0794677734375,-4.2266845703125
1.5099999,-9.959878921508789,-0.06464344263076782,1.482010841369629,19.134521484375,-18.8751220703125,5.67626953125
1.5299999,-9.818621635437012,0.1628057211637497,1.7549498081207275,11.688232421875,-13.031005859375,1.5716552734375
1.5499999,-9.619902610778809,0.5363011956214905,2.183511972427368,2.6702880859375,-10.5743408203125,-1.2359619140625
1.5699999,-9.466673851013184,0.8882488012313843,2.612074136734009,-8.7738037109375,-0.9002685546875,-1.5869140625
1.5899999,-9.385271072387695,1.0821791887283325,2.956839084625244,-20.9808349609375,8.758544921875,-3.2958984375
1.6099999,-9.457097053527832,0.9983820915222168,3.026270866394043,-25.6500244140625,11.4593505859375,-4.7149658203125
1.6299999,-9.59835433959961,0.7230489253997803,2.868253707885742,-21.2249755859375,8.0718994140625,-4.486083984375
1.6499999,-9.691728591918945,0.3878606855869293,2.4420857429504395,-12.664794921875,1.3275146484375,0.732421875
1.6699999,-9.761159896850586,0.13407529890537262,1.944091796875,-3.2958984375,-2.532958984375,7.4920654296875
1.6899998999999999,-9.818621635437012,0.08140286058187485,1.5179238319396973,5.218505859375,-1.3580322265625,7.4310302734375
1.7099999,-9.895236015319824,0.26096799969673157,1.2689268589019775,10.4217529296875,-2.25830078125,1.495361328125
1.7299999,-10.041281700134277,0.5267243981361389,1.3072341680526733,11.627197265625,-6.0577392578125,-1.3885498046875
1.7499999,-10.11550235748291,0.790086567401886,1.5418659448623657,9.307861328125,-2.593994140625,-1.0986328125
1.7699999,-10.139444351196289,0.8379706144332886,1.86508309841156,4.08935546875,1.3580322265625,-2.0294189453125
1.7899999,-10.098742485046387,0.7829039692878723,2.185906171798706,-1.7242431640625,1.190185546875,-2.532958984375
1.8099999,-9.921571731567383,0.6033388376235962,2.3343467712402344,-7.7362060546875,-0.3662109375,-2.1514892578125
1.8299999,-9.727641105651855,0.5746083855628967,2.5689783096313477,-13.61083984375,-0.701904296875,2.7008056640625
1.8499999,-9.50498104095459,0.6057330369949341,2.5905263423919678,-28.5491943359375,9.1552734375,4.119873046875
1.8699999,-9.35893440246582,0.6775590777397156,2.580949544906616,-31.6619873046875,16.326904296875,2.3193359375
1.8899999,-9.344569206237793,0.7182605266571045,2.367865562438965,-12.9241943359375,11.322021484375,0.5340576171875
1.9099999,-9.440337181091309,0.6392518281936646,1.9704279899597168,9.9945068359375,5.4168701171875,-2.01416015625
1.9299998999999999,-9.5624418258667,0.5554547905921936,1.577778935432434,29.5562744140625,0.274658203125,-5.523681640625
1.9499999,-9.696516990661621,0.5123591423034668,1.3551181554794312,39.4439697265625,-3.23486328125,-7.8887939453125
1.9699999,-9.768342971801758,0.5147533416748047,1.3646949529647827,36.1328125,-2.2735595703125,-7.476806640625
1.9899999,-9.804255485534668,0.5650315880775452,1.6136919260025024,26.031494140625,1.434326171875,-5.9814453125
2.0099999,-9.763554573059082,0.6392518281936646,1.9536685943603516,15.625,6.0577392578125,-5.4779052734375
2.0299999,-9.68933391571045,0.7206547260284424,2.2840683460235596,6.378173828125,10.4522705078125,-5.7525634765625
2.0499999,-9.617507934570312,0.7996633648872375,2.4899697303771973,-1.28173828125,14.58740234375,-6.1187744140625
2.0699999,-9.612719535827637,0.8475474119186401,2.5785553455352783,-6.4849853515625,18.402099609375,-6.6070556640625
2.0899999,-9.617507934570312,0.8595184087753296,2.5115175247192383,-9.9029541015625,21.3775634765625,-7.568359375
2.1099999,-9.653421401977539,0.8427590131759644,2.2457611560821533,-12.481689453125,22.430419921875,-8.087158203125
2.1299999,-9.701305389404297,0.7709329724311829,1.8387469053268433,-12.176513671875,18.951416015625,-9.4146728515625
2.1499999,-9.799467086791992,0.6560112833976746,1.335964560508728,-10.772705078125,13.702392578125,-10.25390625
2.1699999,-9.964667320251465,0.47884035110473633,0.8882488012313843,-7.2784423828125,8.2244873046875,-9.82666015625
2.1899999,-10.192116737365723,0.22505496442317963,0.5985504388809204,-2.685546875,2.9296875,-7.537841796875
2.2099999,-10.429142951965332,0.023942016065120697,0.5530605912208557,1.2054443359375,-0.6103515625,-4.3792724609375
2.2299999,-10.536881446838379,-0.1843535304069519,0.7709329724311829,5.4931640625,-1.64794921875,-1.4190673828125
2.2499999,-10.345345497131348,-0.2753331959247589,1.1540051698684692,10.1318359375,-0.3509521484375,3.0975341796875
2.2699999,-9.964667320251465,-0.26815059781074524,1.5394717454910278,14.2822265625,5.645751953125,17.08984375
2.2899999,-9.531316757202148,-0.21547815203666687,1.8962076902389526,17.425537109375,-7.4920654296875,35.8428955078125
2.3099999,-9.193734169006348,-0.1149216815829277,2.006340980529785,15.0146484375,-17.7001953125,32.1044921875
2.3299999,-9.162610054016113,0.004788403399288654,1.9752163887023926,11.4593505859375,-0.823974609375,10.8795166015625
2.3499999,-9.160215377807617,0.21547815203666687,1.7908629179000854,10.4827880859375,15.411376953125,-2.7618408203125
2.3699999,-9.387664794921875,0.4644751250743866,1.5322890281677246,13.00048828125,11.9171142578125,3.143310546875
2.3899999,-9.555258750915527,0.7996633648872375,1.280897855758667,15.8233642578125,6.622314453125,1.220703125
2.4099999,-9.861717224121094,1.1061211824417114,1.0031704902648926,10.223388671875,3.0670166015625,-1.0223388671875
2.4299999,-10.134655952453613,1.3335703611373901,0.8236053586006165,-5.096435546875,-0.2593994140625,-1.15966796875
2.4499999,-10.247182846069336,1.4173674583435059,0.689530074596405,-20.660400390625,-2.8839111328125,-2.2735595703125
2.4699999,-10.192116737365723,1.3263877630233765,0.6751648783683777,-26.611328125,-4.7149658203125,-3.41796875
2.4899999,-10.000580787658691,1.0654197931289673,0.7709329724311829,-23.8494873046875,-6.561279296875,-3.35693359375
2.5099999,-9.818621635437012,0.706289529800415,0.9792284965515137,-18.5089111328125,-7.1868896484375,-1.5106201171875
2.5299999,-9.737217903137207,0.3208230137825012,1.2066776752471924,-13.1378173828125,-6.89697265625,1.3275146484375
2.5499999,-9.785101890563965,-0.031124621629714966,1.4484920501708984,-5.6915283203125,-7.32421875,4.2266845703125
2.5699999,-9.864110946655273,-0.14844051003456116,1.6879122257232666,1.190185546875,-6.9427490234375,7.4462890625
2.5899999,-9.919178009033203,-0.10295066982507706,1.9632453918457031,3.8909912109375,-2.8533935546875,8.758544921875
2.6099999,-9.847352027893066,0.1412578970193863,2.1284453868865967,3.5552978515625,2.471923828125,7.99560546875
2.6299999,-9.742006301879883,0.5770025849342346,2.2673089504241943,3.2806396484375,5.3558349609375,4.608154296875
2.6499999,-9.636661529541016,0.9696516990661621,2.212242364883423,0.213623046875,6.6375732421875,0.0457763671875
2.6699999,-9.615114212036133,1.2761094570159912,2.0422539710998535,-4.69970703125,7.3699951171875,-2.8839111328125
2.6899999,-9.679757118225098,1.403002142906189,1.8100165128707886,-8.48388671875,7.4005126953125,-3.8909912109375
2.7099999,-9.765948295593262,1.3551181554794312,1.623268723487854,-8.392333984375,6.8206787109375,-4.608154296875
2.7299999,-9.837775230407715,1.170764684677124,1.4844050407409668,-6.3323974609375,6.7901611328125,-5.5694580078125
2.7499999,-9.880870819091797,0.9696516990661621,1.4269442558288574,-5.7373046875,7.6141357421875,-6.0577392578125
2.7699999,-9.883264541625977,0.7829039692878723,1.3934253454208374,-7.5836181640625,8.087158203125,-5.4931640625
2.7899999,-9.856928825378418,0.6536170840263367,1.3934253454208374,-8.2550048828125,7.7362060546875,-5.5694580078125
2.8099999,-9.797073364257812,0.586579442024231,1.4413094520568848,-5.2490234375,7.904052734375,-7.2174072265625
2.8299999,-9.737217903137207,0.569819986820221,1.522712230682373,-1.983642578125,10.1318359375,-8.392333984375
2.8499999,-9.682151794433594,0.5267243981361389,1.6112977266311646,-1.89208984375,13.0462646484375,-8.8043212890625
2.8699999,-9.684545516967773,0.507570743560791,1.647210717201233,-4.2877197265625,14.6331787109375,-7.4615478515625
2.8899999,-9.734824180603027,0.4884171485900879,1.623268723487854,-6.1798095703125,14.7857666015625,-6.011962890625
2.9099999,-9.816226959228516,0.47165772318840027,1.5298948287963867,-7.3089599609375,15.5792236328125,-6.378173828125
2.9299999,-9.873687744140625,0.47165772318840027,1.4221558570861816,-9.002685546875,16.4031982421875,-6.561279296875
2.9499999,-9.876082420349121,0.48602294921875,1.316810965538025,-11.383056640625,16.998291015625,-6.5155029296875
2.9699999,-9.835380554199219,0.4812345504760742,1.2186486721038818,-13.5345458984375,17.9290771484375,-6.8817138671875
2.9899999,-9.801861763000488,0.43335050344467163,1.1013327836990356,-14.0838623046875,18.4478759765625,-7.2174072265625
3.0099999,-9.78989028930664,0.31364041566848755,0.9409212470054626,-12.0086669921875,17.181396484375,-5.8441162109375
3.0299999,-9.854534149169922,0.1604115068912506,0.751779317855835,-8.5906982421875,13.702392578125,-3.3416748046875
3.0499999,-9.962273597717285,0.0071826050989329815,0.5410895943641663,-5.4168701171875,10.19287109375,-1.556396484375
3.0699999,-10.072406768798828,-0.08858546614646912,0.3447650372982025,-1.861572265625,6.9580078125,-0.946044921875
3.0899999,-10.160991668701172,-0.12689268589019775,0.17477671802043915,1.8157958984375,2.6092529296875,0.030517578125
3.1099999,-10.199298858642578,-0.1149216815829277,0.05985504388809204,4.33349609375,-2.593994140625,1.8157958984375
3.1299999,-10.192116737365723,-0.05985504388809204,0.002394201699644327,5.2947998046875,-7.1563720703125,3.387451171875
3.1499999,-10.168174743652344,-0.009576806798577309,-0.009576806798577309,7.0037841796875,-10.772705078125,3.631591796875
3.1699999,-10.15141487121582,0.05506663769483566,0.023942016065120697,10.19287109375,-15.0146484375,4.119873046875
3.1899999,-10.127472877502441,0.11252748221158981,0.11252748221158981,12.87841796875,-20.1416015625,5.584716796875
3.2099999,-10.074800491333008,0.16998831927776337,0.272938996553421,12.2222900390625,-22.76611328125,6.7596435546875
3.2299999,-9.959878921508789,0.24181437492370605,0.49799394607543945,9.9334716796875,-22.76611328125,6.7596435546875
3.2499999,-9.818621635437012,0.3280056416988373,0.7829039692878723,8.3465576171875,-22.1405029296875,6.5765380859375
3.2699999,-9.66299819946289,0.44771572947502136,1.1468225717544556,6.622314453125,-21.1181640625,6.4849853515625
3.2899999,-9.560047149658203,0.5722141861915588,1.5298948287963867,1.5106201171875,-16.6168212890625,5.8135986328125
3.3099999,-9.533711433410645,0.6775590777397156,1.8746598958969116,-3.84521484375,-9.6588134765625,3.96728515625
3.3299999000000002,-9.588777542114258,0.7350199222564697,2.1523873805999756,-5.4779052734375,-5.06591796875,3.387451171875
3.3499999,-9.66539192199707,0.751779317855835,2.319981336593628,-6.4697265625,-1.8310546875,4.4097900390625
3.3699999,-9.749189376831055,0.7230489253997803,2.38462495803833,-9.0789794921875,3.3721923828125,5.06591796875
3.3899999,-9.765948295593262,0.646434485912323,2.296039342880249,-9.33837890625,8.5601806640625,4.0130615234375
3.4099999,-9.732429504394531,0.5817909836769104,2.1811177730560303,-5.2947998046875,9.3536376953125,3.8299560546875
3.4299999,-9.732429504394531,0.5363011956214905,1.9919757843017578,-7.1868896484375,9.918212890625,4.8370361328125
3.4499999,-9.708487510681152,0.524330198764801,1.7717092037200928,-17.303466796875,17.2271728515625,5.0201416015625
3.4699999,-9.832986831665039,0.49559974670410156,1.4867992401123047,-22.674560546875,20.1873779296875,7.354736328125
3.4899999,-9.998186111450195,0.42616790533065796,1.1468225717544556,-17.974853515625,14.4500732421875,12.603759765625
3.5099999,-10.15141487121582,0.3495534360408783,0.706289529800415,-5.2947998046875,1.77001953125,15.838623046875
3.5299999,-10.235212326049805,0.2849099934101105,0.26815059781074524,10.955810546875,-8.4686279296875,10.3759765625
3.5499999,-10.259154319763184,0.33758243918418884,-0.08858546614646912,29.4036865234375,-15.5792236328125,5.4473876953125
3.5699999,-10.213664054870605,0.5219359993934631,-0.16519992053508759,44.586181640625,-25.5584716796875,-0.1373291015625
3.5899999,-10.055646896362305,0.8355764150619507,0.08140286058187485,44.708251953125,-25.9857177734375,-5.2490234375
3.6099999,-9.928754806518555,1.113303780555725,0.6272808313369751,30.8990478515625,-10.2996826171875,-4.94384765625
3.6299999,-9.818621635437012,1.3982137441635132,1.4077905416488647,10.4827880859375,-4.486083984375,3.3111572265625
3.6499999,-9.634267807006836,1.4724340438842773,2.2218191623687744,-11.3525390625,-4.57763671875,3.0670166015625
3.6699999,-9.581595420837402,1.4724340438842773,2.7317841053009033,-27.3895263671875,8.575439453125,0.1678466796875
3.6899999,-9.50498104095459,1.3503297567367554,2.964021682739258,-28.2440185546875,13.8397216796875,-2.7008056640625
3.7099999,-9.478644371032715,1.1013327836990356,2.7533318996429443,-17.669677734375,14.007568359375,-9.246826171875
3.7299999,-9.519346237182617,0.8930372595787048,2.2409727573394775,-7.1563720703125,18.5699462890625,-9.1552734375
3.7499999,-9.667786598205566,0.6871358752250671,1.699883222579956,-3.23486328125,19.195556640625,-0.2593994140625
3.7699999,-9.911994934082031,0.47884035110473633,1.139639973640442,0.1068115234375,6.988525390625,3.4637451171875
3.7899999,-10.11550235748291,0.4620809257030487,0.7661445140838623,6.40869140625,2.6092529296875,-2.8533935546875
3.8099999,-10.24239444732666,0.40222588181495667,0.49799394607543945,11.8255615234375,-1.89208984375,-1.6326904296875
3.8299999000000002,-10.194510459899902,0.45250412821769714,0.3423708379268646,12.7716064453125,-8.026123046875,-5.584716796875
3.8499999,-9.983820915222168,0.5291185975074768,0.21547815203666687,13.61083984375,-5.7830810546875,-9.1094970703125
3.8699999,-9.873687744140625,0.6320692300796509,0.21308395266532898,16.7694091796875,-4.852294921875,-4.2724609375
3.8899999,-9.904812812805176,0.8212111592292786,0.4908113479614258,13.2598876953125,-16.0369873046875,-0.152587890625
3.9099999,-9.95748519897461,0.912190854549408,0.849941611289978,2.0294189453125,-16.4642333984375,-4.0740966796875
3.9299999,-10.067618370056152,0.9696516990661621,1.290474772453308,-5.4473876953125,-8.7890625,-3.2196044921875
3.9499999,-9.981427192687988,0.871489405632019,1.6519991159439087,-3.5400390625,-11.627197265625,-7.8582763671875
3.9699999,-9.734824180603027,0.7038952708244324,1.7334020137786865,-0.1983642578125,-10.4827880859375,-10.5743408203125
3.9899999,-9.636661529541016,0.5363011956214905,1.7190368175506592,-0.42724609375,0.701904296875,-4.3487548828125
4.0099999,-9.708487510681152,0.3902548849582672,1.6112977266311646,-0.732421875,-4.6234130859375,4.7454833984375
4.029999900000001,-9.792284965515137,0.3663128614425659,1.4891934394836426,1.2054443359375,-15.289306640625,1.46484375
4.0499999,-10.050858497619629,0.33279404044151306,1.41257905960083,4.6234130859375,-13.6871337890625,1.220703125
4.069999900000001,-10.010157585144043,0.3734954595565796,1.338358759880066,5.889892578125,-16.29638671875,-0.5035400390625
4.0899999000000005,-9.885659217834473,0.38067805767059326,1.3551181554794312,5.2642822265625,-15.3350830078125,-4.0283203125
4.1099999,-9.703699111938477,0.4692635238170624,1.3910311460494995,7.8125,-6.53076171875,-4.1351318359375
4.1299999000000005,-9.682151794433594,0.6224924325942993,1.5418659448623657,10.009765625,-6.2713623046875,3.570556640625
4.1499999,-9.6989107131958,0.7829039692878723,1.8076223134994507,5.18798828125,-13.7176513671875,0.244140625
4.1699999000000005,-9.821015357971191,0.9241618514060974,1.944091796875,-1.3275146484375,-7.1563720703125,-4.3792724609375
4.1899999,-9.823410034179688,0.993593692779541,2.185906171798706,-1.708984375,-4.9591064453125,-4.5318603515625
4.209999900000001,-9.730035781860352,0.8954314589500427,2.248155355453491,-0.30517578125,-5.06591796875,-11.04736328125
4.2299999,-9.512163162231445,0.7661445140838623,2.183511972427368,-1.434326171875,1.4190673828125,-13.6871337890625
4.249999900000001,-9.579200744628906,0.569819986820221,2.121262788772583,0.396728515625,9.3994140625,-0.7171630859375
4.2699999,-9.607931137084961,0.395043283700943,1.9800047874450684,5.8746337890625,-3.11279296875,1.6021728515625
4.289999900000001,-9.761159896850586,0.3280056416988373,1.8124107122421265,9.429931640625,-7.843017578125,-4.2266845703125
4.3099999,-9.880870819091797,0.2992752194404602,1.7597382068634033,9.82666015625,-5.096435546875,-2.4261474609375
4.329999900000001,-9.895236015319824,0.3734954595565796,1.7501614093780518,8.4991455078125,-5.462646484375,-8.1939697265625
4.3499999,-9.648633003234863,0.4620809257030487,1.886630892753601,4.5013427734375,-3.4332275390625,-12.725830078125
4.369999900000001,-9.660603523254395,0.507570743560791,2.0901381969451904,-2.0904541015625,11.7340087890625,-2.960205078125
4.3899999,-9.634267807006836,0.5961562395095825,2.2026655673980713,-8.11767578125,8.9263916015625,3.6773681640625
4.409999900000001,-9.706093788146973,0.5171475410461426,2.212242364883423,-9.3841552734375,0.244140625,-3.0364990234375
4.4299999,-9.950302124023438,0.4189853072166443,2.0446481704711914,-4.913330078125,1.495361328125,-0.213623046875
4.449999900000001,-9.986215591430664,0.28730419278144836,1.7286136150360107,0.8544921875,-2.2125244140625,0.1678466796875
4.4699999,-9.885659217834473,0.12449848651885986,1.45806884765625,5.5084228515625,-7.9193115234375,-6.53076171875
4.489999900000001,-9.830592155456543,0.11971008777618408,1.2042834758758545,11.5966796875,-2.685546875,-4.9591064453125
4.5099999,-9.78989028930664,0.24899697303771973,1.2186486721038818,15.167236328125,-4.2266845703125,5.2642822265625
4.529999900000001,-9.775525093078613,0.44532153010368347,1.4101848602294922,8.7738037109375,-13.6260986328125,-0.5950927734375
4.5499999,-9.86650562286377,0.6775590777397156,1.6735470294952393,-0.3509521484375,-8.4686279296875,-4.0740966796875
4.569999900000001,-9.794678688049316,0.7829039692878723,2.0853497982025146,-3.875732421875,-4.638671875,-3.96728515625
4.5899999000000005,-9.742006301879883,0.7086837291717529,2.3918075561523438,-7.0343017578125,-0.6256103515625,-9.8724365234375
4.609999900000001,-9.478644371032715,0.5602431893348694,2.5115175247192383,-12.2222900390625,5.1727294921875,-9.1094970703125
4.6299999000000005,-9.59835433959961,0.33518823981285095,2.557007312774658,-10.8184814453125,15.7470703125,5.7373046875
4.6499999,-9.593565940856934,0.11013327538967133,2.425326347351074,-4.5166015625,4.0740966796875,5.7373046875
4.6699999000000005,-9.742006301879883,0.08858546614646912,2.1739351749420166,0.274658203125,-1.800537109375,-0.4119873046875
4.6899999,-9.911994934082031,0.07422025501728058,1.9536685943603516,4.4403076171875,0.1373291015625,3.8299560546875
4.709999900000001,-9.921571731567383,0.18914192914962769,1.7573440074920654,7.537841796875,-1.220703125,-4.5928955078125
4.7299999,-9.701305389404297,0.3495534360408783,1.6855180263519287,5.3558349609375,-2.6397705078125,-10.6048583984375
4.749999900000001,-9.715670585632324,0.524330198764801,1.821987509727478,-0.2288818359375,9.33837890625,-1.15966796875
4.7699999,-9.672574996948242,0.6703764796257019,2.008735179901123,-6.866455078125,8.2244873046875,4.1351318359375
4.789999900000001,-9.703699111938477,0.7829039692878723,2.183511972427368,-11.505126953125,2.7008056640625,-7.38525390625
4.8099999,-9.849745750427246,0.6775590777397156,2.22660756111145,-8.6822509765625,3.7078857421875,-4.6539306640625
4.829999900000001,-9.806650161743164,0.4692635238170624,2.056619167327881,-1.3427734375,3.1890869140625,-2.685546875
4.8499999,-9.751583099365234,0.11971008777618408,1.8100165128707886,4.0740966796875,0.8087158203125,-8.0413818359375
4.869999900000001,-9.746794700622559,-0.17238251864910126,1.50355863571167,10.1165771484375,1.3275146484375,-4.39453125
4.8899999,-9.816226959228516,-0.28730419278144836,1.3096283674240112,17.27294921875,-1.129150390625,10.5438232421875
4.909999900000001,-9.883264541625977,-0.19871874153614044,1.335964560508728,15.9912109375,-11.4593505859375,4.9285888671875
4.9299999,-9.909601211547852,0.021547814831137657,1.4772224426269531,7.4920654296875,-9.3231201171875,0.9765625
4.949999900000001,-9.890447616577148,0.304063618183136,1.824381709098816,1.8463134765625,-5.3558349609375,3.11279296875
4.9699999,-9.787496566772461,0.5195417404174805,2.2026655673980713,-3.6163330078125,0.18310546875,-4.3792724609375
4.989999900000001,-9.500192642211914,0.5674257874488831,2.3487119674682617,-12.176513671875,5.584716796875,-6.500244140625
5.0099999,-9.579200744628906,0.5746083855628967,2.4468741416931152,-14.312744140625,14.7705078125,8.36181640625
5.029999900000001,-9.521739959716797,0.4118026793003082,2.3582887649536133,-10.6658935546875,5.6915283203125,8.758544921875
5.0499999,-9.684545516967773,0.3663128614425659,2.248155355453491,-9.3841552734375,3.41796875,0.9613037109375
5.069999900000001,-9.84256362915039,0.3280056416988373,2.145204782485962,-10.162353515625,6.6986083984375,5.55419921875
5.0899999000000005,-9.854534149169922,0.3519476354122162,2.094926595687866,-8.270263671875,9.429931640625,-0.4730224609375
5.109999900000001,-9.713275909423828,0.35913026332855225,1.8722656965255737,-5.401611328125,9.429931640625,-8.1024169921875
5.1299999000000005,-9.732429504394531,0.4213795065879822,1.7046716213226318,-0.3509521484375,13.702392578125,-0.4119873046875
5.1499999,-9.797073364257812,0.44532153010368347,1.5107412338256836,4.0740966796875,6.378173828125,6.89697265625
5.1699999000000005,-9.919178009033203,0.5386953949928284,1.3455413579940796,3.5552978515625,0.4119873046875,-5.1727294921875
5.1899999,-10.062829971313477,0.5434837937355042,1.2976573705673218,6.04248046875,-2.5634765625,-5.2490234375
5.209999900000001,-10.022128105163574,0.15562310814857483,1.259350061416626,11.8865966796875,-4.5928955078125,-5.859375
5.2299999,-9.718064308166504,-0.009576806798577309,1.2832920551300049,10.4522705078125,-3.0670166015625,-4.7760009765625
5.249999900000001,-9.75397777557373,-0.0933738648891449,1.455674648284912,11.29150390625,-3.1585693359375,10.92529296875
5.2699999,-9.619902610778809,0.10534487664699554,1.680729627609253,6.805419921875,-8.9111328125,5.6304931640625
5.289999900000001,-9.739612579345703,0.3758896589279175,2.0159177780151367,-5.0201416015625,-1.7852783203125,-0.8087158203125
5.3099999,-9.86650562286377,0.5770025849342346,2.300827741622925,-12.3748779296875,0.7171630859375,1.7242431640625
5.329999900000001,-9.765948295593262,0.7134721279144287,2.449268341064453,-14.2974853515625,7.0343017578125,-3.6163330078125
5.3499999,-9.569623947143555,0.6416460275650024,2.406172752380371,-15.6707763671875,12.3138427734375,-7.0953369140625
5.369999900000001,-9.605537414550781,0.507570743560791,2.161964178085327,-12.451171875,13.73291015625,2.3345947265625
5.3899999,-9.53849983215332,0.33518823981285095,1.8818424940109253,-3.936767578125,2.9144287109375,7.568359375
5.409999900000001,-9.830592155456543,0.24660277366638184,1.6280571222305298,0.9307861328125,1.1749267578125,-1.4801025390625
5.4299999,-9.892841339111328,0.22266076505184174,1.4700398445129395,4.8828125,-2.777099609375,-1.617431640625
5.449999900000001,-9.976638793945312,0.2585737705230713,1.4460978507995605,7.781982421875,-4.1351318359375,-1.2664794921875
5.4699999,-9.885659217834473,0.2777273952960968,1.4891934394836426,4.3487548828125,2.9296875,-8.0108642578125
5.489999900000001,-9.720458984375,0.2944868206977844,1.599326729774475,0.030517578125,8.1787109375,-4.7149658203125
5.5099999,-9.799467086791992,0.3208230137825012,1.7262194156646729,0.3662109375,2.74658203125,8.3465576171875
5.529999900000001,-9.682151794433594,0.395043283700943,1.8962076902389526,-1.708984375,-0.18310546875,0.274658203125
5.5499999,-9.828198432922363,0.4213795065879822,2.0039467811584473,-8.7127685546875,6.500244140625,-1.89208984375
5.569999900000001,-9.885659217834473,0.4141969084739685,2.049436569213867,-11.8255615234375,3.0517578125,-0.762939453125
5.5899999000000005,-9.75637149810791,0.3711012601852417,2.032677173614502,-10.8489990234375,8.4991455078125,-3.90625
5.609999900000001,-9.715670585632324,0.24420857429504395,1.8746598958969116,-10.1165771484375,15.13671875,-3.173828125
5.6299999000000005,-9.739612579345703,0.18914192914962769,1.6543933153152466,-8.36181640625,10.650634765625,6.04248046875
5.6499999,-9.701305389404297,0.23702596127986908,1.4053963422775269,-3.1585693359375,-1.953125,5.462646484375
5.6699999000000005,-9.95748519897461,0.26815059781074524,1.2258312702178955,0.5035400390625,0.3509521484375,-1.4495849609375
5.6899999,-9.955090522766113,0.3878606855869293,1.1635819673538208,3.47900390625,-5.5694580078125,-4.150390625
5.709999900000001,-9.971850395202637,0.3926490843296051,1.256955862045288,4.1656494140625,-6.6070556640625,-3.0059814453125
5.7299999,-9.849745750427246,0.3495534360408783,1.3982137441635132,2.2735595703125,2.685546875,-5.584716796875
5.749999900000001,-9.763554573059082,0.26815059781074524,1.5610195398330688,1.52587890625,5.5694580078125,1.129150390625
5.7699999,-9.708487510681152,0.2513911724090576,1.6711528301239014,0.54931640625,-3.936767578125,7.0648193359375
5.789999900000001,-9.710882186889648,0.3280056416988373,1.8052281141281128,-4.33349609375,-1.3580322265625,-0.946044921875
5.8099999,-9.78989028930664,0.35913026332855225,1.867477297782898,-9.3536376953125,4.1656494140625,-2.0599365234375
5.829999900000001,-9.90241813659668,0.3471592366695404,1.8555063009262085,-6.04248046875,-3.021240234375,-3.082275390625
5.8499999,-9.797073364257812,0.2825157940387726,1.7549498081207275,1.0223388671875,0.1678466796875,-3.96728515625
5.869999900000001,-9.859322547912598,0.17956513166427612,1.577778935432434,7.0037841796875,4.638671875,-1.251220703125
5.8899999,-9.864110946655273,0.1604115068912506,1.4293384552001953,9.7808837890625,-4.425048828125,4.8828125
5.909999900000001,-9.828198432922363,0.26575639843940735,1.4437036514282227,8.453369140625,-12.51220703125,1.0833740234375
5.9299999,-10.0580415725708,0.3016694188117981,1.5155296325683594,2.685546875,-3.7078857421875,-0.18310546875
5.949999900000001,-9.909601211547852,0.4189853072166443,1.6496049165725708,-0.6866455078125,-6.622314453125,-4.5928955078125
5.9699999,-9.818621635437012,0.4429273009300232,1.8411411046981812,-2.3651123046875,-6.9122314453125,-4.9591064453125
5.989999900000001,-9.639056205749512,0.40462008118629456,1.9393033981323242,-6.0577392578125,5.92041015625,-3.936767578125
6.0099999,-9.612719535827637,0.33518823981285095,1.9488801956176758,-6.40869140625,7.4005126953125,3.7994384765625
6.029999900000001,-9.670180320739746,0.30885201692581177,2.008735179901123,-3.1890869140625,-6.04248046875,3.1585693359375
6.0499999,-9.804255485534668,0.2968810200691223,1.9584569931030273,-1.3275146484375,-2.62451171875,-1.7242431640625
6.069999900000001,-9.909601211547852,0.2753331959247589,1.8579005002975464,-0.5645751953125,0.7476806640625,-1.8310546875
6.0899999000000005,-9.895236015319824,0.26815059781074524,1.8148049116134644,1.9989013671875,-5.6610107421875,-6.500244140625
6.109999900000001,-9.696516990661621,0.24181437492370605,1.6950948238372803,2.74658203125,-1.9683837890625,-6.805419921875
6.1299999000000005,-9.720458984375,0.19393034279346466,1.6855180263519287,1.3580322265625,7.50732421875,0.48828125
6.149999900000001,-9.655815124511719,0.2322375625371933,1.6974890232086182,-2.0751953125,-0.396728515625,1.6326904296875
6.1699999000000005,-9.691728591918945,0.2537853717803955,1.8076223134994507,-3.7841796875,-6.072998046875,-2.410888671875
6.1899999,-9.919178009033203,0.21547815203666687,1.9129672050476074,-2.9449462890625,1.953125,1.312255859375
6.209999900000001,-9.895236015319824,0.16519992053508759,2.0183119773864746,-0.9307861328125,1.251220703125,-3.387451171875
6.2299999,-9.830592155456543,0.08619125932455063,2.0829553604125977,-1.6021728515625,1.3885498046875,-4.0435791015625
6.249999900000001,-9.694122314453125,0.06703764945268631,2.094926595687866,-3.1890869140625,12.9241943359375,1.5106201171875
6.2699999,-9.648633003234863,0.1628057211637497,2.0853497982025146,-5.0506591796875,11.1083984375,7.720947265625
6.289999900000001,-9.619902610778809,0.2992752194404602,2.049436569213867,-12.481689453125,2.9296875,-1.0528564453125
6.3099999,-9.859322547912598,0.37828385829925537,1.900996208190918,-15.6097412109375,9.9945068359375,-0.3204345703125
6.329999900000001,-9.962273597717285,0.3663128614425659,1.721431016921997,-9.2315673828125,7.0953369140625,0.8697509765625
6.3499999,-9.99339771270752,0.17477671802043915,1.4700398445129395,-1.6326904296875,0.1983642578125,-5.523681640625
6.369999900000001,-9.856928825378418,0.038307227194309235,1.1516109704971313,3.6773681640625,1.708984375,-4.45556640625
6.3899999,-9.840168952941895,-0.07422025501728058,1.0558429956436157,9.3841552734375,4.791259765625,7.965087890625
6.409999900000001,-9.818621635437012,0.004788403399288654,1.0845733880996704,7.1563720703125,-8.0108642578125,5.340576171875
6.4299999,-9.823410034179688,0.17717093229293823,1.2330138683319092,-1.678466796875,-8.4381103515625,-0.9307861328125
6.449999900000001,-10.046070098876953,0.3016694188117981,1.4628572463989258,-4.8828125,-2.1209716796875,4.08935546875
6.4699999,-9.911994934082031,0.43095630407333374,1.6041151285171509,-1.7852783203125,-6.2713623046875,-6.683349609375
6.489999900000001,-9.792284965515137,0.40462008118629456,1.7166426181793213,-2.13623046875,-6.591796875,-9.0179443359375
6.5099999,-9.785101890563965,0.2968810200691223,1.7717092037200928,-2.105712890625,3.021240234375,0.823974609375
6.529999900000001,-9.75637149810791,0.19393034279346466,1.8531121015548706,1.068115234375,-0.1220703125,9.521484375
6.5499999,-9.854534149169922,0.08858546614646912,1.968033790588379,-1.1444091796875,-7.8125,0.9765625
6.569999900000001,-9.931148529052734,0.047884032130241394,2.0207061767578125,-5.4168701171875,-1.7852783203125,3.9520263671875
6.5899999000000005,-9.885659217834473,0.07182604819536209,2.056619167327881,-5.1727294921875,3.3721923828125,6.3323974609375
6.609999900000001,-9.782708168029785,0.05267243832349777,1.944091796875,-1.4801025390625,1.434326171875,-2.74658203125
6.6299999000000005,-9.57441234588623,0.2082955539226532,1.8076223134994507,2.3193359375,3.2958984375,-4.5166015625
6.649999900000001,-9.725247383117676,0.304063618183136,1.7932571172714233,4.7760009765625,5.523681640625,9.58251953125
6.6699999000000005,-9.62947940826416,0.5482721924781799,1.7717092037200928,-2.5787353515625,-0.091552734375,1.40380859375
6.6899999,-9.782708168029785,0.7230489253997803,1.8818424940109253,-12.87841796875,4.4708251953125,-5.7525634765625
6.709999900000001,-9.885659217834473,0.730231523513794,1.98958158493042,-14.3280029296875,5.7220458984375,-0.8697509765625
6.7299999,-9.818621635437012,0.6320692300796509,1.9752163887023926,-13.7176513671875,7.8277587890625,-7.781982421875
6.749999900000001,-9.648633003234863,0.4141969084739685,1.8722656965255737,-12.451171875,9.4757080078125,-11.444091796875
6.7699999,-9.734824180603027,0.11013327538967133,1.7262194156646729,-3.0059814453125,12.51220703125,1.52587890625
6.789999900000001,-9.732429504394531,-0.0454898327589035,1.5490485429763794,5.92041015625,1.28173828125,7.9345703125
6.8099999,-9.914389610290527,-0.1628057211637497,1.3455413579940796,3.753662109375,-2.4871826171875,-1.2359619140625
6.829999900000001,-10.091560363769531,-0.11971008777618408,1.2617442607879639,4.2877197265625,-5.584716796875,0.8544921875
6.8499999,-10.093954086303711,-0.07661445438861847,1.170764684677124,12.481689453125,-10.9710693359375,2.838134765625
6.869999900000001,-10.062829971313477,-0.004788403399288654,1.2234370708465576,14.70947265625,-9.765625,-5.2947998046875
6.8899999,-9.75397777557373,0.08379705995321274,1.2737152576446533,7.843017578125,-5.645751953125,-4.5623779296875
6.909999900000001,-9.856928825378418,0.16998831927776337,1.50355863571167,4.3487548828125,-3.9215087890625,12.481689453125
6.9299999,-9.672574996948242,0.3423708379268646,1.7597382068634033,-2.0599365234375,-9.6435546875,4.6539306640625
6.949999900000001,-9.75397777557373,0.4429273009300232,2.056619167327881,-13.580322265625,-3.4942626953125,-0.274658203125
6.9699999,-9.86650562286377,0.42856210470199585,2.1763293743133545,-16.357421875,-2.25830078125,4.8675537109375
6.989999900000001,-9.763554573059082,0.3711012601852417,2.1739351749420166,-6.439208984375,-0.79345703125,-0.5950927734375
7.0099999,-9.62947940826416,0.1867477297782898,2.0254945755004883,2.4871826171875,-1.15966796875,-4.4403076171875
7.029999900000001,-9.720458984375,0.08140286058187485,1.8291701078414917,7.32421875,-0.0457763671875,6.40869140625
7.0499999,-9.677363395690918,0.15322890877723694,1.8076223134994507,9.21630859375,-6.9122314453125,12.7410888671875
7.069999900000001,-9.835380554199219,0.2825157940387726,1.920149803161621,1.922607421875,-3.570556640625,0.7476806640625
7.0899999000000005,-9.828198432922363,0.5339069962501526,2.0638017654418945,-6.317138671875,-1.617431640625,-1.9073486328125
7.109999900000001,-9.816226959228516,0.6536170840263367,2.1499931812286377,-6.988525390625,0.5950927734375,0.6103515625
7.1299999000000005,-9.730035781860352,0.6224924325942993,2.1523873805999756,-2.197265625,4.1656494140625,-7.720947265625
7.149999900000001,-9.610325813293457,0.47644615173339844,1.9943699836730957,1.6326904296875,5.279541015625,-6.8511962890625
7.1699999000000005,-9.787496566772461,0.3495534360408783,2.073378562927246,2.4871826171875,2.716064453125,9.58251953125
7.1899999,-9.6989107131958,0.3208230137825012,2.1499931812286377,-7.4615478515625,6.134033203125,2.99072265625
7.209999900000001,-9.813833236694336,0.30885201692581177,2.250549554824829,-17.3492431640625,12.4053955078125,-2.5177001953125
7.2299999,-9.883264541625977,0.31842881441116333,2.140416383743286,-13.702392578125,6.256103515625,-1.40380859375
7.249999900000001,-9.770736694335938,0.2513911724090576,1.8291701078414917,-1.6326904296875,5.7373046875,-5.4779052734375
7.2699999,-9.765948295593262,0.13168109953403473,1.381454348564148,8.1787109375,4.94384765625,-6.89697265625
7.289999900000001,-9.90241813659668,0.06703764945268631,1.0654197931289673,12.9547119140625,-3.326416015625,5.218505859375
7.3099999,-9.883264541625977,0.07661445438861847,0.9744400978088379,14.46533203125,-13.5345458984375,7.0037841796875
7.329999900000001,-10.041281700134277,0.16759411990642548,1.170764684677124,8.9263916015625,-9.2010498046875,-1.9073486328125
7.3499999,-9.909601211547852,0.3758896589279175,1.5394717454910278,0.48828125,-10.3607177734375,-3.41796875
7.369999900000001,-9.742006301879883,0.47405192255973816,1.9919757843017578,-6.988525390625,-3.021240234375,-0.7781982421875
7.3899999,-9.617507934570312,0.4572925269603729,2.3032219409942627,-11.7950439453125,8.8958740234375,-5.0506591796875
7.409999900000001,-9.50498104095459,0.44532153010368347,2.4468741416931152,-12.1917724609375,11.0015869140625,-0.213623046875
7.4299999,-9.536105155944824,0.2944868206977844,2.477998733520508,-10.3607177734375,4.0283203125,11.871337890625
7.449999900000001,-9.72285270690918,0.30885201692581177,2.296039342880249,-13.61083984375,9.979248046875,1.678466796875
7.4699999,-9.761159896850586,0.33279404044151306,2.1116859912872314,-12.51220703125,8.4686279296875,-3.936767578125
7.489999900000001,-9.986215591430664,0.26096799969673157,1.7764976024627686,-3.5400390625,0.2899169921875,-1.617431640625
7.5099999,-9.955090522766113,0.2082955539226532,1.4317326545715332,5.7220458984375,4.3792724609375,-5.0201416015625
7.529999900000001,-9.837775230407715,0.19871874153614044,1.1563993692398071,10.986328125,4.33349609375,-5.2947998046875
7.5499999,-9.974244117736816,0.1412578970193863,1.0821791887283325,13.6566162109375,-7.2479248046875,5.7525634765625
7.569999900000001,-9.9000244140625,0.24899697303771973,1.1228805780410767,12.176513671875,-9.0179443359375,0.5035400390625
7.5899999000000005,-9.998186111450195,0.33039984107017517,1.479616641998291,5.0506591796875,-3.570556640625,-4.57763671875
7.609999900000001,-9.921571731567383,0.3447650372982025,1.7812861204147339,-1.5869140625,-7.110595703125,-3.7841796875
7.6299999000000005,-9.66299819946289,0.40462008118629456,2.0853497982025146,-3.8604736328125,1.5411376953125,-3.2196044921875
7.649999900000001,-9.536105155944824,0.2992752194404602,2.3056161403656006,-4.669189453125,12.237548828125,-4.791259765625
7.6699999000000005,-9.548076629638672,0.22744916379451752,2.2816741466522217,-7.2174072265625,8.331298828125,2.8228759765625
7.6899999,-9.603142738342285,0.2059013396501541,2.166752576828003,-6.744384765625,0.701904296875,8.7127685546875
7.709999900000001,-9.921571731567383,0.14844051003456116,1.9704279899597168,-5.2032470703125,6.011962890625,0.8697509765625
7.7299999,-9.943120002746582,0.24420857429504395,1.6639702320098877,0.3662109375,-3.6773681640625,-4.6539306640625
7.749999900000001,-9.95748519897461,0.24899697303771973,1.4867992401123047,5.767822265625,-7.6751708984375,-0.6561279296875
7.7699999,-9.938331604003906,0.22505496442317963,1.414973258972168,6.3323974609375,3.47900390625,-3.7078857421875
7.789999900000001,-9.713275909423828,0.33039984107017517,1.4389152526855469,4.4708251953125,3.41796875,-2.777099609375
7.8099999,-9.696516990661621,0.3519476354122162,1.6615760326385498,4.21142578125,-6.04248046875,5.6304931640625
7.829999900000001,-9.718064308166504,0.43335050344467163,1.800439715385437,2.50244140625,-0.1373291015625,-1.2359619140625
7.8499999,-9.658209800720215,0.47405192255973816,1.9584569931030273,-0.6561279296875,0.762939453125,-7.0037841796875
7.869999900000001,-9.799467086791992,0.3423708379268646,2.054224967956543,0.8697509765625,-4.669189453125,-5.126953125
7.8899999,-9.66539192199707,0.23702596127986908,2.008735179901123,3.8604736328125,5.1727294921875,-5.5694580078125
7.909999900000001,-9.653421401977539,0.12449848651885986,1.9919757843017578,1.77001953125,11.8560791015625,-2.685546875
7.9299999,-9.830592155456543,0.026336219161748886,1.9345149993896484,-2.655029296875,1.1444091796875,6.8817138671875
7.949999900000001,-9.818621635437012,0.12210428714752197,1.800439715385437,-3.6468505859375,-1.6632080078125,4.0435791015625
7.9699999,-10.077195167541504,0.181959331035614,1.6974890232086182,-1.2359619140625,0.5340576171875,-3.570556640625
7.989999900000001,-10.029311180114746,0.24420857429504395,1.5466543436050415,4.3792724609375,-10.406494140625,-7.7056884765625
8.0099999,-9.928754806518555,0.2537853717803955,1.4221558570861816,9.368896484375,-8.72802734375,-3.7994384765625
8.0299999,-9.892841339111328,0.1388636976480484,1.4700398445129395,12.1002197265625,1.40380859375,-2.9754638671875
8.049999900000001,-9.825803756713867,0.08379705995321274,1.6304513216018677,10.3912353515625,-4.1656494140625,1.0986328125
8.069999900000001,-9.775525093078613,0.1412578970193863,1.9488801956176758,5.31005859375,-8.36181640625,7.38525390625
8.0899999,-9.797073364257812,0.17477671802043915,2.2601263523101807,-4.180908203125,4.1656494140625,2.5787353515625
8.1099999,-9.579200744628906,0.4141969084739685,2.4420857429504395,-10.589599609375,2.8076171875,-4.730224609375
8.129999900000001,-9.440337181091309,0.395043283700943,2.4875755310058594,-9.82666015625,2.8839111328125,-2.8839111328125
8.149999900000001,-9.41400146484375,0.3974374830722809,2.3080103397369385,-6.3018798828125,16.2506103515625,-4.5318603515625
8.1699999,-9.433155059814453,0.37828385829925537,2.049436569213867,-4.608154296875,14.6331787109375,-1.77001953125
8.1899999,-9.655815124511719,0.24660277366638184,1.824381709098816,-1.5106201171875,-1.129150390625,5.1727294921875
8.2099999,-10.002974510192871,0.1867477297782898,1.558625340461731,2.5787353515625,2.899169921875,-0.701904296875
8.229999900000001,-10.074800491333008,0.12928688526153564,1.414973258972168,7.8277587890625,0.274658203125,-6.0577392578125
8.2499999,-10.216058731079102,-0.035913024097681046,1.3120225667953491,13.2598876953125,-10.5438232421875,-4.1656494140625
8.2699999,-10.065223693847656,-0.014365210197865963,1.2856862545013428,14.312744140625,-1.3885498046875,-2.960205078125
8.2899999,-10.02691650390625,0.05506663769483566,1.4652514457702637,9.7503662109375,6.439208984375,-0.732421875
8.309999900000001,-10.096348762512207,0.2082955539226532,1.6831238269805908,2.99072265625,-3.96728515625,3.082275390625
8.3299999,-10.105925559997559,0.4429273009300232,1.8770540952682495,-0.9002685546875,-3.8909912109375,1.64794921875
8.3499999,-10.311826705932617,0.545877993106842,2.0590133666992188,-2.0904541015625,1.40380859375,-2.86865234375
8.3699999,-10.034099578857422,0.608127236366272,2.011129379272461,-2.8839111328125,-4.669189453125,-12.0697021484375
8.389999900000001,-9.708487510681152,0.5051765441894531,1.9249382019042969,-1.129150390625,-1.0833740234375,-7.3699951171875
8.4099999,-9.466673851013184,0.28730419278144836,1.8195933103561401,3.41796875,6.7901611328125,-6.2255859375
8.4299999,-9.191340446472168,-0.05506663769483566,1.5682021379470825,7.232666015625,2.685546875,-7.0343017578125
8.4499999,-9.514557838439941,-0.3471592366695404,1.359906554222107,25.20751953125,-9.9639892578125,-0.1373291015625
8.469999900000001,-9.703699111938477,-0.47644615173339844,1.2880805730819702,48.3856201171875,-19.5159912109375,-0.5340576171875
8.4899999,-9.911994934082031,-0.3423708379268646,1.4484920501708984,44.4488525390625,-14.7552490234375,-2.2125244140625
8.5099999,-9.916783332824707,-0.009576806798577309,1.9393033981323242,22.5830078125,-4.3487548828125,-2.6397705078125
8.5299999,-9.75397777557373,0.3663128614425659,2.564189910888672,-1.617431640625,7.049560546875,-3.2501220703125
8.549999900000001,-9.643844604492188,0.6416460275650024,3.0334534645080566,-19.5770263671875,16.265869140625,-2.3651123046875
8.569999900000001,-9.634267807006836,0.7158663272857666,3.1866824626922607,-26.42822265625,20.0653076171875,-1.8463134765625
8.5899999,-9.713275909423828,0.608127236366272,2.96162748336792,-24.90234375,20.0653076171875,-1.6326904296875
8.6099999,-9.847352027893066,0.3711012601852417,2.492363929748535,-17.730712890625,17.9595947265625,-0.9307861328125
8.629999900000001,-9.947908401489258,0.07661445438861847,1.9273324012756348,-8.4381103515625,14.4805908203125,0.30517578125
8.649999900000001,-9.950302124023438,-0.20350714027881622,1.4269442558288574,-0.701904296875,11.1541748046875,2.197265625
8.6699999,-9.95748519897461,-0.3687070608139038,1.0773907899856567,3.1585693359375,10.8489990234375,5.4473876953125
8.6899999,-9.8784761428833,-0.4189853072166443,0.9050082564353943,4.8675537109375,9.2010498046875,4.791259765625
8.709999900000001,-9.96945571899414,-0.36152446269989014,0.871489405632019,6.04248046875,19.10400390625,-0.701904296875
8.729999900000001,-10.17296314239502,-0.24420857429504395,0.9097966551780701,5.31005859375,28.99169921875,-5.92041015625
8.7499999,-10.484209060668945,-0.1388636976480484,0.9624691009521484,3.8909912109375,22.9644775390625,-9.5062255859375
8.7699999,-10.788272857666016,-0.047884032130241394,1.0055646896362305,4.1351318359375,16.754150390625,-14.8162841796875
8.7899999,-10.898406028747559,0.0071826050989329815,1.0127472877502441,4.5013427734375,12.1917724609375,-18.707275390625
8.809999900000001,-10.788272857666016,0.05746084079146385,0.9696516990661621,3.96728515625,7.6446533203125,-15.6402587890625
8.8299999,-10.412383079528809,0.10534487664699554,0.9097966551780701,3.8604736328125,0.9307861328125,-9.3231201171875
8.8499999,-9.854534149169922,0.14604631066322327,0.8643068075180054,2.838134765625,-0.0457763671875,-2.8076171875
8.8699999,-9.279925346374512,0.21547815203666687,0.849941611289978,-1.434326171875,8.087158203125,6.378173828125
8.889999900000001,-8.791508674621582,0.2992752194404602,0.8667010068893433,-5.9814453125,12.87841796875,12.908935546875
8.9099999,-8.456320762634277,0.3998316824436188,0.9074024558067322,-7.38525390625,13.7481689453125,12.603759765625
8.9299999,-8.473079681396484,0.5530605912208557,0.9576807022094727,-6.65283203125,22.4761962890625,11.4288330078125
8.9499999,-8.71728801727295,0.5650315880775452,0.993593692779541,-6.4239501953125,14.3280029296875,13.8397216796875
8.969999900000001,-9.062053680419922,0.5027823448181152,1.039083480834961,-4.9591064453125,5.3558349609375,13.85498046875
8.9899999,-9.433155059814453,0.40701428055763245,1.115697979927063,-1.6632080078125,1.8463134765625,14.5721435546875
9.0099999,-9.742006301879883,0.272938996553421,1.2114660739898682,1.52587890625,0.701904296875,15.7623291015625
9.0299999,-10.02691650390625,0.16998831927776337,1.2856862545013428,2.8076171875,2.0294189453125,14.984130859375
9.049999900000001,-10.223240852355957,0.10055647045373917,1.3239935636520386,5.3558349609375,-0.457763671875,10.43701171875
9.069999900000001,-10.335768699645996,0.09576806426048279,1.3551181554794312,8.48388671875,-6.7901611328125,7.8125
9.0899999,-10.400412559509277,0.14604631066322327,1.3670891523361206,7.2174072265625,-5.79833984375,7.99560546875
9.1099999,-10.393229484558105,0.21547815203666687,1.4077905416488647,3.265380859375,-4.8828125,3.84521484375
9.129999900000001,-10.335768699645996,0.28969839215278625,1.4484920501708984,-0.2593994140625,-7.8125,-1.4190673828125
9.149999900000001,-10.230423927307129,0.31842881441116333,1.4700398445129395,-2.0294189453125,-9.6588134765625,0.244140625
9.1699999,-10.122684478759766,0.31603461503982544,1.4437036514282227,-2.8076171875,-6.28662109375,5.401611328125
9.1899999,-10.019734382629395,0.2825157940387726,1.3766659498214722,-2.74658203125,-3.692626953125,3.570556640625
9.209999900000001,-9.988609313964844,0.24420857429504395,1.2737152576446533,-1.9073486328125,-4.9285888671875,-1.6326904296875
9.229999900000001,-10.050858497619629,0.21787235140800476,1.1324573755264282,-0.9765625,-2.25830078125,-3.23486328125
9.2499999,-10.105925559997559,0.19153612852096558,0.9840168952941895,0.06103515625,-0.9765625,-2.227783203125
9.2699999,-10.070012092590332,0.19153612852096558,0.8595184087753296,1.0528564453125,-6.7291259765625,-0.9002685546875
9.2899999,-9.931148529052734,0.2082955539226532,0.7781155705451965,0.9613037109375,-5.4931640625,0.9765625
9.309999900000001,-9.792284965515137,0.2537853717803955,0.7924807667732239,-0.946044921875,3.387451171875,4.7760009765625
9.3299999,-9.581595420837402,0.31603461503982544,0.8547300100326538,-4.913330078125,3.631591796875,4.4708251953125
9.3499999,-9.533711433410645,0.3902548849582672,0.9864110946655273,-8.9874267578125,4.669189453125,6.2103271484375
9.3699999,-9.497797966003418,0.4572925269603729,1.1037269830703735,-12.359619140625,5.157470703125,7.4310302734375
9.389999900000001,-9.528923034667969,0.5410895943641663,1.1468225717544556,-14.8773193359375,4.4708251953125,6.4544677734375
9.4099999,-9.583989143371582,0.6344634294509888,1.0989385843276978,-15.045166015625,3.2501220703125,4.3792724609375
9.4299999,-9.72285270690918,0.7445967197418213,0.9528923034667969,-14.4195556640625,-0.3662109375,2.3651123046875
9.4499999,-9.952696800231934,0.8954314589500427,0.7589619159698486,-14.95361328125,-3.84521484375,0.6256103515625
9.469999900000001,-10.24239444732666,1.036689281463623,0.5770025849342346,-15.167236328125,-8.0108642578125,-2.471923828125
9.4899999,-10.481815338134766,1.0893617868423462,0.48602294921875,-13.092041015625,-12.4969482421875,-5.18798828125
9.5099999,-10.541669845581055,0.9768342971801758,0.48602294921875,-7.8582763671875,-15.6402587890625,-6.1798095703125
9.5299999,-10.371682167053223,0.7326257228851318,0.5626373887062073,0.457763671875,-17.242431640625,-4.852294921875
9.549999900000001,-10.072406768798828,0.42616790533065796,0.7158663272857666,11.8560791015625,-20.111083984375,-4.058837890625
9.569999900000001,-9.770736694335938,0.1867477297782898,0.9576807022094727,18.8446044921875,-21.820068359375,-4.0740966796875
9.5899999,-9.586383819580078,0.0933738648891449,1.2952631711959839,16.6168212890625,-19.3939208984375,-3.1280517578125
9.6099999,-9.514557838439941,0.1149216815829277,1.7310078144073486,9.1094970703125,-13.336181640625,-1.068115234375
9.629999900000001,-9.478644371032715,0.2082955539226532,2.231395959854126,1.03759765625,-6.072998046875,1.129150390625
9.649999900000001,-9.404424667358398,0.33279404044151306,2.674323320388794,-8.11767578125,1.7242431640625,1.983642578125
9.6699999,-9.306262016296387,0.4596867263317108,2.9161376953125,-19.6990966796875,11.7645263671875,2.7923583984375
9.6899999,-9.196128845214844,0.5841852426528931,2.849100112915039,-27.1453857421875,16.9219970703125,2.01416015625
9.709999900000001,-9.258378028869629,0.6871358752250671,2.540247917175293,-26.7791748046875,15.68603515625,-0.1220703125
9.729999900000001,-9.543288230895996,0.751779317855835,2.051830768585205,-26.092529296875,13.9923095703125,-1.4190673828125
9.7499999,-10.017339706420898,0.768538773059845,1.4867992401123047,-26.30615234375,12.9241943359375,-1.312255859375
9.7699999,-10.551246643066406,0.7038952708244324,0.9385270476341248,-19.378662109375,7.5225830078125,-0.9307861328125
9.7899999,-10.898406028747559,0.5937620401382446,0.43095630407333374,-4.82177734375,-3.021240234375,-2.01416015625
9.809999900000001,-10.934319496154785,0.48602294921875,0.033518824726343155,9.490966796875,-13.1378173828125,-4.2724609375
9.8299999,-10.589553833007812,0.3998316824436188,-0.1867477297782898,21.636962890625,-21.1181640625,-7.4462890625
9.8499999,-10.06043529510498,0.3711012601852417,0.011971008032560349,29.8614501953125,-27.618408203125,-9.490966796875
9.8699999,-9.591172218322754,0.395043283700943,0.5099649429321289,25.543212890625,-26.885986328125,-10.1776123046875
9.889999900000001,-9.27034854888916,0.42616790533065796,1.314416766166687,11.688232421875,-18.2952880859375,-9.09423828125
9.9099999,-9.217676162719727,0.45489832758903503,2.0685901641845703,0.3204345703125,-10.43701171875,-7.537841796875
9.9299999,-9.373299598693848,0.3758896589279175,2.7054479122161865,-4.2724609375,-5.889892578125,-6.28662109375
9.9499999,-9.497797966003418,0.33279404044151306,2.9448680877685547,-5.126953125,-3.7689208984375,-5.0201416015625
9.969999900000001,-9.62947940826416,0.16998831927776337,2.8610711097717285,-2.655029296875,-1.2359619140625,-4.974365234375
9.9899999,-9.708487510681152,0.026336219161748886,2.5522189140319824,3.11279296875,-1.1138916015625,-6.5765380859375
10.0099999,-9.732429504394531,-0.10295066982507706,2.1595699787139893,9.2620849609375,-0.30517578125,-6.4697265625
10.0299999,-9.823410034179688,-0.09816227108240128,1.8339585065841675,9.7503662109375,3.662109375,1.068115234375
10.049999900000001,-9.96945571899414,-0.016759412363171577,1.644816517829895,5.9814453125,0.732421875,6.6986083984375
10.069999900000001,-10.04846477508545,0.21308395266532898,1.534683346748352,3.7078857421875,-5.3863525390625,-0.42724609375
10.0899999,-10.220847129821777,0.42616790533065796,1.5490485429763794,4.486083984375,-4.8828125,-4.852294921875
10.1099999,-10.216058731079102,0.5171475410461426,1.53707754611969,4.6539306640625,-8.1634521484375,-4.638671875
10.129999900000001,-10.247182846069336,0.47405192255973816,1.6065093278884888,5.828857421875,-8.941650390625,-7.6446533203125
10.149999900000001,-10.089165687561035,0.26575639843940735,1.7190368175506592,8.5601806640625,-5.0048828125,-8.1939697265625
10.1699999,-9.988609313964844,0.047884032130241394,1.9033904075622559,11.5509033203125,1.8157958984375,0.030517578125
10.1899999,-9.888052940368652,-0.1388636976480484,2.1739351749420166,10.7269287109375,0,8.30078125
10.209999900000001,-9.734824180603027,-0.22505496442317963,2.4636335372924805,3.84521484375,-1.0986328125,8.6212158203125
10.229999900000001,-9.701305389404297,-0.17238251864910126,2.698265314102173,-2.9449462890625,7.5836181640625,7.9193115234375
10.2499999,-9.521739959716797,-0.07661445438861847,2.8227639198303223,-7.0953369140625,11.5814208984375,7.1258544921875
10.2699999,-9.346963882446289,0.016759412363171577,2.75812029838562,-11.077880859375,13.8092041015625,3.1890869140625
10.2899999,-9.193734169006348,0.20111294090747833,2.47560453414917,-13.5040283203125,24.505615234375,3.90625
10.309999900000001,-9.172186851501465,0.33279404044151306,2.097320795059204,-11.71875,26.18408203125,11.23046875
10.3299999,-9.339780807495117,0.524330198764801,1.6927006244659424,-8.0718994140625,13.97705078125,10.3912353515625
10.3499999,-9.59835433959961,0.667982280254364,1.3623007535934448,-7.7056884765625,9.1094970703125,4.0130615234375
10.3699999,-9.962273597717285,0.7110779285430908,1.1468225717544556,-7.62939453125,8.209228515625,2.5787353515625
10.389999900000001,-10.134655952453613,0.6871358752250671,1.0893617868423462,-3.1280517578125,4.730224609375,-1.922607421875
10.4099999,-10.163386344909668,0.569819986820221,1.0606313943862915,2.288818359375,8.5296630859375,-4.8828125
10.4299999,-10.005369186401367,0.4381389021873474,1.072602391242981,5.06591796875,12.26806640625,0.2593994140625
10.4499999,-9.8784761428833,0.3423708379268646,1.192312479019165,4.7454833984375,6.561279296875,6.439208984375
10.469999900000001,-9.734824180603027,0.28730419278144836,1.3192051649093628,2.410888671875,2.6702880859375,4.1656494140625
10.4899999,-9.828198432922363,0.31124621629714966,1.50355863571167,-1.6326904296875,4.4403076171875,2.6702880859375
10.5099999,-9.792284965515137,0.38067805767059326,1.699883222579956,-7.4615478515625,6.3934326171875,-0.2288818359375
10.5299999,-9.75637149810791,0.3926490843296051,1.7741034030914307,-12.5885009765625,12.4359130859375,-2.1820068359375
10.549999900000001,-9.677363395690918,0.4357447028160095,1.7836803197860718,-14.9993896484375,23.040771484375,1.0833740234375
10.569999900000001,-9.619902610778809,0.35913026332855225,1.6927006244659424,-14.58740234375,19.2108154296875,8.8958740234375
10.5899999,-9.682151794433594,0.30885201692581177,1.4700398445129395,-10.6353759765625,11.1083984375,11.0015869140625
10.6099999,-9.885659217834473,0.27054479718208313,1.3623007535934448,-6.1492919921875,10.772705078125,8.30078125
10.629999900000001,-10.08198356628418,0.24899697303771973,1.139639973640442,-3.0517578125,8.23974609375,5.9356689453125
10.649999900000001,-10.120290756225586,0.3256114423274994,0.9888052940368652,-0.091552734375,7.2784423828125,1.0528564453125
10.6699999,-10.108319282531738,0.45489832758903503,0.8164227604866028,3.326416015625,14.739990234375,-0.06103515625
10.6899999,-9.986215591430664,0.6248866319656372,0.6607996821403503,3.814697265625,10.3302001953125,5.462646484375
10.709999900000001,-9.861717224121094,0.7805097699165344,0.646434485912323,-0.1983642578125,1.495361328125,4.94384765625
10.729999900000001,-9.86650562286377,0.8690952062606812,0.6631938815116882,-3.8909912109375,1.220703125,1.1749267578125
10.7499999,-9.852140426635742,0.8236053586006165,0.8762778043746948,-4.913330078125,-0.0762939453125,-0.8544921875
10.7699999,-9.8784761428833,0.6200982332229614,1.0007762908935547,-5.889892578125,-0.4119873046875,-2.655029296875
10.7899999,-9.804255485534668,0.42856210470199585,1.1061211824417114,-5.035400390625,11.1083984375,-2.0904541015625
10.809999900000001,-9.794678688049316,0.21787235140800476,1.1013327836990356,-1.3275146484375,10.986328125,7.8887939453125
10.8299999,-9.775525093078613,0.17956513166427612,1.0965443849563599,1.03759765625,3.3721923828125,12.115478515625
10.8499999,-9.806650161743164,0.22505496442317963,1.091755986213684,0.213623046875,2.4261474609375,8.3770751953125
10.8699999,-9.952696800231934,0.3974374830722809,1.1300631761550903,-0.8087158203125,4.730224609375,6.195068359375
10.889999900000001,-9.976638793945312,0.5339069962501526,1.194706678390503,-1.52587890625,2.74658203125,2.7313232421875
10.9099999,-10.160991668701172,0.7134721279144287,1.1228805780410767,-3.5552978515625,9.4757080078125,-3.23486328125
10.9299999,-10.26394271850586,0.7398083209991455,1.1563993692398071,-6.8206787109375,2.1209716796875,-12.1612548828125
10.9499999,-10.42195987701416,0.667982280254364,1.1061211824417114,-9.613037109375,-18.218994140625,-21.8505859375
10.969999900000001,-10.472238540649414,0.3519476354122162,1.2761094570159912,-9.5367431640625,-31.036376953125,-25.665283203125
10.9899999,-10.340557098388672,-0.07422025501728058,1.4915876388549805,-8.0413818359375,-38.0096435546875,-28.3050537109375
11.0099999,-9.981427192687988,-0.6009446382522583,1.9536685943603516,-10.4827880859375,-37.17041015625,-27.64892578125
11.0299999,-9.622296333312988,-1.0414776802062988,2.3918075561523438,-15.838623046875,-27.679443359375,-19.7296142578125
11.049999900000001,-9.263166427612305,-1.3263877630233765,2.9233202934265137,-22.5677490234375,-22.979736328125,-16.7999267578125
11.069999900000001,-9.32302188873291,-1.359906554222107,3.2082302570343018,-25.726318359375,-19.1192626953125,-3.60107421875
11.0899999,-9.404424667358398,-1.173158884048462,3.308786630630493,-30.0445556640625,-10.772705078125,7.4615478515625
11.1099999,-9.543288230895996,-0.7230489253997803,3.0789434909820557,-33.9813232421875,-2.0599365234375,6.77490234375
11.129999900000001,-9.651026725769043,-0.1867477297782898,2.736572504043579,-33.9202880859375,5.31005859375,6.103515625
11.149999900000001,-9.473855972290039,0.4620809257030487,2.2840683460235596,-34.515380859375,17.242431640625,4.9896240234375
11.1699999,-9.445125579833984,1.0845733880996704,1.845929503440857,-41.534423828125,43.5028076171875,8.7738037109375
11.1899999,-9.459490776062012,1.7262194156646729,1.3551181554794312,-49.74365234375,57.1136474609375,19.53125
11.209999900000001,-9.5408935546875,2.1811177730560303,0.7613561153411865,-50.9490966796875,53.7567138671875,28.656005859375
11.229999900000001,-9.746794700622559,2.33913516998291,0.15801730751991272,-43.64013671875,47.1649169921875,22.7508544921875
11.2499999,-9.919178009033203,2.2146365642547607,-0.48602294921875,-32.7301025390625,33.38623046875,6.439208984375
11.2699999,-10.029311180114746,1.7046716213226318,-0.8954314589500427,-19.9127197265625,20.965576171875,-1.5716552734375
11.2899999,-10.201693534851074,1.1085153818130493,-1.158793568611145,-4.21142578125,21.514892578125,1.678466796875
11.309999900000001,-10.278307914733887,0.4692635238170624,-1.0965443849563599,8.056640625,14.068603515625,8.9874267578125
11.3299999,-10.3549222946167,0.014365210197865963,-0.9169792532920837,13.580322265625,0.2288818359375,11.29150390625
11.3499999,-10.319009780883789,-0.29209262132644653,-0.545877993106842,18.37158203125,-3.814697265625,12.20703125
11.3699999,-10.251971244812012,-0.31124621629714966,-0.23702596127986908,23.25439453125,-2.4871826171875,8.85009765625
11.389999900000001,-10.06043529510498,-0.1867477297782898,0.10773907601833344,26.123046875,-7.50732421875,3.9825439453125
11.4099999,-9.93354320526123,0.14844051003456116,0.3926490843296051,28.350830078125,-4.1656494140625,5.126953125
11.4299999,-9.804255485534668,0.5363011956214905,0.6655880808830261,30.1055908203125,4.39453125,11.23046875
11.4499999,-9.739612579345703,1.0893617868423462,0.8978256583213806,32.0892333984375,3.509521484375,10.7574462890625
11.469999900000001,-9.758766174316406,1.558625340461731,1.048660397529602,29.96826171875,4.547119140625,6.04248046875
11.4899999,-9.708487510681152,2.0039467811584473,1.1276689767837524,16.0980224609375,11.3372802734375,2.1209716796875
11.5099999,-9.651026725769043,2.209848165512085,0.9840168952941895,-3.5552978515625,15.5181884765625,-1.220703125
11.5299999,-9.627084732055664,2.121262788772583,0.8044517636299133,-17.7154541015625,28.106689453125,0.67138671875
11.549999900000001,-9.639056205749512,1.8363527059555054,0.49799394607543945,-23.8800048828125,32.6385498046875,8.514404296875
11.569999900000001,-9.835380554199219,1.338358759880066,0.13407529890537262,-22.76611328125,21.484375,11.474609375
11.5899999,-10.034099578857422,0.8978256583213806,-0.3208230137825012,-8.148193359375,5.8441162109375,1.5869140625
11.6099999,-10.220847129821777,0.3998316824436188,-0.7182605266571045,19.2413330078125,-14.6484375,-22.0947265625
11.629999900000001,-10.29746150970459,-0.035913024097681046,-0.9026140570640564,39.36767578125,-33.14208984375,-40.34423828125
11.649999900000001,-10.216058731079102,-0.48602294921875,-0.8044517636299133,42.48046875,-33.99658203125,-29.0985107421875
11.6699999,-10.259154319763184,-0.9313444495201111,-0.3495534360408783,36.2548828125,-21.9573974609375,-7.87353515625
11.6899999,-10.129867553710938,-1.2042834758758545,0.4381389021873474,24.078369140625,-21.1029052734375,5.889892578125
11.709999900000001,-10.010157585144043,-1.2018892765045166,1.0558429956436157,10.5438232421875,-19.4854736328125,14.556884765625
11.729999900000001,-9.892841339111328,-0.950498104095459,1.5682021379470825,6.8817138671875,-11.1083984375,13.519287109375
11.7499999,-9.694122314453125,-0.4213795065879822,1.9177556037902832,9.613037109375,-9.9334716796875,5.3863525390625
11.7699999,-9.557653427124023,0.26815059781074524,1.8722656965255737,3.2196044921875,-1.8768310546875,4.0435791015625
11.7899999,-9.641449928283691,0.8403648138046265,1.7573440074920654,-8.8043212890625,11.23046875,8.941650390625
11.809999900000001,-9.744400978088379,1.314416766166687,1.4077905416488647,-16.5863037109375,3.2806396484375,7.904052734375
11.8299999,-9.864110946655273,1.4077905416488647,0.950498104095459,-19.3023681640625,-5.7373046875,6.34765625
11.8499999,-10.077195167541504,1.2689268589019775,0.45010992884635925,-17.5018310546875,-6.4849853515625,5.035400390625
11.8699999,-10.108319282531738,0.9576807022094727,0.1173158809542656,-9.5367431640625,-13.97705078125,-2.716064453125
11.889999900000001,-10.067618370056152,0.5386953949928284,-0.12689268589019775,0.4119873046875,-20.111083984375,-2.3040771484375
11.9099999,-10.153809547424316,0.1604115068912506,-0.05506663769483566,7.4920654296875,-12.3443603515625,9.3231201171875
11.9299999,-10.086771965026855,-0.0454898327589035,0.1173158809542656,14.2364501953125,-18.9056396484375,16.11328125
11.9499999,-10.019734382629395,-0.10534487664699554,0.5386953949928284,19.256591796875,-29.5562744140625,15.899658203125
11.969999900000001,-10.017339706420898,0.17956513166427612,1.0271124839782715,15.6707763671875,-21.9268798828125,13.36669921875
11.9899999,-9.749189376831055,0.6584054827690125,1.5969325304031372,0.885009765625,-12.0697021484375,6.134033203125
12.0099999,-9.605537414550781,1.1516109704971313,2.099714994430542,-14.5263671875,-6.77490234375,-0.152587890625
12.0299999,-9.509769439697266,1.577778935432434,2.4013843536376953,-20.6146240234375,8.392333984375,-0.48828125
12.049999900000001,-9.519346237182617,1.7956513166427612,2.5546131134033203,-23.49853515625,14.9383544921875,6.134033203125
12.069999900000001,-9.560047149658203,1.7549498081207275,2.454056739807129,-28.961181640625,8.72802734375,3.11279296875
12.0899999,-9.701305389404297,1.5825673341751099,2.1308395862579346,-26.3214111328125,10.0555419921875,-3.2501220703125
12.1099999,-9.770736694335938,1.158793568611145,1.721431016921997,-14.58740234375,10.223388671875,-3.41796875
12.129999900000001,-9.854534149169922,0.7350199222564697,1.2856862545013428,-4.6234130859375,6.103515625,-6.561279296875
12.149999900000001,-9.823410034179688,0.33758243918418884,0.9313444495201111,-0.91552734375,7.9803466796875,-4.1351318359375
12.1699999,-10.007762908935547,0.1149216815829277,0.6584054827690125,2.410888671875,14.495849609375,7.6751708984375
12.1899999,-10.043676376342773,0.06703764945268631,0.47165772318840027,6.3629150390625,1.5716552734375,10.986328125
12.209999900000001,-10.11789608001709,0.20350714027881622,0.2992752194404602,8.4991455078125,-9.796142578125,7.598876953125
12.229999900000001,-10.196905136108398,0.4836287498474121,0.33039984107017517,8.697509765625,-9.246826171875,8.1787109375
12.2499999,-10.041281700134277,0.8212111592292786,0.42616790533065796,4.6539306640625,-8.636474609375,-0.3204345703125
12.2699999,-9.883264541625977,1.1276689767837524,0.7134721279144287,-0.5340576171875,-10.0555419921875,-7.1868896484375
12.289999900000002,-9.780313491821289,1.3215993642807007,1.0031704902648926,-3.631591796875,-0.9613037109375,-2.4871826171875
12.309999900000001,-9.761159896850586,1.3263877630233765,1.3192051649093628,-6.561279296875,1.983642578125,7.01904296875
12.3299999,-9.713275909423828,1.1659762859344482,1.601720929145813,-9.8724365234375,-4.0283203125,2.899169921875
12.3499999,-9.720458984375,0.9648633003234863,1.6974890232086182,-8.8043212890625,-1.129150390625,0.701904296875
12.3699999,-9.727641105651855,0.7493851184844971,1.764526605606079,-4.5318603515625,1.3580322265625,4.69970703125
12.389999900000001,-9.799467086791992,0.6751648783683777,1.6903064250946045,-4.058837890625,1.9683837890625,-0.0762939453125
12.4099999,-9.713275909423828,0.667982280254364,1.6041151285171509,-7.476806640625,3.90625,-3.0517578125
12.4299999,-9.828198432922363,0.8259995579719543,1.4844050407409668,-6.6375732421875,15.9454345703125,5.6915283203125
12.4499999,-9.832986831665039,1.0079588890075684,1.3527239561080933,-3.021240234375,7.8887939453125,7.0648193359375
12.469999900000001,-9.80904483795166,1.1755530834197998,1.1899182796478271,-3.8909912109375,-0.79345703125,-2.9754638671875
12.4899999,-9.962273597717285,1.2641384601593018,1.0247182846069336,-5.0048828125,0.823974609375,-3.2196044921875
12.5099999,-9.93593692779541,1.1971008777618408,0.8643068075180054,-1.1749267578125,-1.15966796875,-5.035400390625
12.5299999,-9.986215591430664,0.9888052940368652,0.8020575642585754,4.180908203125,-4.3792724609375,-9.5977783203125
12.549999900000001,-9.880870819091797,0.7493851184844971,0.7206547260284424,7.50732421875,-4.08935546875,-7.50732421875
12.569999900000001,-9.983820915222168,0.5793967843055725,0.7493851184844971,10.2996826171875,1.9378662109375,7.232666015625
12.5899999,-9.916783332824707,0.5291185975074768,0.811634361743927,9.6588134765625,-7.293701171875,5.8441162109375
12.6099999,-9.909601211547852,0.6105214357376099,0.9169792532920837,5.523681640625,-10.8642578125,-0.4425048828125
12.629999900000001,-9.945513725280762,0.7230489253997803,1.094150185585022,2.227783203125,-9.9945068359375,3.0670166015625
12.649999900000001,-9.739612579345703,0.7829039692878723,1.525106430053711,-5.3558349609375,-1.953125,-2.38037109375
12.6699999,-9.768342971801758,0.8427590131759644,1.6687586307525635,-8.1329345703125,5.462646484375,3.7841796875
12.6899999,-9.730035781860352,0.828393816947937,1.7501614093780518,-7.080078125,6.6986083984375,14.129638671875
12.709999900000001,-9.749189376831055,0.9481038451194763,1.6543933153152466,-7.293701171875,-0.9307861328125,5.7525634765625
12.729999900000001,-9.830592155456543,1.0678139925003052,1.522712230682373,-4.608154296875,-2.1209716796875,-0.3662109375
12.7499999,-9.876082420349121,1.1204863786697388,1.3000515699386597,2.197265625,-6.0577392578125,1.5869140625
12.7699999,-9.859322547912598,1.1276689767837524,1.2018892765045166,3.7078857421875,-2.777099609375,-2.5482177734375
12.789999900000002,-9.715670585632324,1.0414776802062988,1.1180921792984009,-0.4425048828125,0,-5.950927734375
12.809999900000001,-9.849745750427246,0.9864110946655273,1.1851298809051514,-1.6937255859375,4.3487548828125,2.8076171875
12.8299999,-9.782708168029785,0.9840168952941895,1.3000515699386597,-0.701904296875,-0.8087158203125,9.33837890625
12.8499999,-9.852140426635742,1.0295066833496094,1.3551181554794312,-1.953125,-2.9754638671875,0.91552734375
12.8699999,-9.923966407775879,1.1037269830703735,1.434126853942871,0.2593994140625,-3.2196044921875,-3.0364990234375
12.889999900000001,-9.84495735168457,1.1516109704971313,1.4987702369689941,4.2877197265625,-3.9825439453125,-3.1280517578125
12.9099999,-9.840168952941895,1.1348515748977661,1.522712230682373,3.1890869140625,1.495361328125,-8.0108642578125
12.9299999,-9.648633003234863,1.0869675874710083,1.5514427423477173,-1.0223388671875,6.8511962890625,-10.0250244140625
12.9499999,-9.821015357971191,1.0534487962722778,1.4437036514282227,-1.0223388671875,8.819580078125,1.8310546875
12.969999900000001,-9.710882186889648,0.9888052940368652,1.3024457693099976,1.800537109375,-0.79345703125,0.457763671875
12.9899999,-9.890447616577148,0.9888052940368652,1.072602391242981,4.6234130859375,-3.814697265625,-6.866455078125
13.0099999,-9.952696800231934,0.9002198576927185,0.9792284965515137,7.9498291015625,-8.3465576171875,-5.6304931640625
13.0299999,-9.96945571899414,0.8595184087753296,1.0462661981582642,8.2244873046875,-5.950927734375,-5.7220458984375
13.049999900000001,-9.864110946655273,0.7015010714530945,1.192312479019165,3.570556640625,0.1068115234375,-7.0648193359375
13.069999900000001,-9.823410034179688,0.7254431247711182,1.357512354850769,0.30517578125,5.37109375,-4.7607421875
13.0899999,-9.770736694335938,0.730231523513794,1.45806884765625,0.67138671875,3.448486328125,6.8817138671875
13.1099999,-9.770736694335938,0.9050082564353943,1.4915876388549805,-1.678466796875,-2.716064453125,1.3885498046875
13.129999900000001,-9.821015357971191,0.9888052940368652,1.434126853942871,-3.570556640625,-1.0223388671875,-4.7454833984375
13.149999900000001,-9.90241813659668,0.9840168952941895,1.4173674583435059,-0.885009765625,-5.1116943359375,-4.0130615234375
13.1699999,-9.813833236694336,0.8403648138046265,1.3646949529647827,1.2359619140625,-1.983642578125,-4.9285888671875
13.1899999,-9.797073364257812,0.7110779285430908,1.3215993642807007,0.3204345703125,1.953125,-5.096435546875
13.209999900000001,-9.837775230407715,0.5793967843055725,1.280897855758667,2.1209716796875,2.99072265625,1.4190673828125
13.229999900000001,-9.78989028930664,0.7015010714530945,1.3263877630233765,6.40869140625,-4.425048828125,7.50732421875
13.2499999,-9.852140426635742,0.811634361743927,1.3886369466781616,3.0975341796875,-4.21142578125,-0.274658203125
13.2699999,-9.837775230407715,1.0414776802062988,1.5490485429763794,-2.9296875,-0.396728515625,-4.7454833984375
13.289999900000002,-9.825803756713867,1.072602391242981,1.6879122257232666,-4.7149658203125,-1.0986328125,-5.0506591796875
13.309999900000001,-9.751583099365234,1.0678139925003052,1.8339585065841675,-7.4005126953125,5.9356689453125,-7.6141357421875
13.3299999,-9.691728591918945,0.9002198576927185,1.8124107122421265,-10.711669921875,13.9007568359375,-5.706787109375
13.3499999,-9.859322547912598,0.7326257228851318,1.6855180263519287,-6.072998046875,11.7645263671875,5.2490234375
13.3699999,-9.799467086791992,0.6631938815116882,1.4317326545715332,3.9825439453125,-0.762939453125,3.082275390625
13.389999900000001,-9.96945571899414,0.6512228846549988,1.1635819673538208,8.697509765625,-1.3427734375,-2.44140625
13.4099999,-9.962273597717285,0.730231523513794,0.9361328482627869,8.7890625,-5.9051513671875,-4.8980712890625
13.4299999,-9.892841339111328,0.7637503147125244,0.8475474119186401,7.6751708984375,-6.3629150390625,-5.859375
13.4499999,-9.856928825378418,0.7613561153411865,0.9097966551780701,5.4168701171875,-1.9378662109375,-7.7667236328125
13.469999900000001,-9.780313491821289,0.7110779285430908,1.0462661981582642,2.8839111328125,2.349853515625,-3.5247802734375
13.4899999,-9.847352027893066,0.6607996821403503,1.3192051649093628,0.274658203125,-0.152587890625,7.50732421875
13.5099999,-9.765948295593262,0.6703764796257019,1.5394717454910278,-3.7078857421875,-2.0599365234375,2.0751953125
13.5299999,-9.854534149169922,0.6919242739677429,1.7525556087493896,-7.7667236328125,5.2032470703125,-0.7476806640625
13.549999900000001,-9.80904483795166,0.7972691655158997,1.8794482946395874,-9.185791015625,2.777099609375,-1.5411376953125
13.569999900000001,-9.744400978088379,0.8259995579719543,1.8770540952682495,-11.3983154296875,6.7596435546875,-2.2735595703125
13.5899999,-9.696516990661621,0.828393816947937,1.7310078144073486,-13.3056640625,13.5650634765625,-4.669189453125
13.6099999,-9.751583099365234,0.8188169598579407,1.4748282432556152,-8.209228515625,13.5345458984375,1.220703125
13.629999900000001,-9.758766174316406,0.7350199222564697,1.2018892765045166,-1.129150390625,0.6866455078125,5.5389404296875
13.649999900000001,-9.909601211547852,0.6775590777397156,1.0223240852355957,0.640869140625,-0.8544921875,0.5340576171875
13.6699999,-10.002974510192871,0.5793967843055725,0.8523358106613159,3.1280517578125,0.3662109375,0.244140625
13.6899999,-10.062829971313477,0.5171475410461426,0.9169792532920837,7.5531005859375,-7.0037841796875,-0.1678466796875
13.709999900000001,-9.959878921508789,0.5315127968788147,1.01753568649292,5.6610107421875,-2.9754638671875,-1.5869140625
13.729999900000001,-9.904812812805176,0.5770025849342346,1.1827356815338135,-3.2501220703125,7.720947265625,-0.091552734375
13.7499999,-9.8784761428833,0.7852981686592102,1.3958195447921753,-10.009765625,9.70458984375,6.256103515625
13.7699999,-9.751583099365234,0.9241618514060974,1.5131354331970215,-11.260986328125,-0.0457763671875,4.4097900390625
13.789999900000002,-9.830592155456543,1.0319008827209473,1.5322890281677246,-11.3677978515625,3.7384033203125,-0.1983642578125
13.809999900000001,-9.785101890563965,1.0103530883789062,1.4700398445129395,-10.406494140625,3.021240234375,-1.251220703125
13.8299999,-9.830592155456543,0.8690952062606812,1.400607943534851,-7.8582763671875,0.5645751953125,-2.716064453125
13.8499999,-9.75397777557373,0.5961562395095825,1.2521674633026123,-4.6539306640625,4.2877197265625,-1.922607421875
13.8699999,-9.80904483795166,0.4165911078453064,1.137245774269104,-0.732421875,9.796142578125,3.997802734375
13.889999900000001,-9.911994934082031,0.36152446269989014,1.1013327836990356,0.335693359375,3.4637451171875,10.7574462890625
13.9099999,-9.825803756713867,0.47165772318840027,1.113303780555725,-3.8909912109375,-3.265380859375,6.195068359375
13.9299999,-10.06043529510498,0.6991068720817566,1.194706678390503,-8.3770751953125,5.706787109375,4.82177734375
13.9499999,-9.93354320526123,0.8978256583213806,1.2761094570159912,-5.8441162109375,1.6021728515625,1.0528564453125
13.969999900000001,-9.93593692779541,0.9433154463768005,1.403002142906189,-4.21142578125,1.1749267578125,-1.5716552734375
13.9899999,-9.715670585632324,0.9457096457481384,1.460463047027588,-8.1939697265625,9.8724365234375,-1.77001953125
14.0099999,-9.725247383117676,0.9026140570640564,1.5059528350830078,-8.819580078125,19.317626953125,5.889892578125
14.0299999,-9.6989107131958,0.950498104095459,1.4748282432556152,-7.5531005859375,8.97216796875,7.0343017578125
14.049999900000001,-9.734824180603027,1.0031704902648926,1.2330138683319092,-9.58251953125,3.4332275390625,-0.5950927734375
14.069999900000001,-9.940725326538086,1.0845733880996704,0.9481038451194763,-8.72802734375,6.591796875,-1.1749267578125
14.0899999,-9.962273597717285,1.039083480834961,0.6488286852836609,0.0152587890625,-2.227783203125,-5.3863525390625
14.1099999,-9.99100399017334,0.871489405632019,0.4165911078453064,8.9874267578125,-8.575439453125,-8.4686279296875
14.129999900000001,-9.96945571899414,0.6727706789970398,0.35913026332855225,13.641357421875,-5.2947998046875,-5.706787109375
14.149999900000001,-10.043676376342773,0.507570743560791,0.507570743560791,14.5721435546875,0.54931640625,4.9591064453125
14.1699999,-9.950302124023438,0.48602294921875,0.8044517636299133,9.307861328125,-6.439208984375,7.0953369140625
14.1899999,-9.9000244140625,0.6177040338516235,1.173158884048462,-0.152587890625,-6.561279296875,3.2501220703125
14.209999900000001,-9.99339771270752,0.7829039692878723,1.4987702369689941,-7.87353515625,1.434326171875,4.1961669921875
14.229999900000001,-9.847352027893066,0.9457096457481384,1.6496049165725708,-9.9945068359375,0.732421875,-1.220703125
14.2499999,-9.818621635437012,0.9552865028381348,1.6615760326385498,-10.8489990234375,1.6021728515625,-2.74658203125
14.2699999,-9.730035781860352,0.950498104095459,1.4508862495422363,-8.2550048828125,6.53076171875,-0.5035400390625
14.289999900000002,-9.749189376831055,0.9169792532920837,1.237802267074585,-0.274658203125,7.4462890625,8.148193359375
14.309999900000001,-9.742006301879883,0.9433154463768005,1.0271124839782715,0.6256103515625,-5.3253173828125,4.4097900390625
14.3299999,-9.840168952941895,0.9840168952941895,0.9433154463768005,-3.570556640625,-4.3182373046875,-0.9918212890625
14.3499999,-9.981427192687988,0.9792284965515137,0.9217676520347595,-0.9918212890625,-2.5787353515625,0.79345703125
14.3699999,-9.974244117736816,0.8930372595787048,1.0103530883789062,6.3323974609375,-5.4168701171875,-4.058837890625
14.389999900000001,-9.854534149169922,0.7445967197418213,1.05105459690094,9.8114013671875,-7.1258544921875,-5.7220458984375
14.4099999,-9.847352027893066,0.7038952708244324,1.1180921792984009,11.5509033203125,2.0599365234375,-1.0528564453125
14.4299999,-9.806650161743164,0.7493851184844971,1.2306196689605713,11.077880859375,3.1890869140625,7.6141357421875
14.4499999,-9.761159896850586,0.9361328482627869,1.3646949529647827,1.678466796875,-3.8909912109375,2.4871826171875
14.469999900000001,-9.751583099365234,1.1324573755264282,1.525106430053711,-9.6435546875,2.105712890625,-2.105712890625
14.4899999,-9.847352027893066,1.158793568611145,1.5873557329177856,-12.115478515625,5.7220458984375,-0.5950927734375
14.5099999,-9.782708168029785,1.1180921792984009,1.656787633895874,-8.2855224609375,5.279541015625,-5.4779052734375
14.5299999,-9.744400978088379,0.8427590131759644,1.4724340438842773,-6.9427490234375,5.2032470703125,-5.55419921875
14.549999900000001,-9.823410034179688,0.6727706789970398,1.2401964664459229,-1.1138916015625,11.3372802734375,1.6937255859375
14.569999900000001,-9.873687744140625,0.5746083855628967,0.9816226959228516,8.11767578125,4.5013427734375,10.162353515625
14.5899999,-9.911994934082031,0.6512228846549988,0.7972691655158997,5.5999755859375,-6.2255859375,3.1585693359375
14.6099999,-9.983820915222168,0.8236053586006165,0.7852981686592102,-3.41796875,-2.044677734375,-0.9002685546875
14.629999900000001,-10.070012092590332,0.9385270476341248,0.8523358106613159,-4.08935546875,-1.89208984375,1.312255859375
14.649999900000001,-9.964667320251465,0.9959878921508789,0.9528923034667969,1.6937255859375,-3.692626953125,-5.0811767578125
14.6699999,-9.854534149169922,0.9241618514060974,1.015141487121582,4.5166015625,-5.79833984375,-7.2174072265625
14.6899999,-9.840168952941895,0.8379706144332886,1.05105459690094,4.6539306640625,3.173828125,1.129150390625
14.709999900000001,-9.81143856048584,0.8044517636299133,1.1204863786697388,4.852294921875,0.762939453125,9.4146728515625
14.729999900000001,-9.770736694335938,0.8619126081466675,1.3287819623947144,-0.4730224609375,-5.126953125,2.197265625
14.7499999,-9.77791976928711,0.9097966551780701,1.460463047027588,-8.056640625,-0.3662109375,-0.274658203125
14.7699999,-9.84256362915039,0.9720458984375,1.6065093278884888,-11.6119384765625,4.150390625,3.4027099609375
14.789999900000002,-9.813833236694336,0.9217676520347595,1.601720929145813,-8.9569091796875,5.859375,-1.3427734375
14.809999900000001,-9.737217903137207,0.8571242094039917,1.434126853942871,-5.1422119140625,4.119873046875,-4.3182373046875
14.8299999,-9.9000244140625,0.7948749661445618,1.2090718746185303,0.79345703125,10.040283203125,4.5318603515625
14.8499999,-9.864110946655273,0.8834604024887085,1.0893617868423462,3.4637451171875,4.21142578125,9.918212890625
14.8699999,-9.919178009033203,1.0438719987869263,0.9696516990661621,-1.983642578125,0.823974609375,-0.4119873046875
14.889999900000001,-9.95748519897461,1.2066776752471924,0.8930372595787048,-2.2735595703125,-1.77001953125,-5.3558349609375
14.9099999,-10.005369186401367,1.2401964664459229,0.849941611289978,4.5928955078125,-6.072998046875,-2.6092529296875
14.9299999,-9.928754806518555,1.1324573755264282,0.8164227604866028,8.11767578125,-5.5694580078125,-6.7291259765625
14.9499999,-9.792284965515137,0.9457096457481384,0.9074024558067322,5.4931640625,-2.8076171875,-8.8653564453125
14.969999900000001,-9.861717224121094,0.790086567401886,1.0462661981582642,3.3111572265625,4.39453125,0.3814697265625
14.9899999,-9.763554573059082,0.7972691655158997,1.314416766166687,2.593994140625,0.9613037109375,6.6680908203125
15.0099999,-9.86650562286377,0.8643068075180054,1.5179238319396973,-6.2255859375,2.0599365234375,-0.396728515625
15.0299999,-9.825803756713867,0.9864110946655273,1.6759412288665771,-14.3585205078125,4.9285888671875,-2.5787353515625
15.049999900000001,-9.871294021606445,0.9768342971801758,1.6280571222305298,-13.0462646484375,6.439208984375,1.15966796875
15.069999900000001,-9.816226959228516,0.9002198576927185,1.4245500564575195,-6.0577392578125,6.34765625,-3.96728515625
15.0899999,-9.682151794433594,0.7637503147125244,1.0606313943862915,-1.190185546875,5.035400390625,-6.378173828125
15.1099999,-9.93593692779541,0.6703764796257019,0.6727706789970398,4.7454833984375,4.180908203125,3.448486328125
15.129999900000001,-9.830592155456543,0.7038952708244324,0.4812345504760742,9.7503662109375,-7.476806640625,5.2947998046875
15.149999900000001,-9.959878921508789,0.8379706144332886,0.5530605912208557,6.1492919921875,-7.6904296875,-3.570556640625
15.1699999,-9.883264541625977,1.0247182846069336,0.8307880163192749,-0.4425048828125,-8.056640625,-6.34765625
15.1899999,-9.84495735168457,1.115697979927063,1.2258312702178955,-5.706787109375,-1.6632080078125,-3.7689208984375
15.209999900000001,-9.794678688049316,1.0821791887283325,1.534683346748352,-7.99560546875,4.8065185546875,-7.14111328125
15.229999900000001,-9.591172218322754,0.8882488012313843,1.599326729774475,-7.781982421875,8.2550048828125,-7.3699951171875
15.2499999,-9.823410034179688,0.7445967197418213,1.6112977266311646,-3.0364990234375,9.0179443359375,6.195068359375
15.2699999,-9.710882186889648,0.6631938815116882,1.5083470344543457,-1.15966796875,3.448486328125,6.65283203125
15.289999900000002,-9.928754806518555,0.7661445140838623,1.3934253454208374,-6.4239501953125,7.965087890625,-2.166748046875
15.309999900000001,-9.967061996459961,0.8834604024887085,1.2401964664459229,-6.378173828125,1.1138916015625,-4.7607421875
15.3299999,-9.99339771270752,0.950498104095459,0.9672574996948242,-1.9989013671875,-0.4119873046875,-2.7618408203125
15.3499999,-9.995792388916016,0.8164227604866028,0.7134721279144287,3.6773681640625,-0.1373291015625,-6.500244140625
15.3699999,-9.854534149169922,0.6703764796257019,0.4836287498474121,6.9580078125,-0.6256103515625,-6.9427490234375
15.389999900000001,-10.029311180114746,0.44532153010368347,0.4381389021873474,10.498046875,-5.4779052734375,7.8887939453125
15.4099999,-9.921571731567383,0.4405331015586853,0.5626373887062073,11.505126953125,-11.932373046875,7.232666015625
15.4299999,-9.99339771270752,0.5482721924781799,0.8858546018600464,3.8604736328125,-6.4849853515625,-0.274658203125
15.4499999,-9.983820915222168,0.7541735172271729,1.2401964664459229,-4.608154296875,-7.6141357421875,-2.899169921875
15.469999900000001,-9.847352027893066,0.9217676520347595,1.5442601442337036,-8.60595703125,-1.1138916015625,1.678466796875
15.4899999,-9.859322547912598,0.912190854549408,1.6543933153152466,-9.94873046875,5.0048828125,-0.67138671875
15.5099999,-9.66539192199707,0.8571242094039917,1.5897499322891235,-8.9569091796875,7.38525390625,-1.0833740234375
15.5299999,-9.818621635437012,0.7086837291717529,1.4484920501708984,-4.058837890625,1.9378662109375,12.115478515625
15.549999900000001,-9.708487510681152,0.7206547260284424,1.278503656387329,-1.3427734375,-1.6937255859375,8.026123046875
15.569999900000001,-9.847352027893066,0.7972691655158997,1.2066776752471924,-1.068115234375,0.0457763671875,-1.251220703125
15.5899999,-9.890447616577148,0.9265560507774353,1.1899182796478271,1.312255859375,-6.439208984375,-4.94384765625
15.6099999,-9.80904483795166,1.1013327836990356,1.3120225667953491,-0.457763671875,-0.18310546875,-2.9754638671875
15.629999900000001,-9.821015357971191,1.1061211824417114,1.3551181554794312,-5.79833984375,9.82666015625,-5.3253173828125
15.649999900000001,-9.713275909423828,1.1444283723831177,1.280897855758667,-6.317138671875,10.7879638671875,-6.3934326171875
15.6699999,-9.749189376831055,1.0582371950149536,1.158793568611145,1.1749267578125,-1.4190673828125,3.9825439453125
15.6899999,-9.813833236694336,0.9648633003234863,0.9265560507774353,3.96728515625,-3.4027099609375,-2.3651123046875
15.709999900000001,-9.99339771270752,0.8451532125473022,0.7924807667732239,4.9285888671875,-3.631591796875,-7.8277587890625
15.729999900000001,-10.098742485046387,0.6607996821403503,0.7350199222564697,10.9710693359375,-13.1683349609375,-7.5836181640625
15.7499999,-10.04846477508545,0.5315127968788147,0.8068459630012512,17.5628662109375,-10.7269287109375,-5.0506591796875
15.7699999,-9.995792388916016,0.4189853072166443,0.9768342971801758,15.07568359375,-2.288818359375,-4.21142578125
15.789999900000002,-9.859322547912598,0.47405192255973816,1.213860273361206,4.9896240234375,0.9307861328125,-0.30517578125
15.809999900000001,-9.701305389404297,0.6105214357376099,1.4987702369689941,-1.8157958984375,-3.753662109375,8.697509765625
15.8299999,-9.72285270690918,0.7972691655158997,1.678335428237915,-8.8653564453125,2.62451171875,2.0294189453125
15.8499999,-9.653421401977539,0.9433154463768005,1.7908629179000854,-16.7083740234375,4.180908203125,-3.2806396484375
15.869999900000002,-9.832986831665039,0.9169792532920837,1.625662922859192,-16.54052734375,-1.9073486328125,-2.13623046875
15.889999900000001,-9.780313491821289,0.8619126081466675,1.3694833517074585,-6.195068359375,-0.213623046875,-2.044677734375
15.9099999,-10.012551307678223,0.6344634294509888,1.0199298858642578,5.1727294921875,2.0599365234375,-1.40380859375
15.9299999,-10.029311180114746,0.5746083855628967,0.7086837291717529,9.9334716796875,-5.401611328125,3.23486328125
15.9499999,-9.964667320251465,0.5674257874488831,0.6416460275650024,13.916015625,-17.15087890625,10.040283203125
15.969999900000001,-9.988609313964844,0.6871358752250671,0.849941611289978,10.9710693359375,-10.589599609375,1.9073486328125
15.9899999,-9.840168952941895,0.849941611289978,1.2545616626739502,1.007080078125,-6.8206787109375,-4.0283203125
16.0099999,-9.828198432922363,0.9433154463768005,1.7621324062347412,-9.3231201171875,-4.486083984375,-1.1444091796875
16.0299999,-9.624691009521484,1.0055646896362305,2.140416383743286,-13.18359375,8.148193359375,-2.1209716796875
16.0499999,-9.641449928283691,0.9744400978088379,2.250549554824829,-11.1541748046875,17.547607421875,-3.4942626953125
16.0699999,-9.641449928283691,0.9744400978088379,2.073378562927246,-6.561279296875,10.2081298828125,0.2288818359375
16.089999900000002,-9.636661529541016,0.9888052940368652,1.702277421951294,-2.5482177734375,-0.1068115234375,3.5400390625
16.109999900000002,-9.81143856048584,0.9457096457481384,1.3048399686813354,-0.5645751953125,4.4708251953125,-4.058837890625
16.1299999,-9.888052940368652,0.8595184087753296,1.0031704902648926,4.2572021484375,-2.1209716796875,-9.033203125
16.1499999,-9.974244117736816,0.6560112833976746,0.8403648138046265,9.246826171875,-9.1705322265625,-4.6234130859375
16.1699999,-9.93593692779541,0.44771572947502136,0.8379706144332886,12.0391845703125,-1.4801025390625,-4.302978515625
16.1899999,-9.99100399017334,0.3447650372982025,0.9265560507774353,10.2996826171875,4.1961669921875,-0.823974609375
16.2099999,-9.979032516479492,0.3711012601852417,1.1109095811843872,4.302978515625,-2.8076171875,5.7220458984375
16.2299999,-9.916783332824707,0.586579442024231,1.3551181554794312,-0.885009765625,-5.8135986328125,7.4615478515625
16.249999900000002,-9.945513725280762,0.7206547260284424,1.5275006294250488,-6.34765625,1.0986328125,2.044677734375
16.269999900000002,-9.806650161743164,0.8643068075180054,1.6543933153152466,-8.453369140625,-2.1820068359375,-1.9073486328125
16.2899999,-9.710882186889648,0.7565677165985107,1.6208745241165161,-6.591796875,-4.8065185546875,3.23486328125
16.3099999,-9.672574996948242,0.6727706789970398,1.479616641998291,-2.899169921875,5.0811767578125,2.777099609375
16.3299999,-9.68933391571045,0.6272808313369751,1.2976573705673218,-0.213623046875,6.3934326171875,4.9896240234375
16.3499999,-9.821015357971191,0.6967126727104187,1.2330138683319092,1.373291015625,-6.103515625,9.2010498046875
16.3699999,-9.890447616577148,0.9217676520347595,1.278503656387329,-0.5950927734375,-5.2337646484375,5.6304931640625
16.3899999,-9.938331604003906,1.0654197931289673,1.3886369466781616,-5.6610107421875,3.0670166015625,-1.708984375
16.4099999,-9.847352027893066,1.1803414821624756,1.5825673341751099,-6.561279296875,-0.762939453125,-6.9427490234375
16.429999900000002,-9.761159896850586,1.0271124839782715,1.5873557329177856,-2.38037109375,-3.0059814453125,-2.3345947265625
16.4499999,-9.746794700622559,0.8882488012313843,1.5418659448623657,3.47900390625,8.1939697265625,-1.3275146484375
16.4699999,-9.708487510681152,0.7230489253997803,1.400607943534851,5.950927734375,5.8441162109375,1.6937255859375
16.4899999,-9.847352027893066,0.6512228846549988,1.3096283674240112,5.55419921875,-7.598876953125,6.2103271484375
16.5099999,-9.86650562286377,0.7589619159698486,1.278503656387329,2.9449462890625,-3.4332275390625,2.74658203125
16.5299999,-9.921571731567383,0.8259995579719543,1.3215993642807007,0.1678466796875,-0.4730224609375,-3.7841796875
16.5499999,-9.749189376831055,0.8643068075180054,1.3766659498214722,4.8370361328125,-5.5389404296875,-3.0975341796875
16.5699999,-9.806650161743164,0.811634361743927,1.3910311460494995,7.2479248046875,5.4473876953125,0
16.589999900000002,-9.744400978088379,0.7829039692878723,1.4173674583435059,3.5400390625,2.6092529296875,2.3040771484375
16.609999900000002,-9.816226959228516,0.7541735172271729,1.436521053314209,0.4425048828125,-8.0108642578125,6.072998046875
16.6299999,-9.883264541625977,0.8427590131759644,1.434126853942871,-0.0762939453125,-1.953125,1.953125
16.6499999,-9.950302124023438,0.8978256583213806,1.4772224426269531,0.396728515625,-3.1280517578125,-3.4332275390625
16.6699999,-9.916783332824707,0.8667010068893433,1.5131354331970215,-1.8310546875,-7.1868896484375,-5.035400390625
16.6899999,-9.780313491821289,0.8643068075180054,1.580173134803772,-3.082275390625,0.9918212890625,-2.716064453125
16.7099999,-9.78989028930664,0.7661445140838623,1.6352397203445435,-2.50244140625,11.322021484375,1.0833740234375
16.7299999,-9.672574996948242,0.768538773059845,1.647210717201233,-3.814697265625,4.0130615234375,3.5400390625
16.749999900000002,-9.701305389404297,0.7805097699165344,1.6615760326385498,-5.31005859375,-3.265380859375,7.0953369140625
16.769999900000002,-9.794678688049316,0.8140285611152649,1.6208745241165161,-5.4931640625,4.791259765625,1.708984375
16.7899999,-9.832986831665039,0.8595184087753296,1.5466543436050415,-1.007080078125,1.708984375,-4.119873046875
16.8099999,-9.8784761428833,0.7852981686592102,1.4317326545715332,2.6092529296875,-6.77490234375,-2.86865234375
16.8299999,-9.849745750427246,0.768538773059845,1.3048399686813354,3.3416748046875,3.509521484375,-1.40380859375
16.8499999,-9.93354320526123,0.768538773059845,1.2114660739898682,1.7852783203125,7.6751708984375,1.922607421875
16.8699999,-9.86650562286377,0.8619126081466675,1.213860273361206,-1.1444091796875,-3.7689208984375,2.3956298828125
16.8899999,-9.86650562286377,0.9648633003234863,1.256955862045288,-3.082275390625,-6.4544677734375,2.74658203125
16.9099999,-9.923966407775879,1.0271124839782715,1.3503297567367554,-3.0364990234375,-1.2969970703125,-2.1209716796875
16.929999900000002,-9.840168952941895,1.0055646896362305,1.4317326545715332,-0.0152587890625,-4.57763671875,-6.2255859375
16.9499999,-9.739612579345703,0.7876923680305481,1.479616641998291,3.814697265625,-8.8348388671875,-1.953125
16.9699999,-9.725247383117676,0.6943184733390808,1.522712230682373,8.11767578125,4.1046142578125,-0.1068115234375
16.9899999,-9.670180320739746,0.5793967843055725,1.5897499322891235,5.0048828125,5.6610107421875,3.2196044921875
17.0099999,-9.691728591918945,0.6871358752250671,1.7262194156646729,-1.9989013671875,-3.3721923828125,6.1187744140625
17.0299999,-9.720458984375,0.9074024558067322,1.8267759084701538,-6.622314453125,3.1585693359375,3.0364990234375
17.0499999,-9.77791976928711,1.0295066833496094,1.9177556037902832,-6.34765625,7.0648193359375,-4.57763671875
17.0699999,-9.682151794433594,1.1324573755264282,1.9297266006469727,-6.591796875,3.7994384765625,-9.09423828125
17.089999900000002,-9.651026725769043,1.0342950820922852,1.8315643072128296,-8.270263671875,6.7901611328125,-4.608154296875
17.109999900000002,-9.758766174316406,0.933738648891449,1.6759412288665771,-4.9285888671875,19.6380615234375,-0.396728515625
17.1299999,-9.732429504394531,0.8188169598579407,1.4844050407409668,-2.685546875,10.8184814453125,1.2664794921875
17.1499999,-9.873687744140625,0.7661445140838623,1.2018892765045166,-2.0599365234375,-1.3885498046875,2.25830078125
17.1699999,-10.022128105163574,0.7230489253997803,0.933738648891449,4.8828125,-0.79345703125,-0.18310546875
17.1899999,-10.089165687561035,0.667982280254364,0.7230489253997803,15.5487060546875,-8.6669921875,-4.39453125
17.2099999,-10.053253173828125,0.5339069962501526,0.6775590777397156,17.9595947265625,-17.1356201171875,-5.9814453125
17.2299999,-9.981427192687988,0.5530605912208557,0.8307880163192749,12.63427734375,-7.476806640625,-1.0833740234375
17.249999900000002,-9.909601211547852,0.5099649429321289,1.173158884048462,6.3629150390625,4.2266845703125,4.7760009765625
17.269999900000002,-9.701305389404297,0.7565677165985107,1.6519991159439087,-2.471923828125,-0.335693359375,5.0811767578125
17.2899999,-9.694122314453125,0.9265560507774353,2.013523578643799,-14.7552490234375,-1.983642578125,7.1258544921875
17.3099999,-9.667786598205566,1.1276689767837524,2.255337953567505,-23.13232421875,9.429931640625,2.44140625
17.3299999,-9.643844604492188,1.1085153818130493,2.31758713722229,-20.0347900390625,8.7890625,-2.197265625
17.3499999,-9.658209800720215,0.9720458984375,2.1547815799713135,-16.17431640625,4.8828125,-1.4801025390625
17.3699999,-9.684545516967773,0.7852981686592102,1.8124107122421265,-7.87353515625,16.17431640625,3.326416015625
17.3899999,-9.749189376831055,0.6727706789970398,1.4508862495422363,3.2196044921875,12.6495361328125,7.965087890625
17.409999900000003,-9.792284965515137,0.7086837291717529,1.0869675874710083,1.739501953125,-0.701904296875,3.0517578125
17.429999900000002,-9.93593692779541,0.8140285611152649,0.8786720037460327,-3.3721923828125,-2.899169921875,3.662109375
17.4499999,-9.971850395202637,0.8882488012313843,0.7829039692878723,-1.312255859375,2.044677734375,1.1749267578125
17.4699999,-10.08437728881836,0.933738648891449,0.8667010068893433,8.5906982421875,-5.096435546875,-4.4403076171875
17.4899999,-9.911994934082031,0.8690952062606812,0.9169792532920837,10.92529296875,-9.063720703125,-6.103515625
17.5099999,-9.93593692779541,0.9193734526634216,1.0438719987869263,11.3067626953125,3.7689208984375,-1.220703125
17.5299999,-9.81143856048584,0.9528923034667969,1.1875240802764893,10.6048583984375,0.79345703125,2.7923583984375
17.5499999,-9.725247383117676,1.0749965906143188,1.4437036514282227,2.3345947265625,-5.462646484375,-2.1820068359375
17.5699999,-9.742006301879883,1.1276689767837524,1.6855180263519287,-5.9051513671875,-1.373291015625,-1.1444091796875
17.589999900000002,-9.763554573059082,1.0462661981582642,1.8698714971542358,-6.4544677734375,6.16455078125,-2.655029296875
17.609999900000002,-9.78989028930664,0.8954314589500427,1.922544002532959,0.4730224609375,2.0904541015625,-5.37109375
17.6299999,-9.749189376831055,0.6009446382522583,1.678335428237915,2.44140625,-1.1444091796875,-3.2196044921875
17.6499999,-9.816226959228516,0.5315127968788147,1.479616641998291,3.6163330078125,10.101318359375,4.9285888671875
17.6699999,-9.813833236694336,0.5530605912208557,1.237802267074585,0.0152587890625,4.4403076171875,7.50732421875
17.6899999,-9.80904483795166,0.7206547260284424,1.1276689767837524,-8.9874267578125,-3.662109375,2.166748046875
17.7099999,-9.876082420349121,0.8643068075180054,0.9983820915222168,-10.101318359375,-5.035400390625,3.173828125
17.7299999,-9.895236015319824,0.9026140570640564,0.9241618514060974,-0.1068115234375,-6.04248046875,0.732421875
17.749999900000002,-9.919178009033203,0.7805097699165344,0.9193734526634216,11.1541748046875,-13.7176513671875,-3.0670166015625
17.769999900000002,-9.856928825378418,0.6871358752250671,0.9696516990661621,12.39013671875,-14.2822265625,-0.5340576171875
17.7899999,-9.880870819091797,0.7158663272857666,1.194706678390503,11.2152099609375,-1.0528564453125,8.026123046875
17.8099999,-9.84495735168457,0.8643068075180054,1.5753847360610962,2.899169921875,-1.800537109375,9.82666015625
17.8299999,-9.679757118225098,1.1180921792984009,1.9943699836730957,-13.092041015625,-1.5869140625,3.5858154296875
17.8499999,-9.677363395690918,1.357512354850769,2.3295583724975586,-24.2767333984375,7.0648193359375,2.655029296875
17.8699999,-9.622296333312988,1.4173674583435059,2.4827871322631836,-24.993896484375,13.916015625,1.220703125
17.8899999,-9.667786598205566,1.2545616626739502,2.255337953567505,-17.852783203125,9.9334716796875,-2.1820068359375
17.909999900000003,-9.744400978088379,1.0055646896362305,1.6879122257232666,-7.232666015625,4.6234130859375,-2.62451171875
17.929999900000002,-9.986215591430664,0.8188169598579407,1.1085153818130493,11.199951171875,3.9520263671875,5.0506591796875
17.9499999,-10.002974510192871,0.7398083209991455,0.6177040338516235,18.3868408203125,-7.720947265625,5.92041015625
17.9699999,-10.031704902648926,0.8619126081466675,0.49320554733276367,12.5274658203125,-14.6636962890625,-1.1138916015625
17.9899999,-9.976638793945312,1.0342950820922852,0.689530074596405,8.2244873046875,-15.4571533203125,-1.922607421875
18.0099999,-9.86889934539795,1.1276689767837524,1.1540051698684692,5.523681640625,-9.185791015625,-2.8839111328125
18.0299999,-9.773131370544434,1.1085153818130493,1.6280571222305298,2.8076171875,-3.8604736328125,-6.0882568359375
18.0499999,-9.641449928283691,0.9983820915222168,2.032677173614502,-1.1749267578125,-0.6256103515625,-4.0740966796875
18.0699999,-9.636661529541016,0.9313444495201111,2.2888567447662354,-2.2735595703125,10.4217529296875,5.2490234375
18.089999900000002,-9.569623947143555,0.9696516990661621,2.341529369354248,-7.62939453125,10.3302001953125,8.1329345703125
18.109999900000002,-9.591172218322754,1.1085153818130493,2.3104045391082764,-17.88330078125,9.94873046875,-0.6866455078125
18.1299999,-9.660603523254395,1.2306196689605713,2.0207061767578125,-19.927978515625,7.4920654296875,-2.4566650390625
18.1499999,-9.799467086791992,1.192312479019165,1.656787633895874,-11.2457275390625,5.67626953125,-1.739501953125
18.1699999,-9.837775230407715,0.9816226959228516,1.2401964664459229,2.99072265625,0.48828125,-4.33349609375
18.1899999,-9.904812812805176,0.6560112833976746,0.8427590131759644,13.397216796875,-3.5552978515625,-5.1116943359375
18.2099999,-9.983820915222168,0.5386953949928284,0.7038952708244324,20.599365234375,-0.762939453125,5.6304931640625
18.2299999,-9.861717224121094,0.6009446382522583,0.7709329724311829,16.9677734375,-6.4849853515625,8.8958740234375
18.249999900000002,-9.81143856048584,0.9624691009521484,1.1492167711257935,0.9002685546875,-6.5155029296875,-0.06103515625
18.269999900000002,-9.713275909423828,1.3862427473068237,1.680729627609253,-18.707275390625,-0.335693359375,-4.638671875
18.2899999,-9.682151794433594,1.6065093278884888,2.145204782485962,-30.8074951171875,10.8642578125,-4.852294921875
18.3099999,-9.648633003234863,1.4628572463989258,2.343923568725586,-25.3448486328125,14.09912109375,-6.3018798828125
18.3299999,-9.684545516967773,1.05105459690094,2.0446481704711914,-9.552001953125,9.6282958984375,-5.279541015625
18.3499999,-9.8784761428833,0.6033388376235962,1.5322890281677246,10.589599609375,4.57763671875,6.927490234375
18.3699999,-9.885659217834473,0.3208230137825012,0.9074024558067322,17.8375244140625,-6.2103271484375,9.613037109375
18.3899999,-10.022128105163574,0.42377370595932007,0.5530605912208557,16.7694091796875,-13.519287109375,2.0904541015625
18.409999900000003,-9.952696800231934,0.6488286852836609,0.507570743560791,17.9595947265625,-19.7296142578125,-1.6326904296875
18.429999900000002,-9.955090522766113,0.993593692779541,0.8044517636299133,16.6473388671875,-15.899658203125,-2.471923828125
18.4499999,-9.78989028930664,1.139639973640442,1.2689268589019775,9.7503662109375,-7.659912109375,-5.6610107421875
18.4699999,-9.66539192199707,1.216254472732544,1.7812861204147339,1.983642578125,-3.173828125,-7.110595703125
18.4899999,-9.670180320739746,1.2401964664459229,2.2601263523101807,-3.4027099609375,6.378173828125,3.1890869140625
18.5099999,-9.531316757202148,1.1994950771331787,2.5258827209472656,-13.3514404296875,8.9569091796875,7.2784423828125
18.5299999,-9.600749015808105,1.2497732639312744,2.557007312774658,-23.040771484375,13.0462646484375,-0.48828125
18.5499999,-9.646238327026367,1.1228805780410767,2.252943754196167,-18.8446044921875,7.354736328125,-2.685546875
18.5699999,-9.813833236694336,0.9409212470054626,1.7812861204147339,-2.7008056640625,2.288818359375,-0.2899169921875
18.589999900000002,-9.871294021606445,0.7254431247711182,1.2545616626739502,12.115478515625,-1.4190673828125,-2.0751953125
18.609999900000002,-9.928754806518555,0.5291185975074768,0.8475474119186401,17.852783203125,-4.7607421875,-3.6163330078125
18.6299999,-10.010157585144043,0.608127236366272,0.8236053586006165,17.730712890625,-4.5166015625,6.7901611328125
18.6499999,-9.873687744140625,0.8355764150619507,0.9864110946655273,6.3629150390625,-6.256103515625,8.60595703125
18.6699999,-9.794678688049316,1.173158884048462,1.455674648284912,-10.6201171875,-0.91552734375,-0.3662109375
18.6899999,-9.6989107131958,1.4293384552001953,1.8148049116134644,-19.622802734375,-0.5645751953125,-4.9896240234375
18.7099999,-9.684545516967773,1.3838485479354858,2.0422539710998535,-15.6097412109375,1.8768310546875,-1.4495849609375
18.7299999,-9.739612579345703,1.1300631761550903,2.056619167327881,-6.34765625,4.8828125,-2.655029296875
18.749999900000002,-9.706093788146973,0.7781155705451965,1.8100165128707886,-0.18310546875,4.974365234375,-2.7008056640625
18.769999900000002,-9.8784761428833,0.569819986820221,1.6304513216018677,4.791259765625,4.1351318359375,9.2926025390625
18.7899999,-9.787496566772461,0.6368576288223267,1.4413094520568848,1.4495849609375,0.06103515625,9.9334716796875
18.8099999,-9.806650161743164,0.8978256583213806,1.4197616577148438,-4.8370361328125,-0.2288818359375,0.9307861328125
18.8299999,-9.737217903137207,1.1779472827911377,1.434126853942871,-5.9356689453125,-4.2877197265625,-3.448486328125
18.8499999,-9.81143856048584,1.2401964664459229,1.5203180313110352,-1.556396484375,-2.99072265625,-0.5035400390625
18.8699999,-9.761159896850586,1.1635819673538208,1.5729905366897583,3.6468505859375,1.5869140625,-3.875732421875
18.8899999,-9.730035781860352,0.9864110946655273,1.6160861253738403,4.119873046875,3.7994384765625,-5.06591796875
18.909999900000003,-9.80904483795166,0.9289502501487732,1.6615760326385498,2.4261474609375,5.279541015625,6.1187744140625
18.929999900000002,-9.732429504394531,0.993593692779541,1.723825216293335,-2.8839111328125,3.3111572265625,6.7901611328125
18.9499999,-9.739612579345703,1.1803414821624756,1.7836803197860718,-8.2244873046875,4.0435791015625,-1.556396484375
18.9699999,-9.703699111938477,1.2497732639312744,1.7597382068634033,-7.7972412109375,-0.335693359375,-5.462646484375
18.9899999,-9.835380554199219,1.1803414821624756,1.7286136150360107,-4.6844482421875,0.0152587890625,-1.800537109375
19.0099999,-9.708487510681152,0.9792284965515137,1.5538369417190552,0.79345703125,4.5166015625,-3.2806396484375
19.0299999,-9.758766174316406,0.7829039692878723,1.3838485479354858,5.401611328125,4.8370361328125,-4.6539306640625
19.0499999,-9.806650161743164,0.7398083209991455,1.2545616626739502,7.2479248046875,0.885009765625,5.4931640625
19.0699999,-9.816226959228516,0.8738836050033569,1.2042834758758545,2.50244140625,-3.90625,8.36181640625
19.089999900000002,-9.801861763000488,1.1085153818130493,1.3120225667953491,-4.45556640625,-1.8157958984375,-1.5411376953125
19.109999900000002,-9.799467086791992,1.2330138683319092,1.4413094520568848,-5.767822265625,-4.669189453125,-6.7291259765625
19.1299999,-9.849745750427246,1.2042834758758545,1.6328455209732056,-2.50244140625,-3.96728515625,-2.3193359375
19.1499999,-9.734824180603027,0.9768342971801758,1.6927006244659424,1.373291015625,2.74658203125,-2.25830078125
19.1699999,-9.746794700622559,0.8020575642585754,1.7046716213226318,5.279541015625,4.6539306640625,-4.39453125
19.1899999,-9.775525093078613,0.7445967197418213,1.6831238269805908,6.9122314453125,3.5552978515625,4.5318603515625
19.2099999,-9.749189376831055,0.8834604024887085,1.6496049165725708,0.1678466796875,-0.396728515625,9.246826171875
19.2299999,-9.744400978088379,1.137245774269104,1.6160861253738403,-9.21630859375,3.7078857421875,-1.220703125
19.249999900000002,-9.768342971801758,1.3000515699386597,1.5945383310317993,-7.6446533203125,-2.8839111328125,-8.30078125
19.269999900000002,-9.871294021606445,1.292868971824646,1.6065093278884888,-1.556396484375,-4.608154296875,-5.3863525390625
19.2899999,-9.758766174316406,1.0821791887283325,1.6136919260025024,2.593994140625,2.166748046875,-5.2032470703125
19.3099999,-9.782708168029785,0.8547300100326538,1.6065093278884888,3.35693359375,6.927490234375,-6.16455078125
19.3299999,-9.751583099365234,0.6871358752250671,1.6376339197158813,3.448486328125,5.43212890625,2.86865234375
19.3499999,-9.732429504394531,0.7350199222564697,1.659181833267212,0.54931640625,0.823974609375,9.6282958984375
19.3699999,-9.734824180603027,0.8738836050033569,1.6136919260025024,-8.941650390625,6.1798095703125,0.9918212890625
19.3899999,-9.816226959228516,1.0534487962722778,1.6280571222305298,-9.5672607421875,0.2899169921875,-4.82177734375
19.409999900000003,-9.8784761428833,1.0271124839782715,1.5322890281677246,-5.8135986328125,-3.5247802734375,-3.1280517578125
19.429999900000002,-9.81143856048584,0.9289502501487732,1.455674648284912,1.373291015625,1.03759765625,-2.8533935546875
19.4499999,-9.84495735168457,0.7852981686592102,1.3263877630233765,7.3394775390625,4.5928955078125,-4.180908203125
19.4699999,-9.794678688049316,0.7350199222564697,1.3120225667953491,7.720947265625,1.0986328125,1.9378662109375
19.4899999,-9.782708168029785,0.8092401623725891,1.3215993642807007,3.35693359375,-4.7149658203125,9.8419189453125
19.5099999,-9.787496566772461,1.015141487121582,1.3982137441635132,-5.43212890625,-0.091552734375,1.4801025390625
19.5299999,-9.792284965515137,1.0845733880996704,1.5275006294250488,-6.3323974609375,-3.7384033203125,-5.0506591796875
19.5499999,-9.864110946655273,1.1180921792984009,1.6352397203445435,-3.6163330078125,-6.1798095703125,-3.387451171875
19.5699999,-9.749189376831055,0.9983820915222168,1.7166426181793213,-0.8697509765625,1.77001953125,-1.556396484375
19.589999900000002,-9.694122314453125,0.8475474119186401,1.7381904125213623,1.9073486328125,8.8958740234375,-3.753662109375
19.609999900000002,-9.66299819946289,0.7924807667732239,1.656787633895874,3.23486328125,5.6304931640625,1.2054443359375
19.6299999,-9.653421401977539,0.871489405632019,1.6543933153152466,1.5411376953125,-2.44140625,9.27734375
19.6499999,-9.75397777557373,1.0199298858642578,1.5203180313110352,-7.2021484375,3.0059814453125,1.40380859375
19.6699999,-9.883264541625977,1.1324573755264282,1.5514427423477173,-7.2021484375,0.48828125,-5.950927734375
19.6899999,-9.895236015319824,1.0869675874710083,1.5179238319396973,-1.5716552734375,-5.828857421875,-4.4403076171875
19.7099999,-9.852140426635742,0.9624691009521484,1.460463047027588,3.5400390625,-1.03759765625,-1.9073486328125
19.7299999,-9.813833236694336,0.7661445140838623,1.4676456451416016,8.9111328125,5.5999755859375,-4.1961669921875
19.749999900000002,-9.749189376831055,0.7398083209991455,1.4460978507995605,6.16455078125,4.547119140625,-1.1749267578125
19.769999900000002,-9.75637149810791,0.8738836050033569,1.599326729774475,0.6256103515625,-1.9683837890625,8.8653564453125
19.7899999,-9.737217903137207,1.0414776802062988,1.6687586307525635,-9.7808837890625,3.662109375,3.6773681640625
19.8099999,-9.794678688049316,1.1516109704971313,1.7956513166427612,-12.359619140625,5.9051513671875,-4.8980712890625
19.8299999,-9.81143856048584,1.1563993692398071,1.7525556087493896,-6.5155029296875,-0.9918212890625,-5.218505859375
19.8499999,-9.775525093078613,0.9145850539207458,1.623268723487854,-0.4119873046875,0.9002685546875,-1.64794921875
19.8699999,-9.775525093078613,0.730231523513794,1.4101848602294922,9.0484619140625,5.462646484375,-2.593994140625
19.8899999,-9.734824180603027,0.569819986820221,1.2258312702178955,12.1917724609375,3.5247802734375,0.9002685546875
19.909999900000003,-9.804255485534668,0.6607996821403503,1.1875240802764893,8.6212158203125,-4.425048828125,9.1400146484375
19.929999900000002,-9.830592155456543,0.8259995579719543,1.161187767982483,0.6256103515625,-4.7607421875,5.9661865234375
19.9499999,-9.926360130310059,1.0989385843276978,1.359906554222107,-4.69970703125,-0.8697509765625,-3.753662109375
19.9699999,-9.840168952941895,1.1875240802764893,1.5275006294250488,-4.69970703125,-5.1116943359375,-5.7525634765625
19.9899999,-9.761159896850586,1.1468225717544556,1.6879122257232666,-5.035400390625,-0.579833984375,-1.1749267578125
20.0099999,-9.670180320739746,0.9983820915222168,1.8076223134994507,-1.861572265625,7.5531005859375,-1.9683837890625
20.0299999,-9.617507934570312,0.8571242094039917,1.7836803197860718,1.434326171875,9.8419189453125,-1.556396484375
20.0499999,-9.713275909423828,0.871489405632019,1.766920804977417,1.2664794921875,2.8076171875,6.3629150390625
20.0699999,-9.739612579345703,0.9959878921508789,1.6687586307525635,-4.425048828125,-1.1138916015625,5.55419921875
20.089999900000002,-9.914389610290527,1.0893617868423462,1.5298948287963867,-10.528564453125,4.486083984375,-3.9215087890625
20.109999900000002,-9.856928825378418,1.1779472827911377,1.4652514457702637,-5.06591796875,-4.0283203125,-6.805419921875
20.1299999,-9.883264541625977,0.9983820915222168,1.290474772453308,2.105712890625,-5.462646484375,-3.2958984375
20.1499999,-9.825803756713867,0.7972691655158997,1.2066776752471924,10.772705078125,-1.800537109375,-3.631591796875
20.1699999,-9.873687744140625,0.6033388376235962,1.1827356815338135,16.387939453125,1.6937255859375,-2.5177001953125
20.1899999,-9.832986831665039,0.6392518281936646,1.3096283674240112,11.3677978515625,-1.5716552734375,4.0130615234375
20.2099999,-9.80904483795166,0.8451532125473022,1.5203180313110352,-1.89208984375,-5.4931640625,7.720947265625
20.2299999,-9.696516990661621,1.3407529592514038,2.0374655723571777,-14.1754150390625,3.265380859375,-7.659912109375
20.249999900000002,-9.691728591918945,1.316810965538025,2.1164743900299072,-11.871337890625,3.4027099609375,-5.4779052734375
