# Time (seconds),Accel_X,Accel_Y,Accel_Z,Gyro_X,Gyro_Y,Gyro_Z
0.0099999,-9.691728591918945,-3.751713991165161,0.7733271718025208,5.79833984375,7.5531005859375,48.126220703125
0.029999900000000003,-9.691728591918945,-3.5936968326568604,0.7565677165985107,-0.3814697265625,12.63427734375,42.1600341796875
0.0499999,-9.660603523254395,-3.4308910369873047,0.7182605266571045,-5.8441162109375,18.0206298828125,34.210205078125
0.0699999,-9.622296333312988,-3.2561142444610596,0.6368576288223267,-9.002685546875,17.486572265625,32.3486328125
0.08999990000000001,-9.548076629638672,-3.112462282180786,0.5099649429321289,-10.589599609375,15.6707763671875,33.355712890625
0.10999990000000001,-9.464279174804688,-2.9879636764526367,0.35434186458587646,-9.46044921875,16.693115234375,30.5633544921875
0.1299999,-9.354146003723145,-2.892195701599121,0.2106897532939911,-5.462646484375,18.2952880859375,25.970458984375
0.14999990000000002,-9.320627212524414,-2.806004285812378,0.07182604819536209,-1.6632080078125,18.035888671875,26.0162353515625
0.1699999,-9.346963882446289,-2.719813108444214,-0.038307227194309235,2.13623046875,12.0086669921875,28.3050537109375
0.1899999,-9.406818389892578,-2.6384103298187256,-0.10055647045373917,6.3018798828125,2.25830078125,29.8919677734375
0.20999990000000002,-9.493009567260742,-2.535459518432617,-0.09816227108240128,9.2010498046875,-2.7923583984375,35.7666015625
0.2299999,-9.605537414550781,-2.3343467712402344,-0.031124621629714966,9.521484375,-0.4119873046875,42.2210693359375
0.2499999,-9.66299819946289,-2.0853497982025146,0.08140286058187485,9.4451904296875,4.2877197265625,38.848876953125
0.2699999,-9.730035781860352,-1.7836803197860718,0.2106897532939911,7.9803466796875,4.39453125,33.50830078125
0.28999990000000003,-9.832986831665039,-1.4700398445129395,0.30885201692581177,5.3253173828125,-0.3814697265625,35.21728515625
0.3099999,-10.266336441040039,-1.237802267074585,0.4165911078453064,3.11279296875,-6.1187744140625,32.5927734375
0.3299999,-10.47942066192627,-1.0654197931289673,0.5171475410461426,1.1444091796875,-9.002685546875,7.8582763671875
0.34999990000000003,-10.87446403503418,-1.0007762908935547,0.5937620401382446,-3.814697265625,-6.40869140625,4.4403076171875
0.3699999,-10.857705116271973,-0.9720458984375,0.6272808313369751,-7.2174072265625,-2.6397705078125,11.474609375
0.3899999,-10.649409294128418,-0.9600749015808105,0.5961562395095825,-8.331298828125,-2.685546875,12.298583984375
0.40999990000000003,-10.314221382141113,-0.9481038451194763,0.5410895943641663,-8.9263916015625,-1.89208984375,10.1470947265625
0.4299999,-10.019734382629395,-0.9289502501487732,0.49559974670410156,-9.8724365234375,-0.518798828125,7.476806640625
0.4499999,-9.823410034179688,-0.9672574996948242,0.4884171485900879,-11.1236572265625,1.1444091796875,7.3394775390625
0.4699999,-9.720458984375,-1.072602391242981,0.5386953949928284,-13.427734375,3.5552978515625,10.162353515625
0.4899999,-9.6989107131958,-1.2186486721038818,0.6200982332229614,-17.8680419921875,6.8511962890625,17.15087890625
0.5099999,-9.749189376831055,-1.3886369466781616,0.6703764796257019,-24.0325927734375,11.5966796875,23.37646484375
0.5299999,-9.782708168029785,-1.3886369466781616,0.6631938815116882,-26.214599609375,10.6658935546875,19.5159912109375
0.5499999,-9.852140426635742,-1.3646949529647827,0.5482721924781799,-23.162841796875,9.4146728515625,16.204833984375
0.5699999,-9.880870819091797,-1.1755530834197998,0.3256114423274994,-17.425537109375,9.9639892578125,13.73291015625
0.5899998999999999,-9.921571731567383,-0.993593692779541,0.0454898327589035,-12.7410888671875,9.1094970703125,14.9383544921875
0.6099998999999999,-9.945513725280762,-0.7422025203704834,-0.22744916379451752,-11.5509033203125,7.7056884765625,13.397216796875
0.6299999,-10.029311180114746,-0.6009446382522583,-0.6105214357376099,-10.040283203125,4.0283203125,12.176513671875
0.6499999,-10.141838073730469,-0.5386953949928284,-1.0007762908935547,1.678466796875,-4.3182373046875,10.31494140625
0.6699999,-10.24000072479248,-0.5482721924781799,-1.2880805730819702,15.777587890625,-14.2974853515625,11.016845703125
0.6899999,-10.273519515991211,-0.5889736413955688,-1.3311761617660522,19.622802734375,-19.4549560546875,12.481689453125
0.7099999,-10.223240852355957,-0.6584054827690125,-1.01753568649292,14.58740234375,-18.829345703125,11.566162109375
0.7299998999999999,-10.065223693847656,-0.6943184733390808,-0.3902548849582672,7.4920654296875,-15.106201171875,13.519287109375
0.7499998999999999,-9.892841339111328,-0.6057330369949341,0.40222588181495667,-2.1514892578125,-9.1400146484375,17.0745849609375
0.7699999,-9.758766174316406,-0.38307225704193115,1.137245774269104,-16.265869140625,-0.8544921875,16.357421875
0.7899999,-9.672574996948242,-0.08140286058187485,1.6687586307525635,-29.9530029296875,8.0108642578125,10.8489990234375
0.8099999,-9.66299819946289,0.22026655077934265,1.8411411046981812,-38.1927490234375,14.495849609375,6.378173828125
0.8299999,-9.694122314453125,0.363918662071228,1.6041151285171509,-40.1763916015625,17.51708984375,5.7220458984375
0.8499998999999999,-9.816226959228516,0.2968810200691223,1.0199298858642578,-30.3192138671875,16.8304443359375,5.5389404296875
0.8699998999999999,-9.96945571899414,-0.033518824726343155,0.1149216815829277,-9.7503662109375,11.8560791015625,5.9814453125
0.8899999,-10.14902114868164,-0.33039984107017517,-0.6368576288223267,6.16455078125,0.8697509765625,10.284423828125
0.9099999,-10.251971244812012,-0.6368576288223267,-1.2521674633026123,11.9781494140625,-9.063720703125,16.4031982421875
0.9299999,-10.32858657836914,-0.7469909191131592,-1.5155296325683594,16.7236328125,-15.777587890625,11.9781494140625
0.9499999,-10.256759643554688,-0.7972691655158997,-1.359906554222107,23.9715576171875,-20.904541015625,7.2174072265625
0.9699998999999999,-10.144232749938965,-0.646434485912323,-0.9864110946655273,22.8118896484375,-19.9127197265625,9.4146728515625
0.9899998999999999,-10.017339706420898,-0.44771572947502136,-0.5267243981361389,14.0533447265625,-16.204833984375,11.474609375
1.0099999,-9.911994934082031,-0.19153612852096558,-0.090979665517807,11.7645263671875,-13.9007568359375,9.70458984375
1.0299999,-9.919178009033203,0.12449848651885986,0.31364041566848755,12.939453125,-12.5732421875,15.045166015625
1.0499999,-9.888052940368652,0.47644615173339844,0.6009446382522583,7.659912109375,-15.8843994140625,16.510009765625
1.0699999,-9.926360130310059,0.6943184733390808,0.768538773059845,0.8392333984375,-15.7318115234375,6.500244140625
1.0899999,-9.914389610290527,0.8643068075180054,0.8954314589500427,2.655029296875,-15.045166015625,-3.3721923828125
1.1099999,-9.864110946655273,0.9217676520347595,1.1204863786697388,1.7852783203125,-9.979248046875,-6.7291259765625
1.1299999,-9.823410034179688,0.993593692779541,1.4269442558288574,-15.5792236328125,-0.579833984375,-4.8980712890625
1.1499999,-9.78989028930664,0.9409212470054626,1.7956513166427612,-37.841796875,14.190673828125,-1.678466796875
1.1699998999999999,-9.787496566772461,0.7589619159698486,2.011129379272461,-44.403076171875,20.2789306640625,1.190185546875
1.1899998999999999,-9.794678688049316,0.524330198764801,1.7573440074920654,-32.2723388671875,15.2740478515625,-1.8768310546875
1.2099999,-9.847352027893066,0.10534487664699554,1.2401964664459229,-11.993408203125,11.810302734375,-6.256103515625
1.2299999,-9.995792388916016,-0.4118026793003082,-0.22505496442317963,18.85986328125,8.270263671875,-6.0882568359375
1.2499999,-10.072406768798828,-0.35913026332855225,-0.5674257874488831,15.6402587890625,4.21142578125,-2.960205078125
1.2699999,-10.141838073730469,-0.07900865375995636,-0.5650315880775452,-2.0294189453125,3.326416015625,0.1068115234375
1.2899999,-10.086771965026855,0.08858546614646912,-0.33758243918418884,-19.378662109375,0.0457763671875,-3.35693359375
1.3099999,-10.129867553710938,0.08379705995321274,-0.08858546614646912,-23.1170654296875,-2.471923828125,-4.9591064453125
1.3299999,-10.012551307678223,-0.19393034279346466,-0.002394201699644327,-13.97705078125,-4.486083984375,-2.99072265625
1.3499999,-9.995792388916016,-0.5913678407669067,-0.11971008777618408,0.9765625,-4.21142578125,4.974365234375
1.3699999,-9.995792388916016,-0.8595184087753296,-0.40701428055763245,15.7623291015625,-8.148193359375,9.063720703125
1.3899999,-10.08437728881836,-0.8475474119186401,-0.6033388376235962,26.336669921875,-13.5498046875,13.6871337890625
1.4099999,-10.0580415725708,-0.42856210470199585,-0.5339069962501526,28.2745361328125,-25.0091552734375,15.380859375
1.4299998999999999,-10.156203269958496,0.0454898327589035,-0.31842881441116333,12.054443359375,-26.3824462890625,10.8489990234375
1.4499999,-9.95748519897461,0.6727706789970398,0.3734954595565796,-9.82666015625,-24.169921875,0.6866455078125
1.4699999,-9.830592155456543,1.0797849893569946,1.1085153818130493,-23.712158203125,-16.632080078125,-5.2947998046875
1.4899999,-9.715670585632324,1.3910311460494995,1.9512743949890137,-35.9954833984375,-3.96728515625,-5.615234375
1.5099999,-9.543288230895996,1.414973258972168,2.609679937362671,-54.4891357421875,10.1165771484375,-5.4473876953125
1.5299999,-9.579200744628906,1.2114660739898682,2.8443117141723633,-63.201904296875,27.77099609375,-4.913330078125
1.5499999,-9.59835433959961,0.9026140570640564,2.671929121017456,-49.2095947265625,25.543212890625,-1.4190673828125
1.5699999,-9.739612579345703,0.4118026793003082,1.9129672050476074,-34.8663330078125,23.2086181640625,-5.828857421875
1.5899999,-9.950302124023438,-0.17956513166427612,0.871489405632019,-12.359619140625,20.81298828125,-12.1307373046875
1.6099999,-10.06043529510498,-0.629675030708313,-0.272938996553421,22.3846435546875,10.0860595703125,-13.9312744140625
1.6299999,-10.237606048583984,-1.070208191871643,-1.1851298809051514,51.1932373046875,-1.1138916015625,-8.331298828125
1.6499999,-10.237606048583984,-1.0773907899856567,-1.6160861253738403,53.4515380859375,-5.37109375,-6.04248046875
1.6699999,-10.333374977111816,-0.9265560507774353,-1.5322890281677246,35.64453125,-10.2691650390625,0.2899169921875
1.6899998999999999,-10.287884712219238,-0.5171475410461426,-0.9528923034667969,22.8729248046875,-21.05712890625,-0.3204345703125
1.7099999,-10.1753568649292,-0.1412578970193863,-0.21787235140800476,15.411376953125,-14.7247314453125,-3.7994384765625
1.7299999,-10.043676376342773,-0.0071826050989329815,0.3998316824436188,10.711669921875,-12.6800537109375,-7.0343017578125
1.7499999,-9.871294021606445,0.05267243832349777,0.9911994934082031,11.1236572265625,-10.7879638671875,-8.392333984375
1.7699999,-9.737217903137207,0.09576806426048279,1.4676456451416016,4.4708251953125,-1.0528564453125,-1.5869140625
1.7899999,-9.732429504394531,0.05027823522686958,1.7860745191574097,-17.730712890625,11.5966796875,5.645751953125
1.8099999,-9.758766174316406,0,1.8555063009262085,-30.364990234375,12.9241943359375,8.23974609375
1.8299999,-9.830592155456543,-0.13407529890537262,1.623268723487854,-22.2930908203125,5.5999755859375,8.0413818359375
1.8499999,-9.926360130310059,-0.36152446269989014,1.113303780555725,-7.4310302734375,3.3111572265625,5.2337646484375
1.8699999,-10.017339706420898,-0.5650315880775452,0.4668693244457245,6.5460205078125,0.213623046875,2.4261474609375
1.8899999,-10.034099578857422,-0.6105214357376099,0.009576806798577309,19.744873046875,-1.495361328125,3.9520263671875
1.9099999,-10.02691650390625,-0.4405331015586853,-0.2561795711517334,20.7977294921875,-2.8076171875,5.401611328125
1.9299998999999999,-10.08198356628418,-0.05506663769483566,-0.2944868206977844,10.80322265625,-2.471923828125,6.1798095703125
1.9499999,-10.093954086303711,0.35673606395721436,-0.090979665517807,8.2244873046875,-9.4451904296875,0.5340576171875
1.9699999,-10.077195167541504,0.6057330369949341,0.19632454216480255,12.176513671875,-10.162353515625,-7.4005126953125
1.9899999,-10.031704902648926,0.5841852426528931,0.5363011956214905,17.7001953125,-9.063720703125,-11.077880859375
2.0099999,-9.923966407775879,0.30885201692581177,0.8906430602073669,20.56884765625,-3.6163330078125,-10.0555419921875
2.0299999,-9.763554573059082,-0.028730420395731926,1.1109095811843872,17.3797607421875,4.33349609375,-5.2337646484375
2.0499999,-9.828198432922363,-0.3016694188117981,1.2018892765045166,10.9405517578125,6.28662109375,2.50244140625
2.0699999,-9.849745750427246,-0.40940847992897034,1.1324573755264282,9.918212890625,2.4566650390625,6.378173828125
2.0899999,-9.947908401489258,-0.42616790533065796,0.9289502501487732,10.8642578125,-2.3040771484375,7.4310302734375
2.1099999,-10.029311180114746,-0.33997663855552673,0.7541735172271729,8.11767578125,-2.4261474609375,2.2430419921875
2.1299999,-9.998186111450195,-0.24899697303771973,0.6320692300796509,7.4005126953125,-3.692626953125,-2.3193359375
2.1499999,-10.000580787658691,-0.12689268589019775,0.6224924325942993,3.4332275390625,0.396728515625,0.457763671875
2.1699999,-9.938331604003906,0.047884032130241394,0.6823474764823914,-8.2855224609375,4.6539306640625,3.265380859375
2.1899999,-10.014945983886719,0.15083470940589905,0.706289529800415,-16.6778564453125,7.9193115234375,7.354736328125
2.2099999,-9.995792388916016,0.2322375625371933,0.6991068720817566,-11.3372802734375,0.244140625,8.2855224609375
2.2299999,-10.043676376342773,0.19632454216480255,0.5722141861915588,-2.3345947265625,-2.105712890625,4.608154296875
2.2499999,-9.99100399017334,0.05267243832349777,0.43335050344467163,7.7362060546875,-6.2255859375,0.4119873046875
2.2699999,-9.955090522766113,-0.05506663769483566,0.3663128614425659,14.0838623046875,-4.1656494140625,-0.6866455078125
2.2899999,-9.885659217834473,-0.08858546614646912,0.4572925269603729,9.9945068359375,-2.197265625,2.99072265625
2.3099999,-9.880870819091797,-0.031124621629714966,0.5937620401382446,-2.50244140625,2.0751953125,4.608154296875
2.3299999,-9.928754806518555,0.1412578970193863,0.7709329724311829,-6.2103271484375,1.129150390625,5.523681640625
2.3499999,-10.014945983886719,0.21547815203666687,0.8259995579719543,0.79345703125,-3.753662109375,4.8980712890625
2.3699999,-10.08198356628418,0.2801215946674347,0.8236053586006165,6.0272216796875,-3.72314453125,0.244140625
2.3899999,-10.034099578857422,0.21308395266532898,0.7589619159698486,10.0555419921875,-4.425048828125,-3.662109375
2.4099999,-10.038887977600098,0.14604631066322327,0.7589619159698486,12.9241943359375,0.8087158203125,-3.8299560546875
2.4299999,-9.859322547912598,0.10534487664699554,0.8307880163192749,7.781982421875,4.2877197265625,-1.7852783203125
2.4499999,-9.90241813659668,0.08619125932455063,0.8475474119186401,-0.6561279296875,6.3629150390625,3.2958984375
2.4699999,-9.885659217834473,0.16759411990642548,0.8786720037460327,-2.532958984375,1.861572265625,4.302978515625
2.4899999,-9.93593692779541,0.17238251864910126,0.7852981686592102,-0.18310546875,-0.6256103515625,2.1209716796875
2.5099999,-10.029311180114746,0.19393034279346466,0.5913678407669067,5.1422119140625,-2.62451171875,-2.8533935546875
2.5299999,-10.005369186401367,0.07661445438861847,0.3758896589279175,14.1143798828125,-6.744384765625,-6.7291259765625
2.5499999,-10.0580415725708,-0.0454898327589035,0.24899697303771973,22.5982666015625,-6.072998046875,-3.0364990234375
2.5699999,-9.967061996459961,-0.14604631066322327,0.2513911724090576,17.5933837890625,-4.6234130859375,2.5634765625
2.5899999,-10.000580787658691,-0.19393034279346466,0.3519476354122162,8.0413818359375,-2.7618408203125,7.2021484375
2.6099999,-9.940725326538086,-0.12449848651885986,0.5626373887062073,8.392333984375,-8.0718994140625,6.988525390625
2.6299999,-9.976638793945312,-0.014365210197865963,0.6967126727104187,12.054443359375,-9.3536376953125,6.317138671875
2.6499999,-9.964667320251465,0.07422025501728058,0.8379706144332886,16.4337158203125,-10.467529296875,3.84521484375
2.6699999,-9.919178009033203,0.19393034279346466,0.9576807022094727,17.0135498046875,-9.7808837890625,-1.4801025390625
2.6899999,-9.911994934082031,0.3016694188117981,1.0869675874710083,14.0533447265625,-3.4942626953125,-0.2899169921875
2.7099999,-9.84495735168457,0.3495534360408783,1.1444283723831177,8.4228515625,-0.67138671875,3.11279296875
2.7299999,-9.916783332824707,0.3758896589279175,1.1252747774124146,6.16455078125,0.885009765625,5.7830810546875
2.7499999,-9.909601211547852,0.4165911078453064,1.036689281463623,12.6495361328125,-6.0882568359375,5.5389404296875
2.7699999,-9.962273597717285,0.40222588181495667,0.8523358106613159,19.3023681640625,-9.521484375,3.60107421875
2.7899999,-10.02691650390625,0.4572925269603729,0.8259995579719543,24.0936279296875,-11.2457275390625,-1.2054443359375
2.8099999,-9.95748519897461,0.507570743560791,0.828393816947937,21.4996337890625,-11.29150390625,-7.0343017578125
2.8299999,-9.971850395202637,0.5123591423034668,1.0319008827209473,14.5263671875,-3.84521484375,-8.4228515625
2.8499999,-9.832986831665039,0.5722141861915588,1.3000515699386597,5.5694580078125,1.28173828125,-5.1727294921875
2.8699999,-9.825803756713867,0.5123591423034668,1.522712230682373,-4.5623779296875,6.89697265625,-0.6103515625
2.8899999,-9.77791976928711,0.43335050344467163,1.6328455209732056,-5.2642822265625,5.67626953125,-0.48828125
2.9099999,-9.830592155456543,0.31603461503982544,1.556231141090393,-0.0762939453125,3.60107421875,-0.640869140625
2.9299999,-9.916783332824707,0.12928688526153564,1.3551181554794312,6.805419921875,3.326416015625,-3.0670166015625
2.9499999,-9.907206535339355,0.0454898327589035,1.1300631761550903,10.5133056640625,-0.152587890625,-5.950927734375
2.9699999,-9.943120002746582,-0.004788403399288654,1.0007762908935547,10.8184814453125,4.913330078125,-6.40869140625
2.9899999,-9.890447616577148,0.1388636976480484,0.9409212470054626,6.5765380859375,7.3394775390625,-4.2724609375
3.0099999,-9.885659217834473,0.28730419278144836,0.9864110946655273,-4.0740966796875,8.148193359375,-0.1983642578125
3.0299999,-9.890447616577148,0.47405192255973816,0.9696516990661621,-9.1705322265625,6.9122314453125,-1.3885498046875
3.0499999,-9.945513725280762,0.49799394607543945,0.849941611289978,-5.4931640625,1.6021728515625,-2.105712890625
3.0699999,-10.019734382629395,0.363918662071228,0.6536170840263367,4.3487548828125,-0.6256103515625,-4.69970703125
3.0899999,-10.04846477508545,0.11252748221158981,0.4644751250743866,13.3209228515625,-7.781982421875,-6.28662109375
3.1099999,-10.029311180114746,-0.06703764945268631,0.4429273009300232,16.3421630859375,-4.94384765625,-6.500244140625
3.1299999,-9.959878921508789,-0.12689268589019775,0.5985504388809204,10.7879638671875,-0.18310546875,-3.11279296875
3.1499999,-9.890447616577148,-0.043095629662275314,0.9217676520347595,-1.129150390625,3.387451171875,1.4495849609375
3.1699999,-9.837775230407715,0.16519992053508759,1.2186486721038818,-10.25390625,5.5389404296875,2.1209716796875
3.1899999,-9.835380554199219,0.26575639843940735,1.335964560508728,-9.9029541015625,2.01416015625,0.9613037109375
3.2099999,-9.904812812805176,0.272938996553421,1.2641384601593018,-3.1585693359375,2.777099609375,-2.1820068359375
3.2299999,-9.90241813659668,0.16759411990642548,1.070208191871643,5.9051513671875,-1.983642578125,-3.753662109375
3.2499999,-9.947908401489258,0.0694318488240242,0.9217676520347595,8.11767578125,-0.6103515625,-5.37109375
3.2699999,-9.947908401489258,0.004788403399288654,0.7996633648872375,2.5634765625,4.486083984375,-3.41796875
3.2899999,-9.964667320251465,0.040701430290937424,0.7876923680305481,-2.8839111328125,4.8828125,-0.6866455078125
3.3099999,-10.012551307678223,0.1149216815829277,0.7661445140838623,-2.4261474609375,2.50244140625,2.197265625
3.3299999000000002,-9.988609313964844,0.11971008777618408,0.7805097699165344,1.373291015625,-3.7384033203125,1.8157958984375
3.3499999,-9.998186111450195,0.16759411990642548,0.8068459630012512,3.47900390625,-1.739501953125,-1.0528564453125
3.3699999,-9.962273597717285,0.07422025501728058,0.9313444495201111,5.7220458984375,-1.5869140625,-3.23486328125
3.3899999,-9.86650562286377,0.040701430290937424,1.0678139925003052,3.4027099609375,-0.2288818359375,-5.6915283203125
3.4099999,-9.897629737854004,0,1.2497732639312744,-2.13623046875,6.4849853515625,-2.38037109375
3.4299999,-9.825803756713867,0.023942016065120697,1.3982137441635132,-13.0615234375,12.5732421875,0.48828125
3.4499999,-9.880870819091797,0.05985504388809204,1.381454348564148,-20.7977294921875,14.495849609375,5.9356689453125
3.4699999,-9.859322547912598,0.12689268589019775,1.2330138683319092,-18.4173583984375,7.659912109375,4.4403076171875
3.4899999,-9.959878921508789,0.14844051003456116,0.8882488012313843,-13.0157470703125,4.7760009765625,1.617431640625
3.5099999,-9.979032516479492,0.14844051003456116,0.5602431893348694,-6.805419921875,1.312255859375,-0.1220703125
3.5299999,-10.034099578857422,0.08858546614646912,0.26575639843940735,-4.2877197265625,-3.143310546875,-4.3182373046875
3.5499999,-10.053253173828125,0.10295066982507706,0.2106897532939911,1.708984375,-2.044677734375,-6.4697265625
3.5699999,-9.99100399017334,0.07182604819536209,0.28730419278144836,1.5716552734375,1.556396484375,-2.6702880859375
3.5899999,-9.931148529052734,0.13168109953403473,0.5171475410461426,-5.1727294921875,1.953125,1.52587890625
3.6099999,-9.90241813659668,0.2298433631658554,0.8451532125473022,-8.2244873046875,2.2735595703125,1.5869140625
3.6299999,-9.806650161743164,0.36152446269989014,1.161187767982483,-12.420654296875,1.556396484375,0.18310546875
3.6499999,-9.837775230407715,0.44771572947502136,1.414973258972168,-29.11376953125,9.765625,-3.11279296875
3.6699999,-9.830592155456543,0.43335050344467163,1.4628572463989258,-43.0450439453125,12.2528076171875,-6.0577392578125
3.6899999,-9.84495735168457,0.2968810200691223,1.3407529592514038,-39.2608642578125,11.77978515625,-10.3607177734375
3.7099999,-9.955090522766113,-0.016759412363171577,0.9433154463768005,-19.500732421875,11.810302734375,-6.8206787109375
3.7299999,-10.050858497619629,-0.33997663855552673,0.3711012601852417,-1.1749267578125,9.521484375,-2.2430419921875
3.7499999,-10.17296314239502,-0.689530074596405,-0.2346317619085312,18.0206298828125,-0.5035400390625,1.556396484375
3.7699999,-10.273519515991211,-0.912190854549408,-0.7972691655158997,40.5731201171875,-12.8326416015625,3.84521484375
3.7899999,-10.29746150970459,-1.0007762908935547,-1.0821791887283325,56.9305419921875,-23.9410400390625,6.1798095703125
3.8099999,-10.259154319763184,-0.7565677165985107,-0.8690952062606812,54.412841796875,-27.6031494140625,6.500244140625
3.8299999000000002,-10.08437728881836,-0.3519476354122162,-0.21787235140800476,33.111572265625,-27.2369384765625,5.035400390625
3.8499999,-9.907206535339355,0.2322375625371933,0.7493851184844971,3.0364990234375,-16.754150390625,-1.5716552734375
3.8699999,-9.794678688049316,0.7374141216278076,1.7142484188079834,-18.829345703125,-3.5858154296875,-3.753662109375
3.8899999,-9.57441234588623,1.0007762908935547,2.4827871322631836,-32.6385498046875,5.8441162109375,-1.46484375
3.9099999,-9.634267807006836,0.9145850539207458,2.671929121017456,-39.4744873046875,13.2293701171875,4.058837890625
3.9299999,-9.670180320739746,0.47644615173339844,2.343923568725586,-28.2135009765625,10.2386474609375,4.5318603515625
3.9499999,-9.804255485534668,-0.08858546614646912,1.6424223184585571,-0.9613037109375,1.5106201171875,7.01904296875
3.9699999,-9.959878921508789,-0.5985504388809204,0.8020575642585754,23.13232421875,-3.662109375,8.8348388671875
3.9899999,-10.014945983886719,-0.7493851184844971,0.20350714027881622,29.0985107421875,-9.8114013671875,6.6986083984375
4.0099999,-10.046070098876953,-0.5099649429321289,0.05027823522686958,22.491455078125,-7.8125,1.5716552734375
4.029999900000001,-10.005369186401367,0.026336219161748886,0.40940847992897034,3.5552978515625,-3.9215087890625,-0.6103515625
4.0499999,-9.911994934082031,0.6655880808830261,0.9840168952941895,-26.9317626953125,5.8441162109375,-1.800537109375
4.069999900000001,-9.916783332824707,1.0821791887283325,1.4915876388549805,-46.0052490234375,13.1683349609375,1.251220703125
4.0899999000000005,-9.799467086791992,1.158793568611145,1.7525556087493896,-43.02978515625,8.4686279296875,-2.8839111328125
4.1099999,-9.821015357971191,0.871489405632019,1.6136919260025024,-27.374267578125,5.279541015625,-4.364013671875
4.1299999000000005,-9.859322547912598,0.3447650372982025,1.2186486721038818,-13.2293701171875,5.2490234375,-2.7313232421875
4.1499999,-9.892841339111328,-0.15083470940589905,0.8379706144332886,-4.6234130859375,3.0975341796875,-1.6021728515625
4.1699999000000005,-9.885659217834473,-0.3998316824436188,0.6416460275650024,0.885009765625,1.434326171875,-2.8228759765625
4.1899999,-9.93593692779541,-0.4189853072166443,0.5578489899635315,-8.7127685546875,4.3792724609375,-3.60107421875
4.209999900000001,-9.981427192687988,-0.2537853717803955,0.5746083855628967,-17.1356201171875,6.4697265625,0.5340576171875
4.2299999,-9.981427192687988,-0.07422025501728058,0.5530605912208557,-17.120361328125,3.326416015625,2.4871826171875
4.249999900000001,-10.091560363769531,-0.08140286058187485,0.3926490843296051,-5.889892578125,-3.631591796875,-1.922607421875
4.2699999,-10.141838073730469,-0.2561795711517334,0.1843535304069519,14.984130859375,-9.1094970703125,0.5340576171875
4.289999900000001,-10.122684478759766,-0.4405331015586853,0.05267243832349777,34.271240234375,-12.542724609375,5.7830810546875
4.3099999,-10.103530883789062,-0.5602431893348694,0.033518824726343155,41.8243408203125,-18.9208984375,5.31005859375
4.329999900000001,-10.04846477508545,-0.35434186458587646,0.3447650372982025,35.5987548828125,-19.378662109375,1.556396484375
4.3499999,-9.854534149169922,0.043095629662275314,0.8331822156906128,17.0745849609375,-11.90185546875,-1.8768310546875
4.369999900000001,-9.80904483795166,0.4596867263317108,1.4915876388549805,-5.5999755859375,-2.777099609375,-1.7852783203125
4.3899999,-9.746794700622559,0.7158663272857666,1.8986018896102905,-21.697998046875,6.7291259765625,0.8697509765625
4.409999900000001,-9.80904483795166,0.689530074596405,2.0422539710998535,-18.9361572265625,7.87353515625,4.94384765625
4.4299999,-9.81143856048584,0.4884171485900879,1.8818424940109253,-5.2642822265625,0.1220703125,4.1351318359375
4.449999900000001,-9.940725326538086,0.19871874153614044,1.50355863571167,3.0059814453125,0.457763671875,3.8604736328125
4.4699999,-9.971850395202637,0.0071826050989329815,1.139639973640442,4.2572021484375,0.3509521484375,2.4566650390625
4.489999900000001,-9.967061996459961,-0.05506663769483566,0.8978256583213806,3.6773681640625,-2.5787353515625,0.6256103515625
4.5099999,-9.943120002746582,-0.038307227194309235,0.7565677165985107,5.401611328125,-3.4637451171875,-2.01416015625
4.529999900000001,-9.921571731567383,0.026336219161748886,0.6967126727104187,8.636474609375,-2.2735595703125,-4.3792724609375
4.5499999,-9.849745750427246,0.12928688526153564,0.730231523513794,14.7247314453125,-0.732421875,-2.8839111328125
4.569999900000001,-9.955090522766113,0.18914192914962769,0.8068459630012512,16.6015625,-0.7476806640625,1.9378662109375
4.5899999000000005,-9.950302124023438,0.26336219906806946,0.8403648138046265,15.594482421875,-4.94384765625,2.6092529296875
4.609999900000001,-10.031704902648926,0.2753331959247589,0.9768342971801758,13.8397216796875,-8.1024169921875,-1.556396484375
4.6299999000000005,-10.019734382629395,0.2777273952960968,1.1061211824417114,9.5367431640625,-7.0648193359375,-2.7923583984375
4.6499999,-9.919178009033203,0.19153612852096558,1.256955862045288,1.953125,-6.0272216796875,-1.0223388671875
4.6699999000000005,-9.921571731567383,0.2106897532939911,1.4508862495422363,-0.6866455078125,-3.11279296875,-0.640869140625
4.6899999,-9.804255485534668,0.1604115068912506,1.5945383310317993,-4.4403076171875,1.0528564453125,-2.5482177734375
4.709999900000001,-9.804255485534668,0.15562310814857483,1.723825216293335,-10.5438232421875,5.4931640625,-2.0904541015625
4.7299999,-9.8784761428833,0.10055647045373917,1.6304513216018677,-12.4969482421875,11.8255615234375,2.38037109375
4.749999900000001,-10.002974510192871,0.0454898327589035,1.4245500564575195,-3.5552978515625,8.48388671875,9.3536376953125
4.7699999,-10.096348762512207,0.004788403399288654,1.070208191871643,8.4686279296875,-1.5716552734375,8.48388671875
4.789999900000001,-10.192116737365723,0.05027823522686958,0.7876923680305481,15.228271484375,-6.3018798828125,3.814697265625
4.8099999,-10.182539939880371,0.07182604819536209,0.43335050344467163,17.1356201171875,-5.4931640625,-0.518798828125
4.829999900000001,-10.110713958740234,0.021547814831137657,0.23942017555236816,35.430908203125,-11.16943359375,-3.23486328125
4.8499999,-10.050858497619629,0.014365210197865963,0.07661445438861847,62.957763671875,-20.3399658203125,-1.1444091796875
4.869999900000001,-9.962273597717285,-0.011971008032560349,0.15083470940589905,67.6116943359375,-23.5443115234375,-0.2593994140625
4.8899999,-9.876082420349121,0.1412578970193863,0.545877993106842,53.619384765625,-21.30126953125,-0.2593994140625
4.909999900000001,-9.787496566772461,0.3902548849582672,1.1851298809051514,32.3638916015625,-14.984130859375,0.30517578125
4.9299999,-9.703699111938477,0.6584054827690125,1.922544002532959,13.824462890625,-8.23974609375,-0.1983642578125
4.949999900000001,-9.725247383117676,0.8690952062606812,2.499546527862549,0.48828125,-1.40380859375,0.335693359375
4.9699999,-9.691728591918945,0.9289502501487732,2.7509377002716064,-4.8065185546875,5.06591796875,1.068115234375
4.989999900000001,-9.77791976928711,0.8475474119186401,2.7102363109588623,-1.1749267578125,11.1846923828125,4.7149658203125
5.0099999,-9.701305389404297,0.6799532771110535,2.4157495498657227,4.2572021484375,8.392333984375,4.9896240234375
5.029999900000001,-9.643844604492188,0.3902548849582672,1.7573440074920654,10.1165771484375,9.521484375,6.7901611328125
5.0499999,-9.66299819946289,0.38067805767059326,1.5921441316604614,10.589599609375,10.8795166015625,6.2103271484375
5.069999900000001,-9.775525093078613,0.4381389021873474,1.5203180313110352,5.3863525390625,13.1072998046875,7.9193115234375
5.0899999000000005,-10.031704902648926,0.545877993106842,1.479616641998291,-0.213623046875,15.1824951171875,6.4697265625
5.109999900000001,-10.532093048095703,0.6727706789970398,1.4317326545715332,-3.2501220703125,15.7928466796875,0.030517578125
5.1299999000000005,-10.943896293640137,0.751779317855835,1.3239935636520386,-6.1798095703125,14.7552490234375,-7.4310302734375
5.1499999,-11.834539413452148,0.7661445140838623,1.1324573755264282,-7.5225830078125,14.0533447265625,-10.5438232421875
5.1699999000000005,-12.409147262573242,0.5746083855628967,0.8858546018600464,-4.913330078125,-4.8828125,-23.7579345703125
5.1899999,-12.825738906860352,0.3663128614425659,0.7038952708244324,0.579833984375,-33.8134765625,-15.5029296875
5.209999900000001,-12.641385078430176,0.07661445438861847,0.6224924325942993,4.8828125,-46.6766357421875,-5.7373046875
5.2299999,-11.779472351074219,-0.1364694982767105,0.7709329724311829,6.40869140625,-27.9998779296875,-1.64794921875
5.249999900000001,-10.491392135620117,-0.2777273952960968,1.1085153818130493,5.3558349609375,-4.8675537109375,-0.8087158203125
5.2699999,-9.114726066589355,-0.2944868206977844,1.3910311460494995,3.7384033203125,21.0723876953125,-0.8697509765625
5.289999900000001,-8.056488990783691,-0.28730419278144836,1.6879122257232666,-6.34765625,15.960693359375,-12.4969482421875
5.3099999,-7.412448406219482,-0.2082955539226532,1.8363527059555054,-15.5792236328125,8.819580078125,-18.5089111328125
5.329999900000001,-7.1706342697143555,-0.08619125932455063,1.8842366933822632,-22.27783203125,16.54052734375,-13.6260986328125
5.3499999,-7.232883453369141,0.014365210197865963,1.9081788063049316,-30.4718017578125,10.3302001953125,-21.575927734375
5.369999900000001,-7.453149795532227,0.12449848651885986,1.8100165128707886,-33.7982177734375,12.5579833984375,-21.514892578125
5.3899999,-7.795520782470703,0.19871874153614044,1.647210717201233,-33.5235595703125,15.2587890625,-12.908935546875
5.409999900000001,-8.192957878112793,0.2298433631658554,1.3982137441635132,-31.036376953125,11.71875,-1.7242431640625
5.4299999,-8.597578048706055,0.2537853717803955,1.1540051698684692,-25.360107421875,4.547119140625,5.9356689453125
5.449999900000001,-9.002198219299316,0.2944868206977844,0.9696516990661621,-20.20263671875,1.8463134765625,9.9029541015625
5.4699999,-9.373299598693848,0.363918662071228,0.8595184087753296,-17.578125,3.4027099609375,12.6190185546875
5.489999900000001,-9.646238327026367,0.4429273009300232,0.8690952062606812,-15.655517578125,-0.3204345703125,12.420654296875
5.5099999,-9.818621635437012,0.5147533416748047,0.9481038451194763,-16.0675048828125,-0.823974609375,11.6119384765625
5.529999900000001,-9.923966407775879,0.5554547905921936,1.072602391242981,-19.10400390625,7.7362060546875,12.725830078125
5.5499999,-10.012551307678223,0.5746083855628967,1.1803414821624756,-22.552490234375,13.8092041015625,12.1002197265625
5.569999900000001,-10.079588890075684,0.5506663918495178,1.2641384601593018,-24.59716796875,7.3394775390625,7.476806640625
5.5899999000000005,-10.14902114868164,0.5267243981361389,1.290474772453308,-27.2369384765625,1.9378662109375,5.2032470703125
5.609999900000001,-10.163386344909668,0.4620809257030487,1.2258312702178955,-30.5938720703125,8.4075927734375,5.8746337890625
5.6299999000000005,-10.113107681274414,0.3711012601852417,1.0989385843276978,-29.693603515625,12.51220703125,7.3394775390625
5.6499999,-10.050858497619629,0.26815059781074524,0.9097966551780701,-24.3072509765625,7.0953369140625,8.7127685546875
5.6699999000000005,-9.99339771270752,0.14844051003456116,0.7158663272857666,-18.6309814453125,3.387451171875,8.6669921875
5.6899999,-9.986215591430664,0.06464344263076782,0.5482721924781799,-15.4266357421875,6.9122314453125,6.8206787109375
5.709999900000001,-10.007762908935547,-0.002394201699644327,0.42616790533065796,-12.0697021484375,8.7890625,1.3427734375
5.7299999,-10.000580787658691,-0.035913024097681046,0.363918662071228,-6.1187744140625,1.3427734375,-2.0294189453125
5.749999900000001,-9.911994934082031,-0.05746084079146385,0.35673606395721436,-2.197265625,-2.5634765625,2.3651123046875
5.7699999,-9.706093788146973,-0.009576806798577309,0.40462008118629456,-1.5716552734375,5.096435546875,10.25390625
5.789999900000001,-9.531316757202148,0.07661445438861847,0.47405192255973816,-2.593994140625,15.5792236328125,15.19775390625
5.8099999,-10.144232749938965,0.15562310814857483,0.5937620401382446,-2.593994140625,14.984130859375,3.875732421875
5.829999900000001,-10.472238540649414,0.17956513166427612,0.6967126727104187,-6.3018798828125,-1.3427734375,-27.679443359375
5.8499999,-11.161767959594727,0.16998831927776337,0.768538773059845,-11.9781494140625,8.7432861328125,1.4495849609375
5.869999900000001,-11.33654499053955,0.08140286058187485,0.8140285611152649,-12.0697021484375,9.8419189453125,9.6588134765625
5.8899999,-10.848128318786621,0.06703764945268631,0.7876923680305481,-13.1378173828125,3.3416748046875,0.335693359375
5.909999900000001,-10.491392135620117,0.033518824726343155,0.7158663272857666,-14.2059326171875,4.6844482421875,0.79345703125
5.9299999,-10.096348762512207,0.05027823522686958,0.6943184733390808,-13.73291015625,4.45556640625,3.3416748046875
5.949999900000001,-9.876082420349121,0.028730420395731926,0.6512228846549988,-13.5345458984375,4.425048828125,5.584716796875
5.9699999,-9.81143856048584,0.05985504388809204,0.608127236366272,-9.429931640625,5.2947998046875,7.2784423828125
5.989999900000001,-9.801861763000488,0.1867477297782898,0.6320692300796509,-3.47900390625,2.6092529296875,5.2490234375
6.0099999,-9.818621635437012,0.3878606855869293,0.6272808313369751,-7.293701171875,1.89208984375,1.220703125
6.029999900000001,-9.871294021606445,0.6799532771110535,0.6272808313369751,-17.4560546875,4.08935546875,-2.044677734375
6.0499999,-9.93593692779541,0.8738836050033569,0.569819986820221,-21.4385986328125,3.3721923828125,-6.0272216796875
6.069999900000001,-9.931148529052734,1.0079588890075684,0.4357447028160095,-14.862060546875,-1.1444091796875,-8.4075927734375
6.0899999000000005,-10.041281700134277,0.790086567401886,0.18914192914962769,-2.0294189453125,-4.82177734375,-7.904052734375
6.109999900000001,-10.077195167541504,0.5171475410461426,-0.05267243832349777,13.6871337890625,-11.2152099609375,-7.0343017578125
6.1299999000000005,-10.11789608001709,0.0933738648891449,-0.1149216815829277,26.0009765625,-14.739990234375,0.6866455078125
6.149999900000001,-10.04846477508545,-0.181959331035614,-0.023942016065120697,30.731201171875,-19.53125,2.1209716796875
6.1699999000000005,-10.098742485046387,-0.3734954595565796,0.29209262132644653,25.6805419921875,-22.3541259765625,-0.9002685546875
6.1899999,-9.9000244140625,-0.33518823981285095,0.7445967197418213,11.8560791015625,-19.5159912109375,-0.396728515625
6.209999900000001,-9.914389610290527,-0.1843535304069519,1.2425906658172607,2.25830078125,-4.638671875,-1.1749267578125
6.2299999,-9.77791976928711,0.16998831927776337,1.7525556087493896,-5.1116943359375,-1.03759765625,-1.922607421875
6.249999900000001,-9.80904483795166,0.4668693244457245,1.9273324012756348,-21.1334228515625,11.3525390625,-0.1220703125
6.2699999,-9.804255485534668,0.7781155705451965,2.006340980529785,-21.209716796875,9.368896484375,-0.3814697265625
6.289999900000001,-9.907206535339355,0.9552865028381348,1.8555063009262085,-12.420654296875,2.3193359375,-3.4637451171875
6.3099999,-9.945513725280762,0.9481038451194763,1.601720929145813,-8.514404296875,8.6822509765625,-11.2457275390625
6.329999900000001,-9.904812812805176,0.9002198576927185,1.4197616577148438,-8.209228515625,14.34326171875,-21.240234375
6.3499999,-9.885659217834473,0.768538773059845,1.338358759880066,-11.1541748046875,16.021728515625,-19.2108154296875
6.369999900000001,-9.864110946655273,0.5770025849342346,1.1348515748977661,-22.308349609375,22.5372314453125,-13.8702392578125
6.3899999,-9.947908401489258,0.1843535304069519,0.9074024558067322,-24.5361328125,22.674560546875,-8.6669921875
6.409999900000001,-9.952696800231934,-0.24420857429504395,0.49559974670410156,-10.19287109375,8.6822509765625,-8.544921875
6.4299999,-10.046070098876953,-0.8164227604866028,0.023942016065120697,7.99560546875,2.8076171875,-8.087158203125
6.449999900000001,-10.113107681274414,-1.1228805780410767,-0.27054479718208313,22.7203369140625,1.251220703125,-6.866455078125
6.4699999,-10.002974510192871,-1.1324573755264282,-0.33758243918418884,19.1802978515625,1.9073486328125,-0.2593994140625
6.489999900000001,-10.11789608001709,-1.0055646896362305,-0.19393034279346466,5.0506591796875,4.1656494140625,8.72802734375
6.5099999,-9.962273597717285,-0.5506663918495178,0.15801730751991272,1.0223388671875,-6.7291259765625,6.8206787109375
6.529999900000001,-9.916783332824707,-0.2944868206977844,0.4572925269603729,-2.7008056640625,-6.7291259765625,0.274658203125
6.5499999,-9.983820915222168,-0.028730420395731926,0.6919242739677429,-4.2877197265625,0.2899169921875,-4.8675537109375
6.569999900000001,-9.832986831665039,0.2059013396501541,0.9050082564353943,-5.7220458984375,4.69970703125,-0.457763671875
6.5899999000000005,-10.04846477508545,0.2825157940387726,0.9528923034667969,-12.8021240234375,10.040283203125,6.34765625
6.609999900000001,-9.947908401489258,0.304063618183136,0.9217676520347595,-13.519287109375,-2.105712890625,2.197265625
6.6299999000000005,-9.976638793945312,0.1412578970193863,0.7254431247711182,-7.659912109375,-4.1961669921875,-3.143310546875
6.649999900000001,-10.000580787658691,-0.05027823522686958,0.5434837937355042,2.86865234375,-0.8697509765625,-4.94384765625
6.6699999000000005,-9.847352027893066,-0.16998831927776337,0.5195417404174805,4.8828125,-1.03759765625,-2.288818359375
6.6899999,-9.99339771270752,-0.07661445438861847,0.6105214357376099,-11.199951171875,5.5999755859375,4.180908203125
6.709999900000001,-9.93354320526123,0.10534487664699554,0.9026140570640564,-24.0936279296875,5.859375,4.2724609375
6.7299999,-9.967061996459961,0.31124621629714966,1.2042834758758545,-30.0750732421875,5.55419921875,-5.3863525390625
6.749999900000001,-9.758766174316406,0.5817909836769104,1.403002142906189,-28.80859375,7.0037841796875,-11.0626220703125
6.7699999,-9.792284965515137,0.5123591423034668,1.4772224426269531,-35.675048828125,22.2625732421875,-7.568359375
6.789999900000001,-9.734824180603027,0.44771572947502136,1.2761094570159912,-39.24560546875,27.4658203125,-13.7939453125
6.8099999,-9.840168952941895,0.016759412363171577,0.7996633648872375,-20.9197998046875,19.256591796875,-6.9427490234375
6.829999900000001,-10.125079154968262,-0.47644615173339844,0.12210428714752197,6.591796875,7.4615478515625,-4.3182373046875
6.8499999,-10.165780067443848,-1.0271124839782715,-0.5985504388809204,27.9693603515625,0.213623046875,-7.8887939453125
6.869999900000001,-10.230423927307129,-1.3718775510787964,-0.9768342971801758,39.9627685546875,-6.4697265625,-6.195068359375
6.8899999,-10.211270332336426,-1.213860273361206,-0.8355764150619507,31.2957763671875,-5.7373046875,3.3721923828125
6.909999900000001,-10.132261276245117,-0.8140285611152649,-0.38546648621559143,-8.544921875,7.293701171875,5.523681640625
6.9299999,-10.053253173828125,-0.272938996553421,0.090979665517807,-28.99169921875,2.4566650390625,2.3956298828125
6.949999900000001,-10.098742485046387,0.15322890877723694,0.2777273952960968,-12.0086669921875,-6.9580078125,-4.730224609375
6.9699999,-10.043676376342773,0.11013327538967133,0.0694318488240242,16.66259765625,-10.31494140625,-6.16455078125
6.989999900000001,-10.08437728881836,-0.2513911724090576,-0.2801215946674347,38.6199951171875,-18.402099609375,-6.927490234375
7.0099999,-10.06043529510498,-0.5578489899635315,-0.28969839215278625,45.501708984375,-21.2554931640625,-0.3814697265625
7.029999900000001,-9.995792388916016,-0.8667010068893433,-0.016759412363171577,19.59228515625,-10.1470947265625,8.97216796875
7.0499999,-9.976638793945312,-0.8810662031173706,0.4620809257030487,-4.486083984375,-5.1422119140625,15.472412109375
7.069999900000001,-9.914389610290527,-0.7876923680305481,0.8834604024887085,-3.753662109375,-13.2904052734375,13.1378173828125
7.0899999000000005,-9.892841339111328,-0.6129156351089478,0.9983820915222168,7.8582763671875,-12.8021240234375,11.0015869140625
7.109999900000001,-9.86889934539795,-0.3495534360408783,1.0127472877502441,15.9454345703125,-12.0086669921875,6.9732666015625
7.1299999000000005,-9.876082420349121,0.038307227194309235,1.0319008827209473,11.71875,-7.049560546875,3.9825439453125
7.149999900000001,-9.832986831665039,0.47405192255973816,1.1540051698684692,-3.4332275390625,1.983642578125,2.4261474609375
7.1699999000000005,-9.943120002746582,0.768538773059845,1.2425906658172607,-15.716552734375,6.500244140625,2.8076171875
7.1899999,-9.880870819091797,0.7829039692878723,1.256955862045288,-10.8184814453125,-2.1820068359375,-1.5411376953125
7.209999900000001,-9.974244117736816,0.6129156351089478,1.1444283723831177,-4.33349609375,-1.495361328125,-3.8604736328125
7.2299999,-9.888052940368652,0.2801215946674347,1.0007762908935547,2.593994140625,-0.42724609375,-6.5765380859375
7.249999900000001,-9.911994934082031,-0.002394201699644327,0.9026140570640564,6.34765625,4.5013427734375,-10.6964111328125
7.2699999,-9.861717224121094,-0.05267243832349777,1.0079588890075684,2.593994140625,8.60595703125,-7.568359375
7.289999900000001,-9.895236015319824,-0.08379705995321274,1.115697979927063,-12.725830078125,14.2974853515625,-0.9002685546875
7.3099999,-9.86889934539795,0.021547814831137657,1.2306196689605713,-19.8822021484375,14.923095703125,-2.6397705078125
7.329999900000001,-9.967061996459961,-0.090979665517807,1.048660397529602,-15.31982421875,11.6119384765625,-6.3018798828125
7.3499999,-9.995792388916016,-0.22026655077934265,0.7445967197418213,-4.8065185546875,7.2784423828125,-7.4920654296875
7.369999900000001,-10.04846477508545,-0.507570743560791,0.22026655077934265,4.425048828125,1.7242431640625,-9.552001953125
7.3899999,-10.096348762512207,-0.8331822156906128,-0.22266076505184174,13.7786865234375,1.5106201171875,-5.67626953125
7.409999900000001,-10.122684478759766,-0.9193734526634216,-0.43095630407333374,18.157958984375,-1.556396484375,1.3580322265625
7.4299999,-10.08437728881836,-1.0103530883789062,-0.4884171485900879,15.1519775390625,-6.4239501953125,8.9263916015625
7.449999900000001,-10.096348762512207,-0.9217676520347595,-0.4165911078453064,17.5018310546875,-15.9759521484375,7.9193115234375
7.4699999,-10.108319282531738,-0.6943184733390808,-0.1628057211637497,23.284912109375,-16.754150390625,7.2479248046875
7.489999900000001,-9.95748519897461,-0.47884035110473633,0.2298433631658554,22.5372314453125,-18.73779296875,5.9967041015625
7.5099999,-9.93593692779541,-0.0454898327589035,0.8786720037460327,3.90625,-9.1400146484375,1.6326904296875
7.529999900000001,-9.749189376831055,0.3926490843296051,1.644816517829895,-21.820068359375,6.0577392578125,-0.0152587890625
7.5499999,-9.682151794433594,0.7493851184844971,2.2840683460235596,-41.748046875,18.5546875,0.5950927734375
7.569999900000001,-9.677363395690918,0.8259995579719543,2.4372973442077637,-46.44775390625,20.8587646484375,0.3204345703125
7.5899999000000005,-9.75397777557373,0.5913678407669067,1.9943699836730957,-30.5023193359375,13.2904052734375,-1.861572265625
7.609999900000001,-9.974244117736816,0.07422025501728058,1.1252747774124146,-4.5166015625,9.002685546875,-3.0059814453125
7.6299999000000005,-10.038887977600098,-0.524330198764801,0.12210428714752197,17.1661376953125,-2.105712890625,-4.5928955078125
7.649999900000001,-10.204087257385254,-0.9457096457481384,-0.646434485912323,29.1595458984375,-5.889892578125,-4.0283203125
7.6699999000000005,-10.146626472473145,-1.137245774269104,-0.9959878921508789,33.1573486328125,-8.72802734375,1.2359619140625
7.6899999,-10.134655952453613,-1.0007762908935547,-0.849941611289978,28.3355712890625,-10.101318359375,7.4462890625
7.709999900000001,-10.072406768798828,-0.6847416758537292,-0.4644751250743866,19.95849609375,-14.1143798828125,7.50732421875
7.7299999,-10.050858497619629,-0.30885201692581177,0.11971008777618408,15.5487060546875,-17.7764892578125,4.45556640625
7.749999900000001,-10.04846477508545,0.031124621629714966,0.7134721279144287,12.0391845703125,-13.580322265625,2.25830078125
7.7699999,-9.8784761428833,0.31364041566848755,1.278503656387329,1.9378662109375,-9.5672607421875,-1.1749267578125
7.789999900000001,-9.84256362915039,0.40701428055763245,1.8100165128707886,-14.0533447265625,1.7852783203125,-4.39453125
7.8099999,-9.641449928283691,0.47165772318840027,2.1763293743133545,-26.7486572265625,12.4359130859375,-1.861572265625
7.829999900000001,-9.624691009521484,0.31364041566848755,2.2385785579681396,-30.609130859375,19.073486328125,4.0435791015625
7.8499999,-9.68694019317627,0.033518824726343155,1.9105730056762695,-21.514892578125,14.2822265625,6.378173828125
7.869999900000001,-9.86650562286377,-0.26575639843940735,1.259350061416626,-6.89697265625,5.218505859375,4.364013671875
7.8899999,-10.041281700134277,-0.38307225704193115,0.6129156351089478,3.662109375,2.8533935546875,3.662109375
7.909999900000001,-10.110713958740234,-0.4357447028160095,0.05746084079146385,4.4708251953125,-3.326416015625,1.9073486328125
7.9299999,-10.132261276245117,-0.26815059781074524,-0.07900865375995636,-1.6326904296875,-1.983642578125,-3.84521484375
7.949999900000001,-10.0580415725708,-0.090979665517807,0.014365210197865963,-6.8206787109375,1.7242431640625,-1.495361328125
7.9699999,-10.012551307678223,0.08858546614646912,0.28730419278144836,-13.916015625,3.509521484375,5.0201416015625
7.989999900000001,-9.962273597717285,0.17477671802043915,0.5506663918495178,-21.5606689453125,2.166748046875,2.74658203125
8.0099999,-9.988609313964844,0.1628057211637497,0.7829039692878723,-21.7132568359375,-0.91552734375,0.091552734375
8.0299999,-9.940725326538086,0.06224924325942993,0.9265560507774353,-19.1650390625,3.5400390625,2.0294189453125
8.049999900000001,-10.007762908935547,-0.11971008777618408,0.8882488012313843,-14.6942138671875,2.6702880859375,2.25830078125
8.069999900000001,-9.919178009033203,-0.3256114423274994,0.7445967197418213,-9.979248046875,-2.6702880859375,-1.1749267578125
8.0899999,-9.986215591430664,-0.6177040338516235,0.4381389021873474,9.185791015625,-3.692626953125,-1.7852783203125
8.1099999,-9.945513725280762,-0.790086567401886,0.1867477297782898,33.8287353515625,-5.1422119140625,3.90625
8.129999900000001,-10.036493301391602,-0.8882488012313843,0.043095629662275314,42.266845703125,-6.8206787109375,12.2528076171875
8.149999900000001,-10.067618370056152,-0.7613561153411865,0.0933738648891449,38.7420654296875,-10.1165771484375,11.8560791015625
8.1699999,-10.098742485046387,-0.33279404044151306,0.363918662071228,35.675048828125,-13.7176513671875,7.5531005859375
8.1899999,-10.070012092590332,0.2968810200691223,0.8690952062606812,20.2789306640625,-9.5367431640625,3.4027099609375
8.2099999,-9.907206535339355,0.9840168952941895,1.4963760375976562,-9.4146728515625,-3.0364990234375,-2.50244140625
8.229999900000001,-9.81143856048584,1.525106430053711,2.10210919380188,-38.4979248046875,10.772705078125,-10.406494140625
8.2499999,-9.660603523254395,1.678335428237915,2.492363929748535,-54.8248291015625,22.216796875,-15.106201171875
8.2699999,-9.648633003234863,1.436521053314209,2.3702597618103027,-57.769775390625,28.3203125,-11.8865966796875
8.2899999,-9.739612579345703,0.6272808313369751,1.7573440074920654,-44.4488525390625,25.726318359375,-3.7994384765625
8.309999900000001,-9.8784761428833,-0.35673606395721436,0.6368576288223267,-10.650634765625,10.8642578125,-0.823974609375
8.3299999,-10.141838073730469,-1.2449848651885986,-0.48602294921875,31.06689453125,-2.8839111328125,3.875732421875
8.3499999,-10.20887565612793,-1.7525556087493896,-1.4053963422775269,53.8330078125,-17.1356201171875,6.7291259765625
8.3699999,-10.280701637268066,-1.656787633895874,-1.5873557329177856,53.8482666015625,-22.8118896484375,4.241943359375
8.389999900000001,-10.182539939880371,-1.0103530883789062,-1.0007762908935547,35.7666015625,-20.1263427734375,1.251220703125
8.4099999,-9.914389610290527,-0.13407529890537262,0.11013327538967133,0.54931640625,-7.14111328125,0.396728515625
8.4299999,-9.856928825378418,0.5913678407669067,1.2258312702178955,-31.463623046875,6.7901611328125,2.197265625
8.4499999,-9.68933391571045,1.01753568649292,2.0374655723571777,-37.750244140625,5.4779052734375,2.1209716796875
8.469999900000001,-9.77791976928711,0.9169792532920837,2.1571757793426514,-27.28271484375,4.425048828125,-1.220703125
8.4899999,-9.880870819091797,0.586579442024231,1.8483237028121948,-9.0179443359375,5.1422119140625,-0.1373291015625
8.5099999,-9.911994934082031,0.1412578970193863,1.357512354850769,1.739501953125,1.4801025390625,0.2288818359375
8.5299999,-9.864110946655273,-0.1149216815829277,1.0103530883789062,-2.1209716796875,3.4637451171875,-0.8392333984375
8.549999900000001,-9.883264541625977,-0.3232172429561615,0.5961562395095825,-14.1754150390625,9.5977783203125,0.7171630859375
8.569999900000001,-9.797073364257812,-0.24181437492370605,0.4884171485900879,-13.2293701171875,5.9661865234375,6.988525390625
8.5899999,-9.892841339111328,-0.2082955539226532,0.38067805767059326,-11.138916015625,-2.13623046875,6.89697265625
8.6099999,-10.091560363769531,-0.16759411990642548,0.31124621629714966,-16.0064697265625,-2.532958984375,1.220703125
8.629999900000001,-10.144232749938965,-0.12210428714752197,0.40462008118629456,-13.6260986328125,-0.213623046875,1.77001953125
8.649999900000001,-10.228029251098633,-0.2082955539226532,0.43095630407333374,-5.950927734375,-1.983642578125,4.21142578125
8.6699999,-10.196905136108398,-0.17717093229293823,0.4620809257030487,8.5296630859375,-4.4403076171875,2.25830078125
8.6899999,-10.043676376342773,-0.08858546614646912,0.5770025849342346,17.547607421875,-5.218505859375,-1.0528564453125
8.709999900000001,-9.945513725280762,0.12928688526153564,0.790086567401886,8.636474609375,3.6773681640625,-5.5694580078125
8.729999900000001,-9.885659217834473,0.26336219906806946,0.9433154463768005,-5.218505859375,10.528564453125,-2.0904541015625
8.7499999,-9.885659217834473,0.21547815203666687,0.950498104095459,-5.18798828125,5.2337646484375,4.0130615234375
8.7699999,-10.053253173828125,-0.2106897532939911,0.3926490843296051,21.728515625,-6.6986083984375,3.0059814453125
8.7899999,-10.02691650390625,-0.22266076505184174,0.20111294090747833,23.529052734375,-10.80322265625,4.547119140625
8.809999900000001,-10.08437728881836,0.047884032130241394,0.35434186458587646,12.8021240234375,-9.9945068359375,0.091552734375
8.8299999,-9.859322547912598,0.4908113479614258,0.9097966551780701,-11.383056640625,-3.5247802734375,-7.8582763671875
8.8499999,-9.794678688049316,0.8475474119186401,1.534683346748352,-42.41943359375,16.3726806640625,-11.3525390625
8.8699999,-9.734824180603027,0.8379706144332886,1.9033904075622559,-50.7965087890625,25.8331298828125,-4.8675537109375
8.889999900000001,-9.770736694335938,0.4668693244457245,1.800439715385437,-33.38623046875,16.6778564453125,0.1068115234375
8.9099999,-9.943120002746582,-0.22266076505184174,1.0055646896362305,-3.7689208984375,9.4757080078125,1.0986328125
8.9299999,-10.139444351196289,-0.727837324142456,0.05027823522686958,28.50341796875,-1.3885498046875,5.55419921875
8.9499999,-10.189722061157227,-0.9002198576927185,-0.7254431247711182,42.816162109375,-15.5487060546875,5.2490234375
8.969999900000001,-10.192116737365723,-0.5315127968788147,-0.7589619159698486,33.1878662109375,-18.768310546875,-2.288818359375
8.9899999,-9.99339771270752,0.011971008032560349,-0.21787235140800476,0.7476806640625,-8.8043212890625,-7.7667236328125
9.0099999,-9.86889934539795,0.5770025849342346,0.7445967197418213,-29.571533203125,8.4075927734375,-6.1798095703125
9.0299999,-9.804255485534668,0.6847416758537292,1.3670891523361206,-38.2232666015625,12.847900390625,-0.6561279296875
9.049999900000001,-9.852140426635742,0.49320554733276367,1.556231141090393,-21.66748046875,3.2196044921875,0.946044921875
9.069999900000001,-10.014945983886719,-0.0454898327589035,1.0223240852355957,4.45556640625,-0.7781982421875,-1.220703125
9.0899999,-10.074800491333008,-0.49320554733276367,0.3734954595565796,33.1573486328125,-10.1318359375,2.3956298828125
9.1099999,-10.043676376342773,-0.6607996821403503,0.011971008032560349,41.9769287109375,-17.2271728515625,2.197265625
9.129999900000001,-9.99100399017334,-0.45010992884635925,0.19632454216480255,22.2930908203125,-12.02392578125,0.67138671875
9.149999900000001,-9.792284965515137,-0.0071826050989329815,0.7493851184844971,-15.0146484375,3.021240234375,-3.326416015625
9.1699999,-9.799467086791992,0.3926490843296051,1.4676456451416016,-36.5753173828125,13.48876953125,-1.190185546875
9.1899999,-9.720458984375,0.6368576288223267,1.8794482946395874,-38.6505126953125,12.7410888671875,3.84521484375
9.209999900000001,-9.734824180603027,0.5171475410461426,1.8387469053268433,-39.0777587890625,10.1470947265625,2.3956298828125
9.229999900000001,-9.909601211547852,0.26096799969673157,1.237802267074585,-32.8826904296875,13.9923095703125,-0.8087158203125
9.2499999,-9.923966407775879,-0.0454898327589035,0.4596867263317108,-10.101318359375,0.9613037109375,3.47900390625
9.2699999,-10.08198356628418,-0.304063618183136,-0.2801215946674347,12.359619140625,-16.448974609375,0.0762939453125
9.2899999,-10.093954086303711,-0.47165772318840027,-0.5793967843055725,19.22607421875,-15.9454345703125,-8.331298828125
9.309999900000001,-10.08198356628418,-0.5147533416748047,-0.16998831927776337,11.9171142578125,-6.3934326171875,-3.1890869140625
9.3299999,-10.074800491333008,-0.5363011956214905,0.45489832758903503,0.091552734375,5.950927734375,6.9122314453125
9.3499999,-10.06043529510498,-0.5530605912208557,0.8930372595787048,4.57763671875,5.157470703125,10.3607177734375
9.3699999,-10.070012092590332,-0.45250412821769714,0.9265560507774353,28.0609130859375,-7.9498291015625,8.1024169921875
9.389999900000001,-10.055646896362305,-0.22026655077934265,0.7038952708244324,42.41943359375,-12.7410888671875,4.0283203125
9.4099999,-10.08198356628418,0.16519992053508759,0.5410895943641663,33.2489013671875,-11.7950439453125,-1.28173828125
9.4299999,-10.034099578857422,0.6631938815116882,0.6631938815116882,10.31494140625,-8.0718994140625,-5.615234375
9.4499999,-9.947908401489258,1.1204863786697388,1.2234370708465576,-12.542724609375,-2.3040771484375,-8.544921875
9.469999900000001,-9.773131370544434,1.3646949529647827,1.968033790588379,-45.0897216796875,9.307861328125,-14.7552490234375
9.4899999,-9.653421401977539,1.2186486721038818,2.516305923461914,-74.7833251953125,31.524658203125,-13.9007568359375
9.5099999,-9.552865028381348,0.6919242739677429,2.6455929279327393,-70.343017578125,37.90283203125,-2.2125244140625
9.5299999,-9.612719535827637,-0.12210428714752197,1.9177556037902832,-38.7725830078125,25.8026123046875,4.7607421875
9.549999900000001,-9.859322547912598,-0.8954314589500427,0.6009446382522583,3.84521484375,13.031005859375,4.82177734375
9.569999900000001,-10.113107681274414,-1.2497732639312744,-0.7398083209991455,33.5235595703125,-4.8370361328125,5.2490234375
9.5899999,-10.26394271850586,-1.192312479019165,-1.6089035272598267,34.8358154296875,-17.547607421875,0.9002685546875
9.6099999,-10.29746150970459,-0.6584054827690125,-1.455674648284912,24.566650390625,-21.514892578125,-5.0506591796875
9.629999900000001,-10.04846477508545,-0.016759412363171577,-0.4884171485900879,-2.6092529296875,-9.9334716796875,-7.568359375
9.649999900000001,-9.852140426635742,0.45489832758903503,0.8140285611152649,-39.5050048828125,11.3677978515625,-2.9449462890625
9.6699999,-9.648633003234863,0.6751648783683777,1.941697597503662,-55.5877685546875,20.660400390625,2.3345947265625
9.6899999,-9.567230224609375,0.5219359993934631,2.454056739807129,-50.323486328125,18.6309814453125,3.6773681640625
9.709999900000001,-9.710882186889648,0.1604115068912506,2.0254945755004883,-42.327880859375,22.3541259765625,3.173828125
9.729999900000001,-9.959878921508789,-0.27054479718208313,0.7924807667732239,-19.8516845703125,16.143798828125,4.1961669921875
9.7499999,-10.27591323852539,-0.6703764796257019,-0.5650315880775452,15.0299072265625,-14.801025390625,7.62939453125
9.7699999,-10.462661743164062,-0.8451532125473022,-1.623268723487854,46.6766357421875,-36.0870361328125,-2.9449462890625
9.7899999,-10.402806282043457,-0.8762778043746948,-1.6376339197158813,64.4683837890625,-31.005859375,-8.4228515625
9.809999900000001,-10.065223693847656,-0.5913678407669067,-0.38307225704193115,43.9453125,-13.2293701171875,-2.0751953125
9.8299999,-9.801861763000488,-0.16759411990642548,1.2545616626739502,-10.1318359375,13.7939453125,7.0648193359375
9.8499999,-9.514557838439941,0.26096799969673157,2.631227731704712,-41.9921875,28.80859375,9.3841552734375
9.8699999,-9.521739959716797,0.6392518281936646,2.873042106628418,-38.0096435546875,26.275634765625,5.4168701171875
9.889999900000001,-9.75637149810791,0.751779317855835,1.9943699836730957,-13.6260986328125,18.3258056640625,-3.5400390625
9.9099999,-10.007762908935547,0.667982280254364,0.47644615173339844,10.5133056640625,-1.15966796875,-7.6141357421875
9.9299999,-10.254365921020508,0.5051765441894531,-0.7996633648872375,18.1732177734375,-15.0299072265625,-7.904052734375
9.9499999,-10.309432983398438,0.17717093229293823,-1.2473790645599365,17.852783203125,-20.1873779296875,-12.847900390625
9.969999900000001,-10.129867553710938,-0.22026655077934265,-0.7565677165985107,6.7596435546875,-10.498046875,-13.61083984375
9.9899999,-9.967061996459961,-0.6224924325942993,0.2825157940387726,-14.2059326171875,7.2174072265625,4.57763671875
10.0099999,-9.813833236694336,-0.9576807022094727,1.2042834758758545,-22.5982666015625,14.6331787109375,18.6920166015625
10.0299999,-9.823410034179688,-1.0558429956436157,1.522712230682373,-9.429931640625,7.6904296875,17.2882080078125
10.049999900000001,-9.923966407775879,-0.7733271718025208,1.170764684677124,8.6212158203125,3.1585693359375,10.1470947265625
10.069999900000001,-10.000580787658691,-0.23702596127986908,0.44532153010368347,16.3421630859375,-6.65283203125,2.4871826171875
10.0899999,-10.14902114868164,0.4429273009300232,0.021547814831137657,8.6212158203125,-13.4124755859375,-2.410888671875
10.1099999,-10.11789608001709,1.0127472877502441,0.05267243832349777,-15.3961181640625,-7.26318359375,-8.2244873046875
10.129999900000001,-9.919178009033203,1.1037269830703735,0.5410895943641663,-36.9110107421875,3.9520263671875,-17.6239013671875
10.149999900000001,-9.830592155456543,0.7110779285430908,1.1085153818130493,-38.5284423828125,14.678955078125,-10.9710693359375
10.1699999,-9.691728591918945,-0.07900865375995636,1.335964560508728,-20.3094482421875,14.3585205078125,6.8359375
10.1899999,-9.763554573059082,-0.8379706144332886,1.0582371950149536,10.5743408203125,4.3792724609375,10.5438232421875
10.209999900000001,-9.99100399017334,-1.290474772453308,0.3974374830722809,38.0859375,-2.25830078125,7.1868896484375
10.229999900000001,-10.103530883789062,-1.0342950820922852,-0.1604115068912506,47.088623046875,-10.6964111328125,5.401611328125
10.2499999,-10.187328338623047,-0.3232172429561615,-0.2825157940387726,31.4178466796875,-13.73291015625,-1.983642578125
10.2699999,-10.110713958740234,0.5770025849342346,0.181959331035614,-2.38037109375,-5.0811767578125,-12.7716064453125
10.2899999,-9.86650562286377,1.1875240802764893,0.9648633003234863,-36.9415283203125,11.5203857421875,-22.3846435546875
10.309999900000001,-9.749189376831055,1.1779472827911377,1.6735470294952393,-48.6297607421875,23.529052734375,-14.495849609375
10.3299999,-9.682151794433594,0.5099649429321289,1.723825216293335,-36.1175537109375,23.8800048828125,-1.4495849609375
10.3499999,-9.835380554199219,-0.4668693244457245,1.1228805780410767,-3.0364990234375,14.251708984375,2.5787353515625
10.3699999,-10.074800491333008,-1.1755530834197998,0.07900865375995636,33.0657958984375,-0.54931640625,6.5155029296875
10.389999900000001,-10.225635528564453,-1.316810965538025,-0.9145850539207458,47.3175048828125,-13.427734375,5.9356689453125
10.4099999,-10.283096313476562,-0.8667010068893433,-1.3192051649093628,41.7022705078125,-23.4375,-6.3629150390625
10.4299999,-10.129867553710938,-0.16519992053508759,-0.8355764150619507,19.317626953125,-21.6064453125,-14.3585205078125
10.4499999,-9.904812812805176,0.33518823981285095,0.22744916379451752,-13.5040283203125,-3.6163330078125,-13.9617919921875
10.469999900000001,-9.720458984375,0.4165911078453064,1.41257905960083,-40.1153564453125,14.6484375,-1.9989013671875
10.4899999,-9.641449928283691,0.08379705995321274,2.1164743900299072,-44.2352294921875,22.064208984375,7.568359375
10.5099999,-9.701305389404297,-0.45489832758903503,1.8818424940109253,-21.575927734375,14.3585205078125,9.3536376953125
10.5299999,-9.907206535339355,-0.8044517636299133,0.9600749015808105,10.5133056640625,5.859375,9.0179443359375
10.549999900000001,-10.163386344909668,-0.8882488012313843,-0.19393034279346466,32.3028564453125,-10.8795166015625,8.11767578125
10.569999900000001,-10.261548042297363,-0.5171475410461426,-0.950498104095459,32.562255859375,-20.4315185546875,0.762939453125
10.5899999,-10.266336441040039,0.05027823522686958,-0.8403648138046265,17.4560546875,-19.9737548828125,-8.087158203125
10.6099999,-10.017339706420898,0.507570743560791,0.016759412363171577,-9.552001953125,-6.4849853515625,-13.6260986328125
10.629999900000001,-9.821015357971191,0.706289529800415,1.139639973640442,-35.6903076171875,12.0086669921875,-10.4217529296875
10.649999900000001,-9.713275909423828,0.395043283700943,1.9345149993896484,-40.4815673828125,22.0184326171875,0.4119873046875
10.6699999,-9.667786598205566,-0.11971008777618408,1.9991583824157715,-21.8353271484375,15.1824951171875,4.0130615234375
10.6899999,-9.897629737854004,-0.6727706789970398,1.2473790645599365,5.0506591796875,10.7269287109375,3.6468505859375
10.709999900000001,-10.055646896362305,-0.8667010068893433,0.15801730751991272,28.7017822265625,-1.007080078125,2.8839111328125
10.729999900000001,-10.177751541137695,-0.7398083209991455,-0.6847416758537292,33.843994140625,-14.9383544921875,-0.0152587890625
10.7499999,-10.20887565612793,-0.2537853717803955,-0.8355764150619507,18.7835693359375,-19.989013671875,-8.758544921875
10.7699999,-10.012551307678223,0.2513911724090576,-0.17717093229293823,-15.5487060546875,-4.8980712890625,-15.9759521484375
10.7899999,-9.828198432922363,0.4644751250743866,0.8403648138046265,-47.1343994140625,13.0615234375,-10.25390625
10.809999900000001,-9.682151794433594,0.23942017555236816,1.6160861253738403,-62.347412109375,23.0865478515625,1.739501953125
10.8299999,-9.679757118225098,-0.28969839215278625,1.5634137392044067,-47.66845703125,20.233154296875,7.6141357421875
10.8499999,-9.885659217834473,-0.9433154463768005,0.7924807667732239,-11.04736328125,3.692626953125,12.20703125
10.8699999,-9.988609313964844,-1.256955862045288,-0.28969839215278625,13.7481689453125,-11.0626220703125,9.918212890625
10.889999900000001,-10.220847129821777,-1.1659762859344482,-1.1180921792984009,14.6942138671875,-19.4549560546875,8.3160400390625
10.9099999,-10.062829971313477,-0.7422025203704834,-1.115697979927063,1.8310546875,-26.214599609375,4.82177734375
10.9299999,-9.59835433959961,-0.16759411990642548,-0.3016694188117981,-9.2315673828125,-17.120361328125,3.35693359375
10.9499999,-8.4108304977417,0.14844051003456116,0.8140285611152649,-30.3497314453125,6.89697265625,6.3629150390625
10.969999900000001,-7.129932880401611,0.07422025501728058,1.6855180263519287,-24.566650390625,21.636962890625,16.29638671875
10.9899999,-6.751648902893066,-0.3016694188117981,1.7980455160140991,16.632080078125,18.585205078125,15.80810546875
11.0099999,-6.907271862030029,-0.6368576288223267,1.3670891523361206,54.6112060546875,8.758544921875,19.95849609375
11.0299999,-8.288725852966309,-0.4884171485900879,0.8667010068893433,49.0875244140625,1.3580322265625,29.11376953125
11.049999900000001,-10.625467300415039,0.6775590777397156,0.47644615173339844,-3.1890869140625,10.3759765625,11.8560791015625
11.069999900000001,-12.378023147583008,1.7741034030914307,0.28730419278144836,-73.3489990234375,22.94921875,-22.1405029296875
11.0899999,-13.795390129089355,2.2840683460235596,-0.23942017555236816,-109.86328125,17.364501953125,-27.1759033203125
11.1099999,-13.994109153747559,1.5442601442337036,-0.7182605266571045,-41.3360595703125,-31.79931640625,3.9520263671875
11.129999900000001,-12.892776489257812,-0.15562310814857483,-1.1779472827911377,39.48974609375,-58.380126953125,27.7252197265625
11.149999900000001,-11.559206008911133,-1.4772224426269531,-0.9026140570640564,69.4580078125,-39.581298828125,38.818359375
11.1699999,-10.110713958740234,-1.6280571222305298,0.24899697303771973,50.59814453125,-17.39501953125,27.8778076171875
11.1899999,-9.339780807495117,-0.9481038451194763,1.2186486721038818,-18.4326171875,17.63916015625,-15.472412109375
11.209999900000001,-9.009381294250488,-0.08619125932455063,1.8411411046981812,-41.32080078125,36.407470703125,-28.045654296875
11.229999900000001,-9.102754592895508,0.28969839215278625,1.6615760326385498,-7.38525390625,12.969970703125,-5.9814453125
11.2499999,-9.442731857299805,0.12928688526153564,0.912190854549408,22.6898193359375,-9.33837890625,11.9781494140625
11.2699999,-9.854534149169922,0.023942016065120697,0.35673606395721436,33.75244140625,-10.4827880859375,10.711669921875
11.2899999,-10.050858497619629,0.1843535304069519,0.16998831927776337,17.9901123046875,0.91552734375,2.227783203125
11.309999900000001,-10.105925559997559,0.4381389021873474,0.26575639843940735,-5.035400390625,6.65283203125,-3.570556640625
11.3299999,-10.072406768798828,0.5386953949928284,0.45010992884635925,-6.1492919921875,-2.5482177734375,-5.2947998046875
11.3499999,-10.007762908935547,0.47405192255973816,0.5985504388809204,0,-8.4075927734375,3.3416748046875
11.3699999,-9.959878921508789,0.3016694188117981,0.6871358752250671,-5.9356689453125,0.274658203125,7.7056884765625
11.389999900000001,-9.888052940368652,0.1867477297782898,0.7086837291717529,-5.79833984375,5.3253173828125,-1.6937255859375
11.4099999,-9.856928825378418,0.2561795711517334,0.7206547260284424,4.058837890625,-0.2593994140625,-4.7149658203125
11.4299999,-9.835380554199219,0.2944868206977844,0.6368576288223267,5.4931640625,0.1068115234375,-5.4931640625
11.4499999,-9.9000244140625,0.35434186458587646,0.5961562395095825,3.1890869140625,4.364013671875,-9.6282958984375
11.469999900000001,-9.974244117736816,0.33039984107017517,0.6009446382522583,4.6539306640625,5.7373046875,-10.284423828125
11.4899999,-10.000580787658691,0.17477671802043915,0.5770025849342346,9.6435546875,4.638671875,-8.30078125
11.5099999,-10.031704902648926,0.07422025501728058,0.5793967843055725,11.077880859375,1.1444091796875,-1.15966796875
11.5299999,-10.02691650390625,-0.031124621629714966,0.5674257874488831,7.0648193359375,0.762939453125,-2.8228759765625
11.549999900000001,-10.000580787658691,-0.07422025501728058,0.5386953949928284,6.4697265625,3.875732421875,-10.92529296875
11.569999900000001,-9.964667320251465,-0.15083470940589905,0.5003881454467773,7.5836181640625,2.0751953125,-8.4075927734375
11.5899999,-9.95748519897461,-0.26815059781074524,0.45010992884635925,6.1798095703125,-1.7242431640625,-0.5035400390625
11.6099999,-9.96945571899414,-0.3280056416988373,0.38307225704193115,11.41357421875,-0.579833984375,-3.8909912109375
11.629999900000001,-9.981427192687988,-0.3064578175544739,0.3423708379268646,22.9949951171875,5.9967041015625,-14.5263671875
11.649999900000001,-9.945513725280762,-0.33997663855552673,0.304063618183136,29.9072265625,7.26318359375,-23.6053466796875
11.6699999,-10.014945983886719,-0.37828385829925537,-0.22026655077934265,-7.14111328125,-8.636474609375,-13.18359375
11.6899999,-9.979032516479492,-0.48602294921875,-0.12928688526153564,-70.7855224609375,-40.802001953125,10.2386474609375
11.709999900000001,-9.964667320251465,-0.6272808313369751,-0.24420857429504395,31.951904296875,0.457763671875,-3.6468505859375
11.729999900000001,-9.947908401489258,-0.5363011956214905,0.13168109953403473,21.42333984375,9.21630859375,9.9334716796875
11.7499999,-9.919178009033203,-0.31603461503982544,0.5674257874488831,7.38525390625,0.5035400390625,15.5792236328125
11.7699999,-9.945513725280762,0.05027823522686958,0.8068459630012512,7.0037841796875,-3.4027099609375,10.1470947265625
11.7899999,-9.981427192687988,0.44532153010368347,0.8858546018600464,7.3394775390625,-1.46484375,2.4261474609375
11.809999900000001,-10.046070098876953,0.6967126727104187,0.8379706144332886,5.340576171875,1.2054443359375,5.0201416015625
11.8299999,-10.070012092590332,0.7637503147125244,0.7733271718025208,-0.518798828125,-2.1209716796875,9.3841552734375
11.8499999,-10.079588890075684,0.6416460275650024,0.7469909191131592,-5.3253173828125,-9.735107421875,12.8326416015625
11.8699999,-10.053253173828125,0.4884171485900879,0.7374141216278076,-0.2593994140625,-4.1656494140625,5.8441162109375
11.889999900000001,-9.988609313964844,0.33758243918418884,0.8188169598579407,10.5133056640625,6.7138671875,0.244140625
11.9099999,-9.914389610290527,0.2322375625371933,0.8954314589500427,14.83154296875,10.009765625,-0.030517578125
11.9299999,-9.837775230407715,0.14844051003456116,0.9241618514060974,19.683837890625,7.2021484375,-0.7781982421875
11.9499999,-9.835380554199219,0.08379705995321274,0.9050082564353943,13.0157470703125,4.608154296875,0.1983642578125
11.969999900000001,-9.86889934539795,0.10295066982507706,0.7829039692878723,6.195068359375,8.087158203125,2.86865234375
11.9899999,-9.931148529052734,0.16998831927776337,0.6631938815116882,7.5531005859375,6.77490234375,1.861572265625
12.0099999,-10.010157585144043,0.10773907601833344,0.3758896589279175,12.3443603515625,0.7171630859375,-1.953125
12.0299999,-10.04846477508545,0.028730420395731926,0.26096799969673157,30.3192138671875,-5.4473876953125,-1.5106201171875
12.049999900000001,-10.122684478759766,-0.15801730751991272,0.1173158809542656,34.3780517578125,-6.77490234375,5.340576171875
12.069999900000001,-10.196905136108398,-0.31842881441116333,0.043095629662275314,33.0657958984375,-3.4027099609375,4.5623779296875
12.0899999,-10.307038307189941,-0.19871874153614044,0.023942016065120697,47.2869873046875,-16.265869140625,4.6539306640625
12.1099999,-10.362105369567871,0.12449848651885986,0.14844051003456116,46.5545654296875,-18.4783935546875,3.72314453125
12.129999900000001,-10.194510459899902,0.6153098344802856,0.49320554733276367,35.6597900390625,-13.946533203125,-7.01904296875
12.149999900000001,-10.010157585144043,1.0582371950149536,1.1492167711257935,15.2740478515625,-4.69970703125,-14.4805908203125
12.1699999,-9.792284965515137,1.1994950771331787,1.6687586307525635,-4.2266845703125,8.1024169921875,-18.00537109375
12.1899999,-9.974244117736816,1.070208191871643,1.968033790588379,-13.5650634765625,16.021728515625,-10.6048583984375
12.209999900000001,-10.24000072479248,0.6488286852836609,1.7405846118927002,-13.9923095703125,12.5274658203125,-3.1280517578125
12.229999900000001,-10.900800704956055,0.2801215946674347,1.2066776752471924,-15.13671875,8.7127685546875,3.173828125
12.2499999,-11.353304862976074,-0.026336219161748886,0.5267243981361389,-6.500244140625,4.94384765625,1.6326904296875
12.2699999,-11.26950740814209,-0.2298433631658554,0.10295066982507706,2.960205078125,-7.6141357421875,-7.354736328125
12.289999900000002,-10.802638053894043,-0.08140286058187485,0.08379705995321274,2.2735595703125,-9.765625,0.762939453125
12.309999900000001,-9.816226959228516,0.002394201699644327,0.38546648621559143,-7.476806640625,-6.103515625,-3.11279296875
12.3299999,-9.141061782836914,0.19153612852096558,0.8571242094039917,-14.6636962890625,4.425048828125,-7.568359375
12.3499999,-8.743624687194824,0.23702596127986908,1.1228805780410767,-7.2479248046875,10.040283203125,-5.1422119140625
12.3699999,-8.858546257019043,0.11252748221158981,1.070208191871643,1.556396484375,5.9814453125,1.0986328125
12.389999900000001,-9.311050415039062,-0.026336219161748886,0.7924807667732239,14.068603515625,3.4027099609375,3.570556640625
12.4099999,-9.737217903137207,-0.11013327538967133,0.545877993106842,22.2625732421875,1.129150390625,3.7841796875
12.4299999,-10.505757331848145,0.2346317619085312,0.6344634294509888,2.6092529296875,1.1749267578125,1.2969970703125
12.4499999,-10.412383079528809,0.5793967843055725,0.9002198576927185,-11.0015869140625,4.9896240234375,-0.1068115234375
12.469999900000001,-10.036493301391602,0.7038952708244324,1.0342950820922852,-11.3677978515625,10.9405517578125,-5.2947998046875
12.4899999,-9.739612579345703,0.6919242739677429,1.0031704902648926,-1.8768310546875,4.39453125,-11.65771484375
12.5099999,-9.962273597717285,0.42377370595932007,0.7326257228851318,1.983642578125,0.06103515625,-10.8184814453125
12.5299999,-10.278307914733887,-0.05027823522686958,0.43095630407333374,3.6773681640625,-1.922607421875,-7.4462890625
12.549999900000001,-11.417947769165039,-0.3208230137825012,0.12449848651885986,10.406494140625,5.43212890625,4.2724609375
12.569999900000001,-11.863269805908203,-0.608127236366272,-0.07182604819536209,14.4805908203125,-7.8277587890625,-18.0206298828125
12.5899999,-12.538434028625488,-0.5339069962501526,-0.26096799969673157,15.1214599609375,-8.331298828125,-12.725830078125
12.6099999,-12.567164421081543,-0.40701428055763245,-0.33758243918418884,18.7225341796875,-19.47021484375,-4.180908203125
12.629999900000001,-12.131420135498047,-0.2298433631658554,-0.24181437492370605,17.120361328125,-36.224365234375,-10.3759765625
12.649999900000001,-11.398794174194336,-0.08858546614646912,0.002394201699644327,13.9007568359375,-21.392822265625,-14.0228271484375
12.6699999,-10.426748275756836,0.002394201699644327,0.45010992884635925,12.8173828125,-0.2593994140625,-18.768310546875
12.6899999,-9.44991397857666,-0.0454898327589035,0.9409212470054626,11.199951171875,9.3231201171875,-20.9197998046875
12.709999900000001,-8.664615631103516,-0.016759412363171577,1.4197616577148438,5.4168701171875,12.8936767578125,-17.303466796875
12.729999900000001,-8.063671112060547,-0.07661445438861847,1.9345149993896484,-9.613037109375,16.54052734375,-13.5498046875
12.7499999,-7.647080421447754,-0.1173158809542656,2.1763293743133545,-35.8734130859375,29.998779296875,-13.0767822265625
12.7699999,-7.422025203704834,-0.27054479718208313,2.2170307636260986,-43.7469482421875,39.520263671875,-8.5906982421875
12.789999900000002,-7.429207801818848,-0.49799394607543945,1.8315643072128296,-35.7513427734375,34.881591796875,5.523681640625
12.809999900000001,-7.644686222076416,-0.7757213711738586,1.170764684677124,-21.240234375,19.6380615234375,13.427734375
12.8299999,-8.037335395812988,-0.9576807022094727,0.4572925269603729,-6.6986083984375,2.044677734375,13.7786865234375
12.8499999,-8.485051155090332,-1.0271124839782715,-0.08619125932455063,5.1422119140625,-6.16455078125,12.664794921875
12.8699999,-8.935160636901855,-0.9289502501487732,-0.35913026332855225,13.641357421875,-6.1798095703125,8.2550048828125
12.889999900000001,-9.32541561126709,-0.7589619159698486,-0.35434186458587646,17.9595947265625,-7.354736328125,1.5869140625
12.9099999,-9.670180320739746,-0.5291185975074768,-0.15562310814857483,19.1192626953125,-13.946533203125,-2.1820068359375
12.9299999,-9.931148529052734,-0.33039984107017517,0.15562310814857483,15.716552734375,-19.775390625,-1.9683837890625
12.9499999,-10.067618370056152,-0.17956513166427612,0.5267243981361389,9.3994140625,-19.9737548828125,-1.2969970703125
12.969999900000001,-10.08198356628418,-0.08619125932455063,0.8619126081466675,3.1280517578125,-14.6484375,-1.5716552734375
12.9899999,-10.012551307678223,-0.07661445438861847,1.115697979927063,-3.1585693359375,-10.2996826171875,-2.685546875
13.0099999,-9.93354320526123,-0.07182604819536209,1.2497732639312744,-9.5062255859375,-13.519287109375,0.30517578125
13.0299999,-9.864110946655273,-0.08619125932455063,1.290474772453308,-17.059326171875,-16.8914794921875,2.410888671875
13.049999900000001,-9.782708168029785,-0.035913024097681046,1.292868971824646,-23.8494873046875,-13.2293701171875,-0.18310546875
13.069999900000001,-9.674968719482422,-0.12210428714752197,1.1971008777618408,-30.8074951171875,7.7972412109375,-4.364013671875
13.0899999,-9.734824180603027,-0.11252748221158981,1.0462661981582642,-23.4832763671875,30.517578125,-7.049560546875
13.1099999,-9.816226959228516,-0.26096799969673157,0.7805097699165344,-16.5252685546875,14.16015625,-8.4075927734375
13.129999900000001,-10.010157585144043,-0.38307225704193115,0.47405192255973816,-13.824462890625,-2.25830078125,-15.350341796875
13.149999900000001,-10.14902114868164,-0.5027823448181152,0.21787235140800476,-9.3994140625,-1.7242431640625,-16.7083740234375
13.1699999,-10.11550235748291,-0.6272808313369751,0.07422025501728058,-4.302978515625,4.45556640625,-8.2244873046875
13.1899999,-9.940725326538086,-0.7422025203704834,0.05267243832349777,-0.091552734375,9.3231201171875,1.03759765625
13.209999900000001,-9.768342971801758,-0.790086567401886,0.10295066982507706,3.84521484375,13.7939453125,5.37109375
13.229999900000001,-9.679757118225098,-0.7829039692878723,0.1867477297782898,7.62939453125,17.63916015625,4.5318603515625
13.2499999,-9.749189376831055,-0.706289529800415,0.2561795711517334,9.8419189453125,20.56884765625,-3.11279296875
13.2699999,-9.938331604003906,-0.608127236366272,0.28969839215278625,12.725830078125,17.913818359375,-13.7939453125
13.289999900000002,-10.11550235748291,-0.5506663918495178,0.3016694188117981,13.0462646484375,8.7127685546875,-19.9737548828125
13.309999900000001,-10.216058731079102,-0.5339069962501526,0.31364041566848755,10.0250244140625,0.946044921875,-16.7083740234375
13.3299999,-10.189722061157227,-0.5482721924781799,0.3495534360408783,4.852294921875,-0.6866455078125,-8.48388671875
13.3499999,-10.074800491333008,-0.5482721924781799,0.4189853072166443,-0.6866455078125,1.6632080078125,-2.8533935546875
13.3699999,-9.938331604003906,-0.5386953949928284,0.4836287498474121,-5.9967041015625,2.6702880859375,0.9002685546875
13.389999900000001,-9.830592155456543,-0.5219359993934631,0.5219359993934631,-9.307861328125,-2.5787353515625,6.378173828125
13.4099999,-9.806650161743164,-0.47884035110473633,0.524330198764801,-9.0179443359375,-7.537841796875,12.1917724609375
13.4299999,-9.818621635437012,-0.45250412821769714,0.5147533416748047,-6.195068359375,-5.4168701171875,12.9547119140625
13.4499999,-9.897629737854004,-0.40222588181495667,0.5147533416748047,-3.0517578125,-2.593994140625,13.5955810546875
13.469999900000001,-10.007762908935547,-0.31124621629714966,0.5123591423034668,-0.9918212890625,-3.875732421875,16.082763671875
13.4899999,-10.065223693847656,-0.2082955539226532,0.5291185975074768,-1.0986328125,-6.7901611328125,15.228271484375
13.5099999,-10.036493301391602,-0.1412578970193863,0.5530605912208557,-2.4871826171875,-3.387451171875,15.13671875
13.5299999,-9.93593692779541,-0.038307227194309235,0.5913678407669067,-4.0130615234375,5.0811767578125,22.430419921875
13.549999900000001,-10.199298858642578,0.016759412363171577,0.6224924325942993,-6.2408447265625,12.3291015625,25.1617431640625
13.569999900000001,-10.342951774597168,-0.07422025501728058,0.6344634294509888,-5.6915283203125,6.5460205078125,-1.52587890625
13.5899999,-10.72841739654541,-0.08140286058187485,0.6105214357376099,-6.7596435546875,-0.7171630859375,-17.8070068359375
13.6099999,-10.81460952758789,-0.26096799969673157,0.5410895943641663,-4.486083984375,4.6234130859375,-1.2359619140625
13.629999900000001,-10.706870079040527,-0.29209262132644653,0.4572925269603729,-1.5411376953125,3.5858154296875,0.3662109375
13.649999900000001,-10.383652687072754,-0.33997663855552673,0.3495534360408783,0.0152587890625,1.9683837890625,-3.1890869140625
13.6699999,-10.163386344909668,-0.3471592366695404,0.2944868206977844,-0.213623046875,-1.3580322265625,-5.706787109375
13.6899999,-10.000580787658691,-0.35673606395721436,0.28969839215278625,-2.0599365234375,-0.213623046875,-3.0517578125
13.709999900000001,-9.907206535339355,-0.3734954595565796,0.3495534360408783,-5.523681640625,2.2430419921875,0.1068115234375
13.729999900000001,-9.885659217834473,-0.38546648621559143,0.44532153010368347,-7.843017578125,2.86865234375,0.06103515625
13.7499999,-9.876082420349121,-0.35434186458587646,0.569819986820221,-7.5531005859375,2.5482177734375,-2.38037109375
13.7699999,-9.883264541625977,-0.31364041566848755,0.6488286852836609,-7.8887939453125,5.3558349609375,-1.89208984375
13.789999900000002,-9.907206535339355,-0.35434186458587646,0.5602431893348694,-7.4920654296875,6.7901611328125,-1.2359619140625
13.809999900000001,-9.967061996459961,-0.43095630407333374,0.3663128614425659,0.42724609375,3.11279296875,-1.1138916015625
13.8299999,-10.012551307678223,-0.5171475410461426,0.15083470940589905,6.4239501953125,-1.9989013671875,1.46484375
13.8499999,-10.04846477508545,-0.5147533416748047,0.0454898327589035,-1.2359619140625,-3.0517578125,3.814697265625
13.8699999,-10.036493301391602,-0.43095630407333374,0.06224924325942993,-17.425537109375,-1.1749267578125,2.5787353515625
13.889999900000001,-10.046070098876953,-0.23702596127986908,0.26336219906806946,-25.1007080078125,0.06103515625,0.762939453125
13.9099999,-9.971850395202637,-0.19871874153614044,0.3663128614425659,-23.040771484375,0.42724609375,1.52587890625
13.9299999,-10.017339706420898,-0.14365209639072418,0.42377370595932007,-16.082763671875,1.8768310546875,0.9002685546875
13.9499999,-10.034099578857422,-0.38067805767059326,0.22505496442317963,-1.28173828125,-0.9613037109375,2.7618408203125
13.969999900000001,-10.096348762512207,-0.5985504388809204,-0.014365210197865963,16.510009765625,-9.429931640625,7.6751708984375
13.9899999,-10.108319282531738,-0.768538773059845,-0.26096799969673157,27.923583984375,-16.937255859375,6.622314453125
14.0099999,-10.11789608001709,-0.8403648138046265,-0.4141969084739685,28.778076171875,-21.484375,2.4871826171875
14.0299999,-10.034099578857422,-0.7350199222564697,-0.2825157940387726,25.2227783203125,-19.317626953125,0.8392333984375
14.049999900000001,-9.93593692779541,-0.4357447028160095,0.08140286058187485,15.0146484375,-15.9759521484375,4.638671875
14.069999900000001,-9.919178009033203,-0.0071826050989329815,0.507570743560791,-1.40380859375,-11.4898681640625,5.706787109375
14.0899999,-9.907206535339355,0.35913026332855225,0.912190854549408,-7.2021484375,-11.5966796875,2.593994140625
14.1099999,-9.952696800231934,0.6847416758537292,1.235408067703247,-3.1890869140625,-13.214111328125,-2.3193359375
14.129999900000001,-9.962273597717285,0.7948749661445618,1.5418659448623657,-4.852294921875,-10.68115234375,-9.0484619140625
14.149999900000001,-9.852140426635742,0.6440402865409851,1.7717092037200928,-16.6015625,-1.7547607421875,-14.95361328125
14.1699999,-9.84495735168457,0.2585737705230713,1.9177556037902832,-22.4761962890625,10.894775390625,-11.6729736328125
14.1899999,-9.696516990661621,-0.2801215946674347,1.8076223134994507,-15.19775390625,14.8773193359375,-4.1656494140625
14.209999900000001,-9.806650161743164,-0.7829039692878723,1.4389152526855469,-2.1820068359375,12.2222900390625,7.0037841796875
14.229999900000001,-9.861717224121094,-1.115697979927063,0.9265560507774353,8.819580078125,3.4637451171875,9.3536376953125
14.2499999,-9.988609313964844,-1.2641384601593018,0.4381389021873474,15.106201171875,-0.885009765625,2.8228759765625
14.2699999,-10.02452278137207,-1.1420341730117798,0.05506663769483566,19.989013671875,-4.547119140625,-0.1983642578125
14.289999900000002,-10.034099578857422,-0.9576807022094727,0.019153613597154617,19.0277099609375,-4.08935546875,6.89697265625
14.309999900000001,-9.93593692779541,-0.5913678407669067,0.16519992053508759,4.3487548828125,-2.3345947265625,10.7879638671875
14.3299999,-9.959878921508789,-0.15562310814857483,0.49799394607543945,-15.4266357421875,3.570556640625,7.9803466796875
14.3499999,-9.880870819091797,0.4118026793003082,0.9696516990661621,-23.9105224609375,3.7841796875,5.43212890625
14.3699999,-9.897629737854004,0.9217676520347595,1.335964560508728,-30.70068359375,2.7618408203125,3.2806396484375
14.389999900000001,-9.971850395202637,1.192312479019165,1.5729905366897583,-37.9486083984375,8.1787109375,-6.3323974609375
14.4099999,-9.876082420349121,1.1061211824417114,1.5418659448623657,-32.77587890625,9.918212890625,-18.12744140625
14.4299999,-9.871294021606445,0.730231523513794,1.3646949529647827,-18.8751220703125,10.9710693359375,-14.58740234375
14.4499999,-9.799467086791992,0.040701430290937424,0.9696516990661621,-15.167236328125,13.8702392578125,-5.1422119140625
14.469999900000001,-9.943120002746582,-0.6607996821403503,0.5027823448181152,-16.8609619140625,20.5535888671875,-3.96728515625
14.4899999,-9.892841339111328,-1.3072341680526733,-0.021547814831137657,-2.410888671875,2.532958984375,-0.396728515625
14.5099999,-10.1753568649292,-1.7501614093780518,-0.4812345504760742,21.4691162109375,-7.7362060546875,8.026123046875
14.5299999,-10.139444351196289,-1.845929503440857,-0.7924807667732239,35.064697265625,-8.6517333984375,9.1705322265625
14.549999900000001,-10.204087257385254,-1.6519991159439087,-0.9002198576927185,36.2701416015625,-15.5487060546875,3.96728515625
14.569999900000001,-10.110713958740234,-1.072602391242981,-0.5386953949928284,35.15625,-18.8751220703125,5.126953125
14.5899999,-10.093954086303711,-0.3495534360408783,-0.002394201699644327,13.3819580078125,-8.5296630859375,9.796142578125
14.6099999,-10.014945983886719,0.3016694188117981,0.6751648783683777,-7.6141357421875,-5.2490234375,7.6904296875
14.629999900000001,-9.971850395202637,0.7254431247711182,1.1875240802764893,-14.9383544921875,-12.542724609375,1.0986328125
14.649999900000001,-9.974244117736816,0.8068459630012512,1.5155296325683594,-12.939453125,-6.866455078125,-2.50244140625
14.6699999,-9.864110946655273,0.646434485912323,1.5849615335464478,-6.7291259765625,-3.1585693359375,-4.57763671875
14.6899999,-9.86889934539795,0.3256114423274994,1.5921441316604614,-4.7454833984375,0.6866455078125,-4.0283203125
14.709999900000001,-9.75637149810791,0.15083470940589905,1.6424223184585571,-11.199951171875,6.6375732421875,-1.5716552734375
14.729999900000001,-9.816226959228516,-0.07900865375995636,1.4891934394836426,-26.2908935546875,17.913818359375,2.0751953125
14.7499999,-9.813833236694336,-0.2106897532939911,1.278503656387329,-21.697998046875,11.3525390625,3.35693359375
14.7699999,-9.921571731567383,-0.40940847992897034,0.8379706144332886,-6.378173828125,-0.6103515625,-0.396728515625
14.789999900000002,-10.000580787658691,-0.6560112833976746,0.2849099934101105,11.9171142578125,-4.3487548828125,-1.77001953125
14.809999900000001,-10.079588890075684,-0.7709329724311829,-0.1149216815829277,26.2451171875,-6.561279296875,-1.28173828125
14.8299999,-10.08198356628418,-0.727837324142456,-0.19871874153614044,28.289794921875,-9.3536376953125,1.373291015625
14.8499999,-10.091560363769531,-0.42856210470199585,0.004788403399288654,12.5885009765625,-7.4310302734375,3.570556640625
14.8699999,-10.079588890075684,-0.10534487664699554,0.363918662071228,-5.1116943359375,-1.739501953125,4.8675537109375
14.889999900000001,-10.031704902648926,0.16759411990642548,0.768538773059845,-2.6397705078125,-8.514404296875,1.5411376953125
14.9099999,-10.062829971313477,0.23702596127986908,0.9720458984375,2.5634765625,-9.185791015625,-1.068115234375
14.9299999,-9.974244117736816,0.0933738648891449,1.0127472877502441,9.002685546875,-8.636474609375,-5.1116943359375
14.9499999,-9.926360130310059,-0.10055647045373917,1.0199298858642578,14.5721435546875,-4.8065185546875,-4.8675537109375
14.969999900000001,-9.816226959228516,-0.23942017555236816,1.0821791887283325,12.1612548828125,-3.9520263671875,0.7476806640625
14.9899999,-9.854534149169922,-0.33279404044151306,1.1061211824417114,-1.0986328125,1.77001953125,5.1727294921875
15.0099999,-9.80904483795166,-0.2944868206977844,1.1827356815338135,-3.2501220703125,-2.6092529296875,6.500244140625
15.0299999,-9.909601211547852,-0.26815059781074524,1.0821791887283325,1.3427734375,-8.148193359375,5.37109375
15.049999900000001,-9.955090522766113,-0.2944868206977844,0.9145850539207458,7.6446533203125,-10.8642578125,-0.30517578125
15.069999900000001,-9.962273597717285,-0.21547815203666687,0.811634361743927,13.0767822265625,-10.6201171875,-2.1820068359375
15.0899999,-10.053253173828125,-0.26336219906806946,0.7876923680305481,11.77978515625,-6.5460205078125,2.0751953125
15.1099999,-9.931148529052734,-0.10295066982507706,0.993593692779541,3.4332275390625,-3.326416015625,1.52587890625
15.129999900000001,-9.981427192687988,0.002394201699644327,1.1827356815338135,-5.096435546875,1.4495849609375,5.4931640625
15.149999900000001,-9.852140426635742,0.15562310814857483,1.400607943534851,-1.89208984375,-3.6163330078125,6.34765625
15.1699999,-9.876082420349121,0.2346317619085312,1.5155296325683594,-3.265380859375,-4.0130615234375,3.3416748046875
15.1899999,-9.787496566772461,0.2346317619085312,1.577778935432434,-6.40869140625,-1.3427734375,-3.1890869140625
15.209999900000001,-9.806650161743164,0.16998831927776337,1.5179238319396973,-8.575439453125,4.302978515625,-5.9051513671875
15.229999900000001,-9.804255485534668,0.028730420395731926,1.4437036514282227,-6.591796875,6.5155029296875,-1.129150390625
15.2499999,-9.852140426635742,-0.035913024097681046,1.2689268589019775,-5.8746337890625,5.828857421875,1.8768310546875
15.2699999,-10.007762908935547,-0.12689268589019775,1.1037269830703735,-4.5166015625,5.3863525390625,3.875732421875
15.289999900000002,-10.014945983886719,-0.1173158809542656,0.9576807022094727,0.18310546875,-1.220703125,3.72314453125
15.309999900000001,-10.046070098876953,-0.028730420395731926,0.9888052940368652,-1.068115234375,-1.6632080078125,0.9613037109375
15.3299999,-9.911994934082031,-0.0454898327589035,0.9864110946655273,-7.843017578125,-1.708984375,-5.31005859375
15.3499999,-9.787496566772461,0.06224924325942993,1.2090718746185303,-14.0838623046875,4.08935546875,-6.561279296875
15.3699999,-9.737217903137207,-0.07422025501728058,1.2689268589019775,-19.500732421875,9.1705322265625,-1.373291015625
15.389999900000001,-9.751583099365234,-0.1867477297782898,1.2449848651885986,-18.280029296875,10.1470947265625,3.8604736328125
15.4099999,-9.909601211547852,-0.47644615173339844,0.9361328482627869,-3.2958984375,4.7607421875,7.2784423828125
15.4299999,-10.000580787658691,-0.6248866319656372,0.6272808313369751,18.9666748046875,-6.8359375,7.598876953125
15.4499999,-10.230423927307129,-0.7038952708244324,0.2537853717803955,27.0538330078125,-10.0250244140625,8.8958740234375
15.469999900000001,-10.096348762512207,-0.5482721924781799,0.24181437492370605,25.726318359375,-13.3819580078125,5.1422119140625
15.4899999,-10.141838073730469,-0.2346317619085312,0.4572925269603729,18.035888671875,-12.0849609375,-0.42724609375
15.5099999,-9.904812812805176,0.09576806426048279,0.9385270476341248,5.2947998046875,-5.8746337890625,0.030517578125
15.5299999,-9.816226959228516,0.4189853072166443,1.5275006294250488,-10.4522705078125,4.1961669921875,3.814697265625
15.549999900000001,-9.806650161743164,0.5363011956214905,1.8363527059555054,-17.63916015625,8.2550048828125,4.7760009765625
15.569999900000001,-9.806650161743164,0.45250412821769714,1.8195933103561401,-4.241943359375,3.0364990234375,3.7689208984375
15.5899999,-9.940725326538086,0.2944868206977844,1.4987702369689941,16.9677734375,-2.410888671875,2.01416015625
15.6099999,-9.962273597717285,0.08858546614646912,1.015141487121582,25.32958984375,-5.859375,1.1749267578125
15.629999900000001,-10.010157585144043,0.023942016065120697,0.6919242739677429,21.3470458984375,-8.48388671875,-4.058837890625
15.649999900000001,-10.005369186401367,0.040701430290937424,0.6368576288223267,18.157958984375,-7.3394775390625,-5.5389404296875
15.6699999,-9.945513725280762,0.15801730751991272,0.8451532125473022,5.67626953125,-4.33349609375,-2.8076171875
15.6899999,-9.947908401489258,0.17238251864910126,1.1276689767837524,-9.918212890625,0.6103515625,1.0833740234375
15.709999900000001,-9.921571731567383,0.10055647045373917,1.4173674583435059,-8.7890625,-1.64794921875,3.5552978515625
15.729999900000001,-9.928754806518555,-0.05746084079146385,1.436521053314209,6.622314453125,-5.584716796875,1.861572265625
15.7499999,-9.986215591430664,-0.23942017555236816,1.3263877630233765,25.543212890625,-6.561279296875,3.7384033203125
15.7699999,-9.926360130310059,-0.3447650372982025,1.0773907899856567,33.2183837890625,-10.162353515625,2.4871826171875
15.789999900000002,-9.921571731567383,-0.23702596127986908,0.9983820915222168,33.6151123046875,-9.3231201171875,0.7171630859375
15.809999900000001,-9.806650161743164,0.004788403399288654,1.0965443849563599,19.59228515625,-5.523681640625,1.1444091796875
15.8299999,-9.80904483795166,0.3208230137825012,1.3766659498214722,-1.6021728515625,-0.579833984375,5.92041015625
15.8499999,-9.821015357971191,0.5291185975074768,1.6160861253738403,-11.2152099609375,-2.8533935546875,5.340576171875
15.869999900000002,-9.830592155456543,0.5482721924781799,1.6903064250946045,-6.5460205078125,-5.2032470703125,3.387451171875
15.889999900000001,-9.952696800231934,0.40701428055763245,1.6400281190872192,7.1868896484375,-3.7841796875,2.6702880859375
15.9099999,-9.871294021606445,0.1843535304069519,1.5275006294250488,15.4571533203125,-6.378173828125,1.617431640625
15.9299999,-9.861717224121094,0.10295066982507706,1.6280571222305298,14.129638671875,-2.1820068359375,-0.762939453125
15.9499999,-9.734824180603027,0.181959331035614,1.7980455160140991,1.6326904296875,6.40869140625,1.2359619140625
15.969999900000001,-9.72285270690918,0.31124621629714966,2.013523578643799,-13.4735107421875,14.862060546875,5.6915283203125
15.9899999,-9.710882186889648,0.4644751250743866,2.075772762298584,-16.7083740234375,11.1236572265625,4.9285888671875
16.0099999,-9.804255485534668,0.4812345504760742,1.8483237028121948,-13.2293701171875,4.8065185546875,3.814697265625
16.0299999,-9.921571731567383,0.5171475410461426,1.556231141090393,-6.34765625,6.8359375,2.1820068359375
16.0499999,-9.976638793945312,0.43335050344467163,1.1228805780410767,-2.410888671875,2.7923583984375,-2.288818359375
16.0699999,-10.007762908935547,0.44771572947502136,0.8595184087753296,0.67138671875,0.579833984375,-8.0413818359375
16.089999900000002,-9.93354320526123,0.3447650372982025,0.6871358752250671,3.692626953125,0.274658203125,-5.6304931640625
16.109999900000002,-9.947908401489258,0.2777273952960968,0.6727706789970398,3.60107421875,2.960205078125,-0.213623046875
16.1299999,-9.90241813659668,0.043095629662275314,0.8834604024887085,13.9007568359375,-9.7503662109375,3.204345703125
16.1499999,-9.976638793945312,0.047884032130241394,1.0749965906143188,18.4478759765625,-7.781982421875,0.1373291015625
16.1699999,-9.892841339111328,0.1364694982767105,1.3503297567367554,15.5792236328125,-5.8441162109375,-1.617431640625
16.1899999,-9.852140426635742,0.4213795065879822,1.7190368175506592,5.645751953125,0.091552734375,-7.354736328125
16.2099999,-9.746794700622559,0.6560112833976746,2.1356279850006104,-10.31494140625,6.8511962890625,-8.9263916015625
16.2299999,-9.66299819946289,0.9385270476341248,2.4684219360351562,-30.94482421875,18.73779296875,-6.3934326171875
16.249999900000002,-9.605537414550781,1.0079588890075684,2.5761611461639404,-38.9251708984375,24.4598388671875,-4.1656494140625
16.269999900000002,-9.624691009521484,0.9385270476341248,2.4157495498657227,-38.116455078125,19.1497802734375,-4.974365234375
16.2899999,-9.739612579345703,0.7613561153411865,2.008735179901123,-37.109375,20.3399658203125,-8.148193359375
16.3099999,-9.739612579345703,0.47884035110473633,1.5538369417190552,-37.29248046875,19.287109375,-8.4686279296875
16.3299999,-9.840168952941895,0.08379705995321274,1.0319008827209473,-34.1796875,19.34814453125,-11.77978515625
16.3499999,-9.847352027893066,-0.1604115068912506,0.7158663272857666,-23.895263671875,18.5699462890625,-8.453369140625
16.3699999,-9.931148529052734,-0.40222588181495667,0.4405331015586853,-26.1383056640625,21.0113525390625,-2.1209716796875
16.3899999,-9.99339771270752,-0.49799394607543945,0.30885201692581177,-28.9459228515625,16.6015625,0.8544921875
16.4099999,-10.036493301391602,-0.49799394607543945,0.2537853717803955,-21.209716796875,9.185791015625,-0.18310546875
16.429999900000002,-10.137049674987793,-0.5291185975074768,0.17717093229293823,-5.5999755859375,7.4310302734375,-0.7171630859375
16.4499999,-10.108319282531738,-0.5339069962501526,0.11013327538967133,4.08935546875,4.058837890625,-0.8087158203125
16.4699999,-10.204087257385254,-0.569819986820221,0.031124621629714966,11.5509033203125,-2.410888671875,-1.0528564453125
16.4899999,-10.192116737365723,-0.5626373887062073,-0.06703764945268631,21.453857421875,-6.0577392578125,-4.852294921875
16.5099999,-10.137049674987793,-0.507570743560791,0.009576806798577309,33.6151123046875,-5.2490234375,-1.7852783203125
16.5299999,-10.050858497619629,-0.3734954595565796,0.2322375625371933,29.6783447265625,-4.21142578125,2.38037109375
16.5499999,-10.02691650390625,-0.21787235140800476,0.5841852426528931,8.4228515625,-0.2593994140625,7.8277587890625
16.5699999,-9.904812812805176,-0.011971008032560349,0.9624691009521484,-7.568359375,-2.0904541015625,8.087158203125
16.589999900000002,-9.940725326538086,0.2082955539226532,1.194706678390503,-6.500244140625,-0.732421875,4.791259765625
16.609999900000002,-9.914389610290527,0.36152446269989014,1.2306196689605713,-1.2359619140625,-1.6937255859375,0.030517578125
16.6299999,-9.921571731567383,0.45489832758903503,1.1659762859344482,-5.096435546875,-4.08935546875,-2.9449462890625
16.6499999,-9.919178009033203,0.4596867263317108,1.094150185585022,-7.4920654296875,2.0904541015625,-6.927490234375
16.6699999,-9.888052940368652,0.3687070608139038,1.0558429956436157,-4.302978515625,5.7525634765625,-6.53076171875
16.6899999,-9.90241813659668,0.1867477297782898,1.036689281463623,-4.3487548828125,9.21630859375,-4.5623779296875
16.7099999,-9.885659217834473,-0.05267243832349777,0.9193734526634216,-5.218505859375,8.7890625,1.1444091796875
16.7299999,-9.974244117736816,-0.28730419278144836,0.6177040338516235,2.6092529296875,0.335693359375,0.54931640625
16.749999900000002,-10.074800491333008,-0.45010992884635925,0.33518823981285095,18.24951171875,-4.547119140625,-1.52587890625
16.769999900000002,-10.034099578857422,-0.47165772318840027,0.021547814831137657,24.3072509765625,-11.2152099609375,0.9307861328125
16.7899999,-10.103530883789062,-0.31842881441116333,0.014365210197865963,19.1650390625,-13.48876953125,-2.5177001953125
16.8099999,-10.034099578857422,-0.043095629662275314,0.2825157940387726,7.354736328125,-11.322021484375,-5.9051513671875
16.8299999,-9.919178009033203,0.2561795711517334,0.7158663272857666,-10.6964111328125,-4.5013427734375,-3.7384033203125
16.8499999,-9.981427192687988,0.3064578175544739,1.0271124839782715,-20.263671875,1.0223388671875,-0.1068115234375
16.8699999,-9.919178009033203,0.2059013396501541,1.1899182796478271,-8.4228515625,-5.9967041015625,2.4871826171875
16.8899999,-9.959878921508789,-0.14604631066322327,1.0869675874710083,8.1787109375,-11.23046875,3.2501220703125
16.9099999,-10.007762908935547,-0.45010992884635925,0.9169792532920837,22.88818359375,-9.7808837890625,2.532958984375
16.929999900000002,-10.002974510192871,-0.6344634294509888,0.8044517636299133,31.7230224609375,-12.0391845703125,3.509521484375
16.9499999,-9.892841339111328,-0.5003881454467773,0.9983820915222168,26.6571044921875,-10.4827880859375,2.410888671875
16.9699999,-9.835380554199219,-0.23702596127986908,1.3718775510787964,0.1220703125,-0.9765625,2.38037109375
16.9899999,-9.732429504394531,0.17238251864910126,1.802833914756775,-26.5045166015625,12.5885009765625,6.1798095703125
17.0099999,-9.696516990661621,0.42856210470199585,2.0374655723571777,-31.005859375,14.6331787109375,7.659912109375
17.0299999,-9.794678688049316,0.5817909836769104,1.9129672050476074,-22.5830078125,5.6610107421875,3.5858154296875
17.0499999,-9.919178009033203,0.5171475410461426,1.4053963422775269,-8.7890625,4.9591064453125,-0.91552734375
17.0699999,-9.964667320251465,0.4118026793003082,0.8690952062606812,7.2174072265625,-0.1068115234375,-1.2054443359375
17.089999900000002,-10.086771965026855,0.2537853717803955,0.4668693244457245,10.25390625,-1.953125,-6.4849853515625
17.109999900000002,-10.002974510192871,0.0694318488240242,0.3758896589279175,4.0740966796875,-2.6702880859375,-12.908935546875
17.1299999,-9.93593692779541,0,0.5650315880775452,-6.317138671875,2.410888671875,-5.6610107421875
17.1499999,-9.979032516479492,-0.20350714027881622,0.7326257228851318,-8.60595703125,7.8887939453125,3.997802734375
17.1699999,-9.885659217834473,-0.3232172429561615,0.8954314589500427,1.953125,-0.8697509765625,4.486083984375
17.1899999,-10.012551307678223,-0.44771572947502136,0.8020575642585754,11.2152099609375,-5.8135986328125,1.922607421875
17.2099999,-10.036493301391602,-0.33518823981285095,0.7541735172271729,18.3563232421875,-6.4544677734375,-0.5950927734375
17.2299999,-10.005369186401367,-0.15322890877723694,0.7972691655158997,14.5416259765625,-6.4697265625,-1.64794921875
17.249999900000002,-9.931148529052734,0.19871874153614044,1.0893617868423462,-0.5950927734375,-1.2969970703125,-7.2021484375
17.269999900000002,-9.818621635437012,0.43095630407333374,1.4867992401123047,-20.5230712890625,5.9814453125,-8.4991455078125
17.2899999,-9.75397777557373,0.5530605912208557,1.8914192914962769,-32.7911376953125,16.0675048828125,-2.838134765625
17.3099999,-9.75397777557373,0.31842881441116333,1.9560627937316895,-28.9764404296875,17.974853515625,2.2430419921875
17.3299999,-9.818621635437012,0.05027823522686958,1.7310078144073486,-13.0462646484375,10.1470947265625,2.8228759765625
17.3499999,-9.971850395202637,-0.31842881441116333,1.1252747774124146,3.448486328125,8.636474609375,-0.518798828125
17.3699999,-10.007762908935547,-0.4692635238170624,0.5027823448181152,17.669677734375,2.288818359375,0.0457763671875
17.3899999,-10.127472877502441,-0.4381389021873474,0.08619125932455063,20.355224609375,-4.8675537109375,-3.23486328125
17.409999900000003,-10.043676376342773,-0.2753331959247589,-0.019153613597154617,11.749267578125,-5.2032470703125,-8.941650390625
17.429999900000002,-9.947908401489258,0.06703764945268631,0.3663128614425659,-3.265380859375,0.2288818359375,-2.6092529296875
17.4499999,-9.883264541625977,0.2322375625371933,0.8068459630012512,-22.064208984375,7.3699951171875,1.5411376953125
17.4699999,-9.837775230407715,0.35673606395721436,1.2665326595306396,-29.0374755859375,7.75146484375,-1.495361328125
17.4899999,-9.840168952941895,0.2513911724090576,1.4437036514282227,-23.1781005859375,6.4544677734375,-1.7547607421875
17.5099999,-9.979032516479492,0.05746084079146385,1.235408067703247,-15.93017578125,8.4228515625,-1.007080078125
17.5299999,-10.02452278137207,-0.1843535304069519,0.8236053586006165,-3.41796875,1.1749267578125,0.1983642578125
17.5499999,-9.938331604003906,-0.3519476354122162,0.5626373887062073,7.415771484375,-9.0179443359375,-5.6915283203125
17.5699999,-9.983820915222168,-0.47165772318840027,0.4572925269603729,2.1514892578125,-3.8909912109375,-8.9874267578125
17.589999900000002,-9.883264541625977,-0.5219359993934631,0.5937620401382446,-7.4615478515625,11.260986328125,2.13623046875
17.609999900000002,-9.888052940368652,-0.5147533416748047,0.828393816947937,-5.2642822265625,7.8887939453125,9.09423828125
17.6299999,-10.000580787658691,-0.5003881454467773,0.8427590131759644,-2.13623046875,0.7476806640625,5.3863525390625
17.6499999,-10.010157585144043,-0.3256114423274994,0.8020575642585754,7.0953369140625,-4.3487548828125,0.5950927734375
17.6699999,-10.074800491333008,-0.14604631066322327,0.7589619159698486,9.1094970703125,0.335693359375,-0.6256103515625
17.6899999,-10.065223693847656,0.07900865375995636,0.7733271718025208,2.7923583984375,1.46484375,-0.9613037109375
17.7099999,-10.055646896362305,0.24181437492370605,0.7445967197418213,-8.9111328125,-0.0762939453125,-3.2958984375
17.7299999,-9.95748519897461,0.272938996553421,0.8331822156906128,-5.18798828125,-2.7923583984375,-3.997802734375
17.749999900000002,-9.885659217834473,0.1628057211637497,0.8762778043746948,-2.9449462890625,2.2430419921875,-9.124755859375
17.769999900000002,-9.856928825378418,-0.031124621629714966,0.9888052940368652,-8.056640625,7.9193115234375,-6.7291259765625
17.7899999,-9.928754806518555,-0.31842881441116333,0.9576807022094727,-8.60595703125,9.6435546875,3.570556640625
17.8099999,-9.959878921508789,-0.5770025849342346,0.768538773059845,8.0718994140625,-1.2359619140625,6.8359375
17.8299999,-10.120290756225586,-0.7757213711738586,0.33997663855552673,29.9224853515625,-7.14111328125,4.150390625
17.8499999,-10.15141487121582,-0.7134721279144287,0.05506663769483566,38.116455078125,-12.26806640625,3.173828125
17.8699999,-10.120290756225586,-0.3734954595565796,0.07661445438861847,26.30615234375,-16.1590576171875,0.4730224609375
17.8899999,-10.06043529510498,0.16998831927776337,0.6320692300796509,4.5928955078125,-11.7950439453125,-4.669189453125
17.909999900000003,-9.751583099365234,0.7015010714530945,1.4317326545715332,-26.4892578125,1.953125,-10.9100341796875
17.929999900000002,-9.658209800720215,0.8643068075180054,2.123656988143921,-52.5360107421875,20.538330078125,-11.7340087890625
17.9499999,-9.569623947143555,0.5841852426528931,2.300827741622925,-50.048828125,23.7274169921875,-2.4261474609375
17.9699999,-9.674968719482422,-0.12689268589019775,1.7741034030914307,-19.71435546875,12.26806640625,5.645751953125
17.9899999,-9.95748519897461,-0.8738836050033569,0.6967126727104187,21.240234375,1.9378662109375,5.2947998046875
18.0099999,-10.156203269958496,-1.3120225667953491,-0.33279404044151306,53.009033203125,-9.4757080078125,8.1329345703125
18.0299999,-10.266336441040039,-1.2521674633026123,-0.9217676520347595,53.2989501953125,-20.3704833984375,4.6844482421875
18.0499999,-10.29746150970459,-0.5985504388809204,-0.6368576288223267,32.3028564453125,-20.1568603515625,-2.9144287109375
18.0699999,-9.971850395202637,0.18914192914962769,0.3758896589279175,-5.2337646484375,-9.490966796875,-8.1787109375
18.089999900000002,-9.785101890563965,0.8212111592292786,1.5897499322891235,-48.76708984375,12.451171875,-10.3302001953125
18.109999900000002,-9.617507934570312,0.9457096457481384,2.3750481605529785,-63.9190673828125,23.6053466796875,-3.4637451171875
18.1299999,-9.593565940856934,0.5578489899635315,2.5234885215759277,-39.2608642578125,17.242431640625,2.8533935546875
18.1499999,-9.782708168029785,-0.11252748221158981,1.7812861204147339,-8.36181640625,9.3994140625,2.3193359375
18.1699999,-10.031704902648926,-0.7015010714530945,0.6991068720817566,18.4478759765625,6.1187744140625,5.1116943359375
18.1899999,-10.105925559997559,-0.912190854549408,-0.23942017555236816,29.510498046875,-6.9122314453125,7.1563720703125
18.2099999,-10.20887565612793,-0.667982280254364,-0.5123591423034668,22.52197265625,-16.143798828125,-3.0364990234375
18.2299999,-10.022128105163574,-0.33997663855552673,-0.09576806426048279,-7.4615478515625,-8.880615234375,-5.6304931640625
18.249999900000002,-9.950302124023438,-0.016759412363171577,0.5985504388809204,-38.9862060546875,13.6871337890625,-5.157470703125
18.269999900000002,-9.775525093078613,0.11971008777618408,1.3048399686813354,-32.3028564453125,12.908935546875,5.340576171875
18.2899999,-9.75637149810791,-0.11252748221158981,1.3551181554794312,-20.172119140625,5.4931640625,5.3253173828125
18.3099999,-9.86650562286377,-0.28969839215278625,1.2282254695892334,-2.593994140625,-1.4495849609375,0.3204345703125
18.3299999,-9.907206535339355,-0.6129156351089478,0.8571242094039917,6.500244140625,4.0130615234375,1.2969970703125
18.3499999,-10.022128105163574,-0.6560112833976746,0.6368576288223267,10.650634765625,4.1046142578125,6.805419921875
18.3699999,-10.156203269958496,-0.5363011956214905,0.35673606395721436,5.1422119140625,1.4190673828125,9.0789794921875
18.3899999,-10.093954086303711,-0.2801215946674347,0.13407529890537262,7.965087890625,-7.6751708984375,2.0904541015625
18.409999900000003,-10.137049674987793,0.05506663769483566,0.0694318488240242,17.2271728515625,-14.7705078125,-8.270263671875
18.429999900000002,-9.96945571899414,0.21787235140800476,0.40701428055763245,20.56884765625,-11.7645263671875,-12.7105712890625
18.4499999,-9.864110946655273,0.1867477297782898,0.9768342971801758,0.0152587890625,3.7078857421875,-8.331298828125
18.4699999,-9.75637149810791,0.05746084079146385,1.5969325304031372,-19.500732421875,17.333984375,1.953125
18.4899999,-9.761159896850586,-0.2082955539226532,1.7741034030914307,-16.7388916015625,16.845703125,9.9334716796875
18.5099999,-9.890447616577148,-0.4381389021873474,1.3718775510787964,3.570556640625,5.706787109375,6.89697265625
18.5299999,-10.101137161254883,-0.5219359993934631,0.6105214357376099,26.4739990234375,-2.13623046875,2.1820068359375
18.5499999,-10.216058731079102,-0.4596867263317108,-0.05985504388809204,34.6832275390625,-9.6435546875,0.7781982421875
18.5699999,-10.261548042297363,-0.16998831927776337,-0.3256114423274994,25.787353515625,-14.4500732421875,-1.9989013671875
18.589999900000002,-10.139444351196289,0.12928688526153564,-0.10055647045373917,4.8370361328125,-12.2528076171875,-3.265380859375
18.609999900000002,-9.983820915222168,0.4381389021873474,0.608127236366272,-15.6707763671875,-7.7056884765625,-5.0506591796875
18.6299999,-9.727641105651855,0.5434837937355042,1.4939818382263184,-34.9578857421875,3.692626953125,-7.4462890625
18.6499999,-9.674968719482422,0.3926490843296051,2.1571757793426514,-52.398681640625,21.8963623046875,-9.979248046875
18.6699999,-9.636661529541016,0.0071826050989329815,2.3104045391082764,-43.9910888671875,30.181884765625,-0.9918212890625
18.6899999,-9.773131370544434,-0.5099649429321289,1.6927006244659424,-14.0380859375,20.1263427734375,9.46044921875
18.7099999,-10.02691650390625,-1.0007762908935547,0.5051765441894531,24.444580078125,2.0751953125,7.232666015625
18.7299999,-10.295066833496094,-1.1492167711257935,-0.811634361743927,54.473876953125,-11.3983154296875,6.134033203125
18.749999900000002,-10.448296546936035,-0.9552865028381348,-1.6543933153152466,62.4237060546875,-25.787353515625,4.486083984375
18.769999900000002,-10.45547866821289,-0.42377370595932007,-1.7501614093780518,53.375244140625,-34.8663330078125,-1.9683837890625
18.7899999,-10.32858657836914,0.2561795711517334,-0.9696516990661621,32.5164794921875,-32.3486328125,-8.1787109375
18.8099999,-10.031704902648926,0.7206547260284424,0.2346317619085312,4.7760009765625,-24.23095703125,-12.1917724609375
18.8299999,-9.770736694335938,1.015141487121582,1.7334020137786865,-16.90673828125,-13.671875,-13.1988525390625
18.8499999,-9.550470352172852,0.8523358106613159,2.7916390895843506,-34.85107421875,1.8310546875,-11.4898681640625
18.8699999,-9.461885452270508,0.3519476354122162,3.19865345954895,-35.980224609375,15.594482421875,-8.3770751953125
18.8899999,-9.514557838439941,-0.3256114423274994,2.827552318572998,-12.664794921875,12.969970703125,-0.732421875
18.909999900000003,-9.677363395690918,-1.0247182846069336,1.867477297782898,12.115478515625,2.0599365234375,3.7384033203125
18.929999900000002,-9.852140426635742,-1.4293384552001953,0.8571242094039917,28.411865234375,-4.9896240234375,7.38525390625
18.9499999,-9.981427192687988,-1.3646949529647827,0.2801215946674347,21.1181640625,-9.124755859375,10.07080078125
18.9699999,-10.002974510192871,-0.9217676520347595,0.28730419278144836,-9.124755859375,-9.8114013671875,8.7127685546875
18.9899999,-9.96945571899414,-0.31842881441116333,0.629675030708313,-33.4320068359375,-6.5460205078125,4.180908203125
19.0099999,-9.931148529052734,0.14365209639072418,0.9792284965515137,-36.1480712890625,-5.0201416015625,0.335693359375
19.0299999,-9.923966407775879,0.3519476354122162,1.1516109704971313,-22.857666015625,-7.3394775390625,-1.0833740234375
19.0499999,-9.919178009033203,0.29209262132644653,1.2210428714752197,-4.69970703125,-7.568359375,-1.1444091796875
19.0699999,-9.907206535339355,0.07661445438861847,1.3311761617660522,5.2642822265625,-0.8697509765625,-1.46484375
19.089999900000002,-9.919178009033203,-0.22744916379451752,1.6352397203445435,6.0272216796875,9.0179443359375,0.7781982421875
19.109999900000002,-9.888052940368652,-0.1149216815829277,1.5729905366897583,-0.457763671875,11.04736328125,4.0130615234375
19.1299999,-9.883264541625977,-0.19153612852096558,1.558625340461731,10.4522705078125,8.72802734375,-6.65283203125
19.1499999,-9.919178009033203,0.07422025501728058,1.1348515748977661,28.289794921875,8.7127685546875,-16.0369873046875
19.1699999,-9.926360130310059,0.1173158809542656,0.7924807667732239,32.684326171875,7.049560546875,-13.214111328125
19.1899999,-9.967061996459961,0.043095629662275314,0.6224924325942993,18.341064453125,1.922607421875,-10.31494140625
19.2099999,-9.99339771270752,-0.13407529890537262,0.5889736413955688,1.678466796875,-1.434326171875,-7.7056884765625
19.2299999,-9.986215591430664,-0.35434186458587646,0.6943184733390808,-11.2762451171875,-3.4942626953125,-3.7384033203125
19.249999900000002,-9.962273597717285,-0.646434485912323,0.8786720037460327,-4.9285888671875,-0.1373291015625,-0.335693359375
19.269999900000002,-9.93354320526123,-0.8954314589500427,1.091755986213684,5.5999755859375,4.8065185546875,4.425048828125
19.2899999,-9.890447616577148,-1.036689281463623,1.2545616626739502,4.7607421875,6.7901611328125,9.9334716796875
19.3099999,-9.86650562286377,-0.9672574996948242,1.3287819623947144,5.3253173828125,7.8887939453125,9.124755859375
19.3299999,-9.856928825378418,-0.7398083209991455,1.3263877630233765,6.744384765625,6.866455078125,4.7454833984375
19.3499999,-9.86889934539795,-0.42616790533065796,1.280897855758667,8.3465576171875,7.1563720703125,3.1280517578125
19.3699999,-9.890447616577148,-0.1412578970193863,1.2425906658172607,8.2244873046875,8.3160400390625,3.814697265625
19.3899999,-9.931148529052734,0.07182604819536209,1.2497732639312744,5.8746337890625,9.33837890625,2.899169921875
19.409999900000003,-9.916783332824707,0.18914192914962769,1.2497732639312744,1.7242431640625,11.688232421875,-0.9307861328125
19.429999900000002,-9.928754806518555,0.2513911724090576,1.2210428714752197,-0.7781982421875,13.916015625,-2.99072265625
19.4499999,-9.9000244140625,0.17238251864910126,1.091755986213684,-1.190185546875,14.6026611328125,-2.0751953125
19.4699999,-9.947908401489258,-0.011971008032560349,0.849941611289978,4.4097900390625,13.2293701171875,-3.0517578125
19.4899999,-10.007762908935547,-0.2059013396501541,0.5889736413955688,14.6331787109375,7.8582763671875,-3.96728515625
19.5099999,-10.134655952453613,-0.40701428055763245,0.29209262132644653,15.228271484375,6.1798095703125,-0.091552734375
19.5299999,-10.201693534851074,-0.5434837937355042,0.05506663769483566,15.7623291015625,5.3253173828125,2.9296875
19.5499999,-10.27591323852539,-0.5051765441894531,0.019153613597154617,18.6309814453125,-0.91552734375,3.814697265625
19.5699999,-10.225635528564453,-0.4357447028160095,0.10295066982507706,13.641357421875,-3.0517578125,-1.2359619140625
19.589999900000002,-10.204087257385254,-0.31842881441116333,0.304063618183136,8.9569091796875,1.4190673828125,-1.9989013671875
19.609999900000002,-10.211270332336426,-0.24660277366638184,0.5746083855628967,7.659912109375,0.5340576171875,0.1678466796875
19.6299999,-10.086771965026855,-0.2753331959247589,0.811634361743927,5.5999755859375,-0.54931640625,0.152587890625
19.6499999,-10.251971244812012,-0.19393034279346466,0.9624691009521484,3.11279296875,3.7994384765625,3.9215087890625
19.6699999,-10.232817649841309,-0.15801730751991272,1.0821791887283325,2.13623046875,3.5247802734375,-3.8299560546875
19.6899999,-10.57040023803711,0.009576806798577309,1.1228805780410767,-3.631591796875,4.608154296875,-8.4991455078125
19.7099999,-10.81700325012207,0.10534487664699554,1.0558429956436157,-9.368896484375,6.2713623046875,-11.7340087890625
19.7299999,-11.085153579711914,0.09816227108240128,0.8930372595787048,-9.33837890625,6.5765380859375,-13.3209228515625
19.749999900000002,-11.259930610656738,-0.016759412363171577,0.6177040338516235,-3.5552978515625,7.080078125,-8.6822509765625
19.769999900000002,-11.219228744506836,-0.15801730751991272,0.3711012601852417,7.049560546875,-8.9263916015625,-8.2855224609375
19.7899999,-10.936713218688965,-0.28730419278144836,0.23942017555236816,11.9781494140625,-27.89306640625,-10.55908203125
19.8099999,-10.0580415725708,-0.33039984107017517,0.5602431893348694,10.2081298828125,-0.8087158203125,-6.9580078125
19.8299999,-9.691728591918945,-0.26575639843940735,0.9289502501487732,8.36181640625,-0.579833984375,-5.523681640625
19.8499999,-9.564835548400879,-0.11013327538967133,1.37906014919281,0.0762939453125,-4.150390625,-11.4593505859375
19.8699999,-9.648633003234863,0.016759412363171577,1.6950948238372803,-15.2740478515625,-2.410888671875,-24.8260498046875
19.8899999,-9.818621635437012,0.033518824726343155,1.9536685943603516,-23.2391357421875,-0.30517578125,-38.8946533203125
19.909999900000003,-9.964667320251465,-0.10773907601833344,1.965639591217041,-20.7672119140625,2.288818359375,-47.149658203125
19.929999900000002,-10.029311180114746,-0.49559974670410156,1.7932571172714233,-14.434814453125,2.1514892578125,-54.2144775390625
