# Time (seconds),Accel_X,Accel_Y,Accel_Z,Gyro_X,Gyro_Y,Gyro_Z
0.0099999,-5.705382823944092,-7.960720539093018,-0.07182604819536209,10.101318359375,-10.1165771484375,89.8590087890625
0.029999900000000003,-6.119579315185547,-7.733271598815918,-0.004788403399288654,10.2691650390625,-6.011962890625,80.0018310546875
0.0499999,-6.536170482635498,-7.508216381072998,0.05027823522686958,9.3841552734375,-6.866455078125,72.998046875
0.0699999,-6.840234279632568,-7.309497833251953,0.09816227108240128,7.720947265625,-10.07080078125,67.8253173828125
0.08999990000000001,-7.000645637512207,-7.1706342697143555,0.1628057211637497,5.4931640625,-7.598876953125,61.553955078125
0.10999990000000001,-7.024587631225586,-7.072471618652344,0.24660277366638184,2.3956298828125,0.1983642578125,58.624267578125
0.1299999,-6.9910688400268555,-7.0126166343688965,0.3232172429561615,-2.197265625,6.072998046875,60.455322265625
0.14999990000000002,-6.976703643798828,-6.959944248199463,0.38067805767059326,-6.1187744140625,6.103515625,60.9283447265625
0.1699999,-7.0557122230529785,-6.914454460144043,0.38307225704193115,-7.7972412109375,7.232666015625,55.755615234375
0.1899999,-7.204153060913086,-6.876147270202637,0.3423708379268646,-8.36181640625,11.871337890625,50.1708984375
0.20999990000000002,-7.433996200561523,-6.842628479003906,0.2513911724090576,-9.0789794921875,13.0767822265625,49.1790771484375
0.2299999,-7.666234016418457,-6.801927089691162,0.12928688526153564,-7.7972412109375,6.134033203125,49.407958984375
0.2499999,-7.898471355438232,-6.737283706665039,0,-4.69970703125,-2.349853515625,48.3245849609375
0.2699999,-8.042123794555664,-6.636727333068848,-0.12210428714752197,-2.5787353515625,-5.1116943359375,49.2401123046875
0.28999990000000003,-8.188169479370117,-6.4834980964660645,-0.22266076505184174,-1.800537109375,-6.8359375,55.4046630859375
0.3099999,-8.276755332946777,-6.287173748016357,-0.2777273952960968,0.3662109375,-10.9710693359375,57.4493408203125
0.3299999,-8.40843677520752,-6.054935932159424,-0.31842881441116333,4.302978515625,-12.5885009765625,50.6439208984375
0.34999990000000003,-8.549694061279297,-5.829881191253662,-0.3208230137825012,7.2784423828125,-10.2386474609375,43.670654296875
0.3699999,-8.712499618530273,-5.621585369110107,-0.3016694188117981,7.843017578125,-6.40869140625,40.618896484375
0.3899999,-8.858546257019043,-5.4444146156311035,-0.23702596127986908,8.3770751953125,-4.0435791015625,34.11865234375
0.40999990000000003,-8.98543930053711,-5.303156852722168,-0.17238251864910126,9.2010498046875,-1.7852783203125,22.3236083984375
0.4299999,-9.05487060546875,-5.154716491699219,-0.08619125932455063,8.30078125,-0.91552734375,12.847900390625
0.4499999,-8.999804496765137,-5.0254292488098145,-0.011971008032560349,5.126953125,1.312255859375,10.5743408203125
0.4699999,-8.815450668334961,-4.912901878356934,0.07182604819536209,1.6326904296875,3.2501220703125,15.5029296875
0.4899999,-8.559270858764648,-4.824316501617432,0.1388636976480484,-2.38037109375,5.8746337890625,26.0009765625
0.5099999,-8.343792915344238,-4.733336925506592,0.1843535304069519,-6.1798095703125,8.4228515625,38.8031005859375
0.5299999,-8.248024940490723,-4.608838081359863,0.19393034279346466,-8.11767578125,6.805419921875,49.4232177734375
0.5499999,-8.29830265045166,-4.441244125366211,0.16759411990642548,-8.23974609375,3.2958984375,54.99267578125
0.5699999,-8.465897560119629,-4.259284973144531,0.12928688526153564,-7.8887939453125,0.8087158203125,58.868408203125
0.5899998999999999,-8.731653213500977,-4.065354347229004,0.07661445438861847,-7.7972412109375,-1.251220703125,62.7593994140625
0.6099998999999999,-9.033323287963867,-3.8953661918640137,0.05267243832349777,-6.8817138671875,-4.4403076171875,62.835693359375
0.6299999,-9.337387084960938,-3.7660791873931885,0.040701430290937424,-5.18798828125,-4.9896240234375,59.4635009765625
0.6499999,-9.624691009521484,-3.6727054119110107,0.040701430290937424,-2.86865234375,-4.9285888671875,55.7708740234375
0.6699999,-9.849745750427246,-3.5889084339141846,0.05506663769483566,-0.0457763671875,-7.8582763671875,50.1861572265625
0.6899999,-9.976638793945312,-3.5194764137268066,0.07900865375995636,2.7923583984375,-10.1165771484375,42.4652099609375
0.7099999,-9.986215591430664,-3.466804027557373,0.1173158809542656,5.401611328125,-9.246826171875,37.8265380859375
0.7299998999999999,-9.93593692779541,-3.3949780464172363,0.1604115068912506,6.927490234375,-9.002685546875,36.9873046875
0.7499998999999999,-9.813833236694336,-3.3207578659057617,0.21547815203666687,8.2855224609375,-9.8419189453125,34.5916748046875
0.7699999,-9.667786598205566,-3.2369606494903564,0.2777273952960968,9.9639892578125,-8.8348388671875,29.78515625
0.7899999,-9.514557838439941,-3.155557870864868,0.33758243918418884,11.1846923828125,-7.9193115234375,27.6031494140625
0.8099999,-9.3828763961792,-3.0382418632507324,0.40462008118629456,11.7645263671875,-8.4075927734375,28.3660888671875
0.8299999,-9.246406555175781,-2.935291290283203,0.47405192255973816,12.39013671875,-9.796142578125,28.7628173828125
0.8499998999999999,-9.117119789123535,-2.829946517944336,0.5602431893348694,11.2457275390625,-12.4664306640625,33.0047607421875
0.8699998999999999,-9.05487060546875,-2.6862943172454834,0.6320692300796509,8.1787109375,-13.3056640625,41.6412353515625
0.8899999,-9.033323287963867,-2.5282769203186035,0.706289529800415,5.0811767578125,-16.17431640625,45.8221435546875
0.9099999,-9.08838939666748,-2.3487119674682617,0.7781155705451965,1.434326171875,-17.425537109375,44.8150634765625
0.9299999,-9.255983352661133,-2.142810583114624,0.8164227604866028,-2.1209716796875,-14.6484375,42.90771484375
0.9499999,-9.473855972290039,-1.9297266006469727,0.8451532125473022,-4.608154296875,-14.251708984375,38.51318359375
0.9699998999999999,-9.691728591918945,-1.7501614093780518,0.849941611289978,-6.53076171875,-13.73291015625,29.449462890625
0.9899998999999999,-9.890447616577148,-1.6136919260025024,0.8236053586006165,-8.11767578125,-10.19287109375,20.44677734375
1.0099999,-10.046070098876953,-1.525106430053711,0.7876923680305481,-8.8958740234375,-7.2784423828125,14.4805908203125
1.0299999,-10.127472877502441,-1.501164436340332,0.7422025203704834,-9.2010498046875,-3.41796875,9.33837890625
1.0499999,-10.134655952453613,-1.522712230682373,0.689530074596405,-9.0789794921875,2.62451171875,6.591796875
1.0699999,-10.08198356628418,-1.5490485429763794,0.6224924325942993,-8.819580078125,6.591796875,8.48388671875
1.0899999,-9.974244117736816,-1.556231141090393,0.5267243981361389,-7.87353515625,6.6680908203125,11.993408203125
1.1099999,-9.852140426635742,-1.5298948287963867,0.42616790533065796,-5.4168701171875,4.5318603515625,15.4571533203125
1.1299999,-9.77791976928711,-1.45806884765625,0.3232172429561615,-2.6702880859375,4.425048828125,18.4783935546875
1.1499999,-9.792284965515137,-1.3742717504501343,0.26336219906806946,-0.4730224609375,2.50244140625,20.69091796875
1.1699998999999999,-9.926360130310059,-1.278503656387329,0.2513911724090576,0.9002685546875,-0.5645751953125,22.308349609375
1.1899998999999999,-10.156203269958496,-1.2042834758758545,0.2968810200691223,2.3345947265625,-5.2337646484375,22.186279296875
1.2099999,-10.457873344421387,-1.1444283723831177,0.38307225704193115,2.62451171875,-10.07080078125,19.378662109375
1.2299999,-10.737994194030762,-1.1085153818130493,0.4836287498474121,1.312255859375,-10.80322265625,12.63427734375
1.2499999,-10.931924819946289,-1.115697979927063,0.5793967843055725,-0.579833984375,-8.026123046875,3.448486328125
1.2699999,-11.010933876037598,-1.1516109704971313,0.646434485912323,-2.6092529296875,-3.60107421875,-3.6163330078125
1.2899999,-10.953473091125488,-1.2066776752471924,0.6775590777397156,-3.753662109375,1.8768310546875,-8.819580078125
1.3099999,-10.790667533874512,-1.2856862545013428,0.667982280254364,-3.90625,8.758544921875,-13.5345458984375
1.3299999,-10.579977035522461,-1.3623007535934448,0.6153098344802856,-3.8909912109375,13.36669921875,-16.326904296875
1.3499999,-10.36449909210205,-1.4413094520568848,0.5291185975074768,-3.4637451171875,11.749267578125,-17.3187255859375
1.3699999,-10.158597946166992,-1.5155296325683594,0.42616790533065796,-2.44140625,5.55419921875,-17.51708984375
1.3899999,-9.945513725280762,-1.5753847360610962,0.33518823981285095,-0.9765625,1.28173828125,-17.15087890625
1.4099999,-9.713275909423828,-1.5945383310317993,0.2849099934101105,0.54931640625,0.885009765625,-14.556884765625
1.4299998999999999,-9.469067573547363,-1.5729905366897583,0.28969839215278625,1.6326904296875,2.899169921875,-9.613037109375
1.4499999,-9.279925346374512,-1.5059528350830078,0.33997663855552673,2.685546875,4.425048828125,-4.7454833984375
1.4699999,-9.193734169006348,-1.41257905960083,0.4213795065879822,3.1585693359375,4.0130615234375,-2.7923583984375
1.4899999,-9.251194953918457,-1.314416766166687,0.5123591423034668,2.1820068359375,2.38037109375,-2.5634765625
1.5099999,-9.402029991149902,-1.235408067703247,0.608127236366272,0.0457763671875,0.244140625,-3.3416748046875
1.5299999,-9.59835433959961,-1.1971008777618408,0.6823474764823914,-3.60107421875,0.2899169921875,-4.7149658203125
1.5499999,-9.765948295593262,-1.192312479019165,0.7230489253997803,-6.866455078125,2.6092529296875,-6.0272216796875
1.5699999,-9.883264541625977,-1.278503656387329,0.6607996821403503,-8.1787109375,8.7127685546875,-7.32421875
1.5899999,-9.840168952941895,-1.3431471586227417,0.5770025849342346,-6.072998046875,6.866455078125,-6.072998046875
1.6099999,-9.77791976928711,-1.400607943534851,0.48602294921875,-4.6539306640625,2.197265625,-4.119873046875
1.6299999,-9.720458984375,-1.4437036514282227,0.4141969084739685,-4.6234130859375,-1.3885498046875,-2.86865234375
1.6499999,-9.667786598205566,-1.4700398445129395,0.37828385829925537,-5.3253173828125,-1.4190673828125,-1.5411376953125
1.6699999,-9.63187313079834,-1.4724340438842773,0.3758896589279175,-5.9814453125,2.3193359375,0.2288818359375
1.6899998999999999,-9.624691009521484,-1.455674648284912,0.3974374830722809,-6.5460205078125,5.8135986328125,0.8087158203125
1.7099999,-9.643844604492188,-1.436521053314209,0.40701428055763245,-5.2032470703125,4.39453125,-0.4730224609375
1.7299999,-9.670180320739746,-1.4269442558288574,0.40940847992897034,-1.708984375,-2.2430419921875,-1.2054443359375
1.7499999,-9.691728591918945,-1.4389152526855469,0.40462008118629456,0.0457763671875,-4.9896240234375,1.922607421875
1.7699999,-9.694122314453125,-1.455674648284912,0.3998316824436188,1.1749267578125,-3.6773681640625,6.2255859375
1.7899999,-9.670180320739746,-1.4508862495422363,0.4213795065879822,3.0975341796875,-6.3629150390625,8.9569091796875
1.8099999,-9.643844604492188,-1.400607943534851,0.4692635238170624,2.227783203125,-9.0179443359375,10.3759765625
1.8299999,-9.62947940826416,-1.3215993642807007,0.5363011956214905,-0.3814697265625,-4.57763671875,11.474609375
1.8499999,-9.672574996948242,-1.2042834758758545,0.6153098344802856,-1.03759765625,0.762939453125,10.5133056640625
1.8699999,-9.773131370544434,-1.0821791887283325,0.689530074596405,-1.708984375,1.28173828125,5.92041015625
1.8899999,-9.926360130310059,-0.9840168952941895,0.7541735172271729,-5.2032470703125,0.1678466796875,2.4871826171875
1.9099999,-10.079588890075684,-0.9193734526634216,0.790086567401886,-9.4451904296875,2.5177001953125,3.3416748046875
1.9299998999999999,-10.18493366241455,-0.9050082564353943,0.8092401623725891,-9.5672607421875,5.2032470703125,6.4697265625
1.9499999,-10.524910926818848,-0.8092401623725891,0.8355764150619507,-6.6986083984375,2.0751953125,8.11767578125
1.9699999,-10.678139686584473,-0.8140285611152649,0.8068459630012512,-6.7901611328125,-8.087158203125,7.8277587890625
1.9899999,-10.922348022460938,-0.6943184733390808,0.7589619159698486,-6.011962890625,-8.4381103515625,11.9781494140625
2.0099999,-10.821791648864746,-0.6655880808830261,0.6775590777397156,0.2593994140625,-9.7198486328125,10.2996826171875
2.0299999,-10.524910926818848,-0.6799532771110535,0.6129156351089478,2.8839111328125,-9.979248046875,7.2174072265625
2.0499999,-10.141838073730469,-0.7805097699165344,0.5889736413955688,0.5035400390625,-8.331298828125,6.34765625
2.0699999,-9.847352027893066,-0.9528923034667969,0.6320692300796509,-0.3662109375,-7.6446533203125,7.26318359375
2.0899999,-9.6989107131958,-1.1755530834197998,0.7326257228851318,-0.48828125,-6.4849853515625,10.345458984375
2.1099999,-9.658209800720215,-1.3503297567367554,0.8619126081466675,-2.86865234375,-3.7078857421875,13.671875
2.1299999,-9.696516990661621,-1.4700398445129395,0.9696516990661621,-3.387451171875,-1.46484375,16.3116455078125
2.1499999,-9.718064308166504,-1.4317326545715332,1.0414776802062988,-1.2969970703125,-1.129150390625,18.768310546875
2.1699999,-9.775525093078613,-1.3455413579940796,1.0558429956436157,2.4261474609375,-2.5787353515625,16.29638671875
2.1899999,-9.828198432922363,-1.094150185585022,0.9864110946655273,3.173828125,-3.8909912109375,14.5721435546875
2.2099999,-9.8784761428833,-0.8451532125473022,0.9026140570640564,5.4473876953125,-1.312255859375,15.80810546875
2.2299999,-9.919178009033203,-0.5722141861915588,0.8188169598579407,7.4615478515625,-2.0751953125,14.129638671875
2.2499999,-9.93593692779541,-0.35913026332855225,0.790086567401886,4.1656494140625,-1.1749267578125,13.8092041015625
2.2699999,-9.928754806518555,-0.22026655077934265,0.8140285611152649,-0.5645751953125,0.4119873046875,13.4735107421875
2.2899999,-9.914389610290527,-0.15801730751991272,0.8738836050033569,-3.570556640625,1.28173828125,11.627197265625
2.3099999,-9.926360130310059,-0.1604115068912506,0.9361328482627869,-7.2784423828125,2.4871826171875,10.1776123046875
2.3299999,-9.99100399017334,-0.21308395266532898,0.9672574996948242,-11.474609375,3.96728515625,10.6964111328125
2.3499999,-10.077195167541504,-0.28730419278144836,0.9409212470054626,-12.9547119140625,4.3792724609375,12.1917724609375
2.3699999,-10.211270332336426,-0.3663128614425659,0.8762778043746948,-9.796142578125,2.593994140625,13.153076171875
2.3899999,-10.287884712219238,-0.5171475410461426,0.8307880163192749,-3.2501220703125,-4.730224609375,6.4849853515625
2.4099999,-10.228029251098633,-0.6847416758537292,0.8595184087753296,-1.220703125,-17.3187255859375,-7.476806640625
2.4299999,-10.122684478759766,-0.9433154463768005,1.0558429956436157,-1.373291015625,-27.3284912109375,-9.9639892578125
2.4499999,-9.876082420349121,-1.2258312702178955,1.3910311460494995,-2.899169921875,-35.552978515625,-10.7421875
2.4699999,-9.701305389404297,-1.4269442558288574,1.8052281141281128,-7.7972412109375,-34.027099609375,-5.523681640625
2.4899999,-9.59835433959961,-1.4963760375976562,2.209848165512085,-9.613037109375,-23.6968994140625,2.777099609375
2.5099999,-9.5408935546875,-1.3287819623947144,2.516305923461914,-10.009765625,-3.8909912109375,11.7034912109375
2.5299999,-9.528923034667969,-0.9241618514060974,2.580949544906616,-10.55908203125,13.519287109375,22.186279296875
2.5499999,-9.548076629638672,-0.36152446269989014,2.403778553009033,-12.847900390625,26.1383056640625,27.9083251953125
2.5699999,-9.567230224609375,0.2849099934101105,1.9177556037902832,-12.8326416015625,40.0390625,27.5115966796875
2.5899999,-9.667786598205566,0.8738836050033569,1.213860273361206,-9.5062255859375,42.9534912109375,27.7557373046875
2.6099999,-9.804255485534668,1.3192051649093628,0.3974374830722809,-6.7291259765625,34.210205078125,20.6756591796875
2.6299999,-9.981427192687988,1.525106430053711,-0.3447650372982025,-2.86865234375,20.7977294921875,9.82666015625
2.6499999,-10.129867553710938,1.5107412338256836,-0.8475474119186401,-1.03759765625,9.58251953125,2.44140625
2.6699999,-10.225635528564453,1.314416766166687,-1.0558429956436157,-0.640869140625,3.1890869140625,-0.4119873046875
2.6899999,-10.249577522277832,1.036689281463623,-0.9576807022094727,-0.0152587890625,0.3509521484375,-1.5716552734375
2.7099999,-10.17296314239502,0.7852981686592102,-0.7158663272857666,0.030517578125,2.01416015625,-1.068115234375
2.7299999,-10.089165687561035,0.5554547905921936,-0.40940847992897034,1.9073486328125,6.3934326171875,1.708984375
2.7499999,-9.964667320251465,0.38546648621559143,-0.1628057211637497,4.608154296875,4.6539306640625,3.1280517578125
2.7699999,-9.945513725280762,0.22026655077934265,0.0454898327589035,6.7596435546875,5.0506591796875,5.4779052734375
2.7899999,-9.962273597717285,0.08858546614646912,0.20111294090747833,9.9029541015625,3.0517578125,8.514404296875
2.8099999,-10.012551307678223,0.002394201699644327,0.3280056416988373,13.36669921875,-5.3863525390625,11.2762451171875
2.8299999,-10.007762908935547,-0.05027823522686958,0.45250412821769714,15.56396484375,-12.63427734375,7.8582763671875
2.8499999,-10.000580787658691,-0.08619125932455063,0.6177040338516235,16.571044921875,-10.223388671875,4.4708251953125
2.8699999,-9.945513725280762,-0.10055647045373917,0.8475474119186401,16.54052734375,-6.1492919921875,3.35693359375
2.8899999,-9.895236015319824,-0.12210428714752197,1.1180921792984009,12.908935546875,-7.9498291015625,1.89208984375
2.9099999,-9.852140426635742,-0.14365209639072418,1.4053963422775269,6.591796875,-9.3231201171875,-1.3885498046875
2.9299999,-9.835380554199219,-0.19153612852096558,1.6352397203445435,1.2664794921875,-3.265380859375,-2.3193359375
2.9499999,-9.732429504394531,-0.15083470940589905,1.7764976024627686,-3.082275390625,-0.7781982421875,0.0457763671875
2.9699999,-9.75637149810791,-0.05985504388809204,1.8171991109848022,-9.8876953125,8.087158203125,9.5672607421875
2.9899999,-9.742006301879883,0.1364694982767105,1.6950948238372803,-15.625,13.5955810546875,10.3302001953125
3.0099999,-9.797073364257812,0.43095630407333374,1.4269442558288574,-16.387939453125,14.2822265625,5.7525634765625
3.0299999,-9.890447616577148,0.7086837291717529,1.048660397529602,-13.6871337890625,12.4053955078125,0.6866455078125
3.0499999,-9.995792388916016,0.9265560507774353,0.6488286852836609,-9.063720703125,8.9874267578125,-3.4637451171875
3.0699999,-10.077195167541504,0.9840168952941895,0.3064578175544739,-4.2724609375,5.43212890625,-6.4849853515625
3.0899999,-10.11550235748291,0.8762778043746948,0.10295066982507706,-0.732421875,2.593994140625,-7.8125
3.1099999,-10.125079154968262,0.6560112833976746,0.05267243832349777,1.2054443359375,0.3509521484375,-7.26318359375
3.1299999,-10.103530883789062,0.35913026332855225,0.12689268589019775,3.326416015625,-0.6866455078125,-5.767822265625
3.1499999,-10.08198356628418,0.06464344263076782,0.26575639843940735,5.523681640625,-0.42724609375,-3.4027099609375
3.1699999,-10.055646896362305,-0.16998831927776337,0.38067805767059326,5.37109375,-0.9613037109375,-0.244140625
3.1899999,-10.038887977600098,-0.31124621629714966,0.4908113479614258,3.265380859375,-2.3651123046875,3.173828125
3.2099999,-10.012551307678223,-0.3495534360408783,0.5386953949928284,1.434326171875,-3.082275390625,6.9732666015625
3.2299999,-10.000580787658691,-0.2801215946674347,0.5554547905921936,1.434326171875,-3.143310546875,8.819580078125
3.2499999,-9.998186111450195,-0.11252748221158981,0.5267243981361389,3.1890869140625,-4.241943359375,8.7127685546875
3.2699999,-9.988609313964844,0.1149216815829277,0.4620809257030487,5.6610107421875,-6.988525390625,7.7056884765625
3.2899999,-9.979032516479492,0.3687070608139038,0.395043283700943,6.5765380859375,-10.040283203125,5.37109375
3.3099999,-9.964667320251465,0.6129156351089478,0.3495534360408783,6.65283203125,-11.749267578125,1.9378662109375
3.3299999000000002,-9.962273597717285,0.7733271718025208,0.37828385829925537,8.056640625,-12.908935546875,-0.30517578125
3.3499999,-9.959878921508789,0.8092401623725891,0.4692635238170624,7.720947265625,-13.824462890625,-0.885009765625
3.3699999,-9.945513725280762,0.7206547260284424,0.6057330369949341,5.8135986328125,-14.0533447265625,-0.1068115234375
3.3899999,-9.916783332824707,0.5578489899635315,0.7398083209991455,5.950927734375,-13.36669921875,0.396728515625
3.4099999,-9.885659217834473,0.40222588181495667,0.9265560507774353,8.7890625,-12.2528076171875,0.0152587890625
3.4299999,-9.84495735168457,0.31364041566848755,1.158793568611145,10.31494140625,-10.6353759765625,0.640869140625
3.4499999,-9.81143856048584,0.31603461503982544,1.3934253454208374,6.5460205078125,-4.8675537109375,1.6937255859375
3.4699999,-9.794678688049316,0.38546648621559143,1.6089035272598267,1.0223388671875,1.0223388671875,1.6937255859375
3.4899999,-9.78989028930664,0.47405192255973816,1.7573440074920654,-4.6539306640625,5.5999755859375,1.312255859375
3.5099999,-9.78989028930664,0.5578489899635315,1.7501614093780518,-8.880615234375,10.1470947265625,1.3275146484375
3.5299999,-9.806650161743164,0.5722141861915588,1.601720929145813,-10.4217529296875,11.16943359375,0.18310546875
3.5499999,-9.837775230407715,0.5746083855628967,1.3527239561080933,-7.1258544921875,8.9263916015625,-1.52587890625
3.5699999,-9.871294021606445,0.5195417404174805,1.0797849893569946,-1.1444091796875,6.1798095703125,-1.8768310546875
3.5899999,-9.907206535339355,0.4644751250743866,0.8547300100326538,0.06103515625,4.791259765625,-1.1444091796875
3.6099999,-9.947908401489258,0.38546648621559143,0.6919242739677429,-0.4425048828125,4.1351318359375,-0.48828125
3.6299999,-9.979032516479492,0.29209262132644653,0.5889736413955688,3.204345703125,2.105712890625,0.42724609375
3.6499999,-9.99100399017334,0.2777273952960968,0.5219359993934631,6.1798095703125,-1.251220703125,2.25830078125
3.6699999,-10.000580787658691,0.26815059781074524,0.5315127968788147,4.5623779296875,-2.2735595703125,3.3721923828125
3.6899999,-9.99339771270752,0.33758243918418884,0.5386953949928284,2.0751953125,-0.7171630859375,2.5634765625
3.7099999,-9.99100399017334,0.3998316824436188,0.6200982332229614,3.326416015625,-0.3662109375,1.8463134765625
3.7299999,-9.962273597717285,0.4644751250743866,0.7637503147125244,2.86865234375,-2.8228759765625,2.655029296875
3.7499999,-9.914389610290527,0.5602431893348694,0.9481038451194763,-1.739501953125,-1.7547607421875,3.3111572265625
3.7699999,-9.854534149169922,0.6488286852836609,1.1468225717544556,-5.523681640625,3.9520263671875,1.2969970703125
3.7899999,-9.799467086791992,0.8092401623725891,1.3048399686813354,-7.99560546875,7.87353515625,-1.5869140625
3.8099999,-9.797073364257812,0.8810662031173706,1.3718775510787964,-11.5509033203125,9.3994140625,-3.4637451171875
3.8299999000000002,-9.813833236694336,0.8906430602073669,1.3120225667953491,-13.4429931640625,11.962890625,-4.5166015625
3.8499999,-9.873687744140625,0.7805097699165344,1.1252747774124146,-7.8582763671875,13.336181640625,-7.14111328125
3.8699999,-9.945513725280762,0.5482721924781799,0.8619126081466675,1.953125,7.5225830078125,-9.185791015625
3.8899999,-10.012551307678223,0.2968810200691223,0.5267243981361389,9.368896484375,-0.3662109375,-7.0037841796875
3.9099999,-10.062829971313477,0.09816227108240128,0.2801215946674347,13.24462890625,-5.1116943359375,-3.143310546875
3.9299999,-10.089165687561035,0.014365210197865963,0.1843535304069519,14.6636962890625,-5.9967041015625,-0.9002685546875
3.9499999,-10.079588890075684,0.07900865375995636,0.22744916379451752,13.641357421875,-5.0811767578125,-0.54931640625
3.9699999,-10.043676376342773,0.17956513166427612,0.3519476354122162,10.92529296875,-5.0506591796875,-0.18310546875
3.9899999,-9.981427192687988,0.31842881441116333,0.47405192255973816,7.598876953125,-5.3863525390625,-0.42724609375
4.0099999,-9.938331604003906,0.4213795065879822,0.5913678407669067,6.5460205078125,-7.354736328125,-2.1820068359375
4.029999900000001,-9.904812812805176,0.4884171485900879,0.7134721279144287,7.3089599609375,-8.819580078125,-3.1280517578125
4.0499999,-9.880870819091797,0.5937620401382446,0.9648633003234863,3.0975341796875,-8.1329345703125,-1.678466796875
4.069999900000001,-9.861717224121094,0.6129156351089478,1.1851298809051514,-5.9661865234375,-1.1749267578125,-0.5950927734375
4.0899999000000005,-9.840168952941895,0.6248866319656372,1.3862427473068237,-10.040283203125,5.3253173828125,-2.74658203125
4.1099999,-9.830592155456543,0.4908113479614258,1.4460978507995605,-10.1165771484375,7.14111328125,-4.6539306640625
4.1299999000000005,-9.86889934539795,0.3232172429561615,1.3048399686813354,-10.2691650390625,3.4942626953125,-2.5634765625
4.1499999,-9.928754806518555,0.1388636976480484,1.05105459690094,-6.927490234375,-0.8392333984375,1.0833740234375
4.1699999000000005,-10.014945983886719,0.011971008032560349,0.6799532771110535,3.448486328125,-5.401611328125,2.105712890625
4.1899999,-10.077195167541504,-0.0071826050989329815,0.4381389021873474,18.4783935546875,-11.0931396484375,1.5411376953125
4.209999900000001,-10.101137161254883,0.038307227194309235,0.2801215946674347,25.9857177734375,-14.2364501953125,2.3956298828125
4.2299999,-10.036493301391602,0.20350714027881622,0.45250412821769714,23.345947265625,-12.0697021484375,1.8310546875
4.249999900000001,-9.952696800231934,0.3663128614425659,0.7661445140838623,15.4571533203125,-8.270263671875,-0.213623046875
4.2699999,-9.840168952941895,0.5961562395095825,1.235408067703247,4.058837890625,-2.655029296875,-1.0528564453125
4.289999900000001,-9.765948295593262,0.768538773059845,1.6112977266311646,-7.9803466796875,3.326416015625,0.4119873046875
4.3099999,-9.746794700622559,0.8092401623725891,1.800439715385437,-14.862060546875,10.1318359375,-0.1068115234375
4.329999900000001,-9.761159896850586,0.7398083209991455,1.7405846118927002,-12.2222900390625,11.7034912109375,-4.1046142578125
4.3499999,-9.81143856048584,0.5410895943641663,1.4724340438842773,-3.082275390625,4.730224609375,-5.5084228515625
4.369999900000001,-9.892841339111328,0.3495534360408783,1.1516109704971313,6.3018798828125,-1.0528564453125,-1.2054443359375
4.3899999,-9.99339771270752,0.2298433631658554,0.8164227604866028,12.9241943359375,-1.495361328125,2.1820068359375
4.409999900000001,-10.053253173828125,0.20111294090747833,0.5841852426528931,17.7154541015625,-0.5340576171875,-1.556396484375
4.4299999,-10.079588890075684,0.22026655077934265,0.4189853072166443,20.660400390625,-6.195068359375,-4.6539306640625
4.449999900000001,-10.0580415725708,0.26815059781074524,0.3064578175544739,21.514892578125,-12.2833251953125,-2.7313232421875
4.4699999,-10.065223693847656,0.2561795711517334,0.21547815203666687,22.857666015625,-14.7247314453125,-2.1209716796875
4.489999900000001,-10.031704902648926,0.21787235140800476,0.181959331035614,28.3203125,-18.4783935546875,-5.5084228515625
4.5099999,-10.036493301391602,0.17717093229293823,0.2944868206977844,33.721923828125,-28.778076171875,-5.2337646484375
4.529999900000001,-9.988609313964844,0.2082955539226532,0.5722141861915588,32.379150390625,-31.219482421875,0.42724609375
4.5499999,-9.914389610290527,0.304063618183136,0.9768342971801758,26.7181396484375,-22.88818359375,3.4637451171875
4.569999900000001,-9.787496566772461,0.49799394607543945,1.5705963373184204,18.5089111328125,-16.9677734375,0
4.5899999000000005,-9.674968719482422,0.7254431247711182,2.1475989818573,2.5177001953125,-10.8795166015625,-0.762939453125
4.609999900000001,-9.567230224609375,0.8403648138046265,2.5929205417633057,-11.6729736328125,1.983642578125,-0.0457763671875
4.6299999000000005,-9.528923034667969,0.849941611289978,2.7940332889556885,-15.3045654296875,11.3525390625,-2.960205078125
4.6499999,-9.583989143371582,0.7230489253997803,2.7317841053009033,-13.519287109375,9.307861328125,-5.3863525390625
4.6699999000000005,-9.674968719482422,0.5099649429321289,2.365471363067627,-9.3994140625,6.34765625,-0.91552734375
4.6899999,-9.821015357971191,0.31603461503982544,1.8483237028121948,-5.462646484375,7.354736328125,4.2572021484375
4.709999900000001,-9.892841339111328,0.15083470940589905,1.3048399686813354,1.4495849609375,3.7689208984375,2.410888671875
4.7299999,-9.96945571899414,0.08140286058187485,0.8954314589500427,9.09423828125,-3.662109375,1.03759765625
4.749999900000001,-10.014945983886719,0.11971008777618408,0.6224924325942993,8.7890625,-5.6915283203125,1.89208984375
4.7699999,-10.02691650390625,0.15801730751991272,0.5793967843055725,10.43701171875,-5.67626953125,0.3204345703125
4.789999900000001,-9.99339771270752,0.24660277366638184,0.7326257228851318,13.3209228515625,-12.5274658203125,-1.7852783203125
4.8099999,-9.911994934082031,0.3711012601852417,1.0678139925003052,6.1798095703125,-14.7247314453125,1.617431640625
4.829999900000001,-9.835380554199219,0.5434837937355042,1.4915876388549805,-2.044677734375,-4.2877197265625,4.21142578125
4.8499999,-9.72285270690918,0.6584054827690125,1.886630892753601,-5.31005859375,3.021240234375,0.3662109375
4.869999900000001,-9.68933391571045,0.7398083209991455,2.142810583114624,-7.4005126953125,0.335693359375,-0.9613037109375
4.8899999,-9.691728591918945,0.7445967197418213,2.1739351749420166,-6.7138671875,4.4097900390625,0.335693359375
4.909999900000001,-9.727641105651855,0.6344634294509888,2.078166961669922,-3.509521484375,10.4522705078125,-2.593994140625
4.9299999,-9.773131370544434,0.5554547905921936,1.900996208190918,-3.3721923828125,4.180908203125,-7.4310302734375
4.949999900000001,-9.797073364257812,0.45010992884635925,1.7142484188079834,-6.3934326171875,-1.068115234375,-2.899169921875
4.9699999,-9.86650562286377,0.3758896589279175,1.5442601442337036,-5.706787109375,5.43212890625,3.4637451171875
4.989999900000001,-9.849745750427246,0.2849099934101105,1.381454348564148,-0.4425048828125,7.0037841796875,1.220703125
5.0099999,-9.888052940368652,0.21547815203666687,1.2066776752471924,0.4730224609375,-1.6937255859375,0.1068115234375
5.029999900000001,-9.926360130310059,0.22266076505184174,1.0797849893569946,1.6632080078125,-4.119873046875,1.1444091796875
5.0499999,-9.964667320251465,0.2561795711517334,1.0223240852355957,7.7362060546875,-0.5645751953125,0.3814697265625
5.069999900000001,-9.96945571899414,0.2968810200691223,1.0821791887283325,7.537841796875,-7.6751708984375,-3.23486328125
5.0899999000000005,-9.93354320526123,0.36152446269989014,1.2186486721038818,1.861572265625,-12.0849609375,-0.701904296875
5.109999900000001,-9.804255485534668,0.44771572947502136,1.5753847360610962,2.0904541015625,-1.190185546875,3.4942626953125
5.1299999000000005,-9.799467086791992,0.49799394607543945,1.7477672100067139,-3.2958984375,-5.6610107421875,2.4566650390625
5.1499999,-9.744400978088379,0.5602431893348694,1.900996208190918,-7.9193115234375,0.640869140625,1.5411376953125
5.1699999000000005,-9.744400978088379,0.5506663918495178,2.0015525817871094,-7.781982421875,9.0789794921875,1.251220703125
5.1899999,-9.720458984375,0.5147533416748047,2.0159177780151367,-6.3323974609375,2.01416015625,-2.5787353515625
5.209999900000001,-9.727641105651855,0.47884035110473633,1.946485996246338,-5.126953125,-2.105712890625,0
5.2299999,-9.801861763000488,0.47405192255973816,1.800439715385437,-2.7313232421875,6.40869140625,4.852294921875
5.249999900000001,-9.804255485534668,0.4644751250743866,1.6136919260025024,0.48828125,7.50732421875,2.8228759765625
5.2699999,-9.861717224121094,0.4836287498474121,1.4197616577148438,1.9989013671875,-3.021240234375,-0.091552734375
5.289999900000001,-9.9000244140625,0.5099649429321289,1.2713210582733154,0.6103515625,-2.86865234375,-1.2054443359375
5.3099999,-9.907206535339355,0.4692635238170624,1.2090718746185303,2.838134765625,3.0364990234375,-1.6937255859375
5.329999900000001,-9.938331604003906,0.4189853072166443,1.2665326595306396,4.8675537109375,-5.1727294921875,-3.5552978515625
5.3499999,-9.907206535339355,0.40222588181495667,1.3527239561080933,0.885009765625,-12.20703125,0.8697509765625
5.369999900000001,-9.890447616577148,0.35673606395721436,1.3910311460494995,1.678466796875,-4.3182373046875,7.293701171875
5.3899999,-9.852140426635742,0.4213795065879822,1.4676456451416016,6.2103271484375,-1.556396484375,3.021240234375
5.409999900000001,-9.837775230407715,0.5147533416748047,1.5083470344543457,7.537841796875,-12.14599609375,-1.007080078125
5.4299999,-9.84256362915039,0.6057330369949341,1.5682021379470825,7.598876953125,-10.3607177734375,-0.8544921875
5.449999900000001,-9.816226959228516,0.6248866319656372,1.6496049165725708,8.3465576171875,-1.8463134765625,-1.8310546875
5.4699999,-9.794678688049316,0.6320692300796509,1.824381709098816,5.096435546875,-6.805419921875,-6.1492919921875
5.489999900000001,-9.696516990661621,0.5746083855628967,1.9943699836730957,-1.5411376953125,-10.2081298828125,-1.922607421875
5.5099999,-9.715670585632324,0.5339069962501526,2.097320795059204,-4.3487548828125,0.6866455078125,4.2877197265625
5.529999900000001,-9.66299819946289,0.569819986820221,2.1499931812286377,-0.9307861328125,6.866455078125,1.2969970703125
5.5499999,-9.730035781860352,0.5626373887062073,2.118868589401245,0.7171630859375,-2.01416015625,-2.0599365234375
5.569999900000001,-9.734824180603027,0.5985504388809204,1.9632453918457031,-0.7171630859375,-2.044677734375,-2.4871826171875
5.5899999000000005,-9.799467086791992,0.545877993106842,1.8076223134994507,-0.1220703125,5.9356689453125,-2.166748046875
5.609999900000001,-9.77791976928711,0.4692635238170624,1.6759412288665771,0.48828125,-0.9613037109375,-6.4544677734375
5.6299999000000005,-9.832986831665039,0.36152446269989014,1.580173134803772,0.640869140625,-10.894775390625,-1.6326904296875
5.6499999,-9.883264541625977,0.3064578175544739,1.4867992401123047,3.4332275390625,-6.8817138671875,3.936767578125
5.6699999000000005,-9.8784761428833,0.26815059781074524,1.4389152526855469,8.575439453125,-2.01416015625,4.669189453125
5.6899999,-9.897629737854004,0.3232172429561615,1.4891934394836426,10.2081298828125,-12.8173828125,2.3345947265625
5.709999900000001,-9.804255485534668,0.44771572947502136,1.6041151285171509,5.615234375,-12.5274658203125,1.0833740234375
5.7299999,-9.765948295593262,0.5051765441894531,1.8124107122421265,0.7171630859375,-1.1444091796875,0.30517578125
5.749999900000001,-9.674968719482422,0.5817909836769104,2.0877439975738525,-2.3193359375,-1.861572265625,-3.570556640625
5.7699999,-9.653421401977539,0.6440402865409851,2.296039342880249,-6.4544677734375,-8.392333984375,-0.54931640625
5.789999900000001,-9.641449928283691,0.6248866319656372,2.382230758666992,-8.697509765625,-1.129150390625,5.0201416015625
5.8099999,-9.66539192199707,0.6488286852836609,2.3295583724975586,-6.317138671875,8.85009765625,5.7373046875
5.829999900000001,-9.708487510681152,0.6057330369949341,2.2146365642547607,-3.9215087890625,-0.4425048828125,1.4495849609375
5.8499999,-9.744400978088379,0.5410895943641663,2.0231003761291504,-1.40380859375,-3.570556640625,0.9613037109375
5.869999900000001,-9.801861763000488,0.4381389021873474,1.8291701078414917,3.5247802734375,2.7923583984375,0.79345703125
5.8899999,-9.792284965515137,0.4189853072166443,1.7525556087493896,7.87353515625,-2.3040771484375,-3.387451171875
5.909999900000001,-9.801861763000488,0.3519476354122162,1.7956513166427612,7.6446533203125,-12.969970703125,-0.1983642578125
5.9299999,-9.765948295593262,0.4381389021873474,1.8986018896102905,3.90625,-6.5765380859375,6.8511962890625
5.949999900000001,-9.751583099365234,0.5554547905921936,2.056619167327881,0.1983642578125,5.9814453125,6.622314453125
5.9699999,-9.6989107131958,0.6943184733390808,2.2002713680267334,-3.7384033203125,1.251220703125,1.2969970703125
5.989999900000001,-9.672574996948242,0.8259995579719543,2.2026655673980713,-8.575439453125,-0.1373291015625,1.4190673828125
6.0099999,-9.679757118225098,0.8259995579719543,2.1284453868865967,-8.48388671875,7.6751708984375,-0.5645751953125
6.029999900000001,-9.684545516967773,0.7158663272857666,2.032677173614502,-2.777099609375,2.74658203125,-5.37109375
6.0499999,-9.749189376831055,0.5219359993934631,1.8770540952682495,2.166748046875,-10.833740234375,-1.4190673828125
6.069999900000001,-9.77791976928711,0.40701428055763245,1.7286136150360107,7.781982421875,-10.3912353515625,6.6680908203125
6.0899999000000005,-9.823410034179688,0.3663128614425659,1.659181833267212,13.5650634765625,-2.227783203125,6.8206787109375
6.109999900000001,-9.804255485534668,0.4429273009300232,1.6903064250946045,12.847900390625,-10.8795166015625,1.5411376953125
6.1299999000000005,-9.761159896850586,0.6943184733390808,1.845929503440857,6.2255859375,-11.383056640625,0.9002685546875
6.149999900000001,-9.742006301879883,0.8092401623725891,2.073378562927246,0.8087158203125,-1.0528564453125,-1.6021728515625
6.1699999000000005,-9.641449928283691,0.9097966551780701,2.4013843536376953,-3.662109375,1.3275146484375,-5.9967041015625
6.1899999,-9.600749015808105,0.8619126081466675,2.652775526046753,-8.9569091796875,-4.5928955078125,-2.5634765625
6.209999900000001,-9.57201862335205,0.7541735172271729,2.7940332889556885,-8.8043212890625,1.2664794921875,3.875732421875
6.2299999,-9.619902610778809,0.6105214357376099,2.7485435009002686,-3.5552978515625,12.3748779296875,5.4473876953125
6.249999900000001,-9.641449928283691,0.6272808313369751,2.6168625354766846,-0.7476806640625,6.988525390625,1.7242431640625
6.2699999,-9.648633003234863,0.7038952708244324,2.3774423599243164,-2.99072265625,3.4332275390625,0.7476806640625
6.289999900000001,-9.713275909423828,0.8259995579719543,2.1068975925445557,-2.44140625,9.8724365234375,-4.486083984375
6.3099999,-9.682151794433594,0.9217676520347595,1.9369091987609863,1.0223388671875,7.62939453125,-12.0391845703125
6.329999900000001,-9.746794700622559,0.8403648138046265,1.800439715385437,1.617431640625,-6.4544677734375,-10.284423828125
6.3499999,-9.77791976928711,0.7182605266571045,1.7357962131500244,4.6539306640625,-6.04248046875,-3.1280517578125
6.369999900000001,-9.821015357971191,0.5506663918495178,1.7405846118927002,10.345458984375,4.119873046875,-0.8392333984375
6.3899999,-9.80904483795166,0.4405331015586853,1.7812861204147339,13.8092041015625,-1.0528564453125,-4.8675537109375
6.409999900000001,-9.806650161743164,0.4213795065879822,1.821987509727478,10.43701171875,-8.6212158203125,-2.1209716796875
6.4299999,-9.794678688049316,0.40462008118629456,1.8626888990402222,7.1868896484375,-2.4871826171875,-1.8463134765625
6.449999900000001,-9.732429504394531,0.40462008118629456,2.006340980529785,5.096435546875,0.457763671875,-5.096435546875
6.4699999,-9.718064308166504,0.3734954595565796,2.183511972427368,-1.0223388671875,-8.697509765625,-2.960205078125
6.489999900000001,-9.68933391571045,0.40701428055763245,2.319981336593628,-6.256103515625,-5.9661865234375,4.7607421875
6.5099999,-9.679757118225098,0.45250412821769714,2.3989901542663574,-5.31005859375,5.401611328125,7.8887939453125
6.529999900000001,-9.643844604492188,0.6248866319656372,2.4181437492370605,-1.5411376953125,2.8076171875,1.6937255859375
6.5499999,-9.641449928283691,0.7589619159698486,2.365471363067627,-1.9683837890625,-2.9296875,-0.1220703125
6.569999900000001,-9.670180320739746,0.8044517636299133,2.248155355453491,-1.953125,3.9520263671875,-2.44140625
6.5899999000000005,-9.646238327026367,0.7326257228851318,2.166752576828003,0.5645751953125,4.5166015625,-5.645751953125
6.609999900000001,-9.727641105651855,0.6248866319656372,2.1116859912872314,1.708984375,-7.232666015625,-4.669189453125
6.6299999000000005,-9.739612579345703,0.5530605912208557,2.0925323963165283,3.5858154296875,-5.859375,0.9002685546875
6.649999900000001,-9.763554573059082,0.5817909836769104,2.10210919380188,6.1187744140625,4.82177734375,2.0751953125
6.6699999000000005,-9.720458984375,0.6943184733390808,2.2026655673980713,6.2713623046875,1.2054443359375,-3.082275390625
6.6899999,-9.696516990661621,0.7757213711738586,2.2457611560821533,4.0283203125,-1.4190673828125,-4.82177734375
6.709999900000001,-9.66539192199707,0.7613561153411865,2.2146365642547607,3.5400390625,5.92041015625,-8.3465576171875
6.7299999,-9.636661529541016,0.6703764796257019,2.2361843585968018,4.5166015625,3.6468505859375,-11.1846923828125
6.749999900000001,-9.706093788146973,0.5051765441894531,2.212242364883423,3.3416748046875,-6.3629150390625,-6.3018798828125
6.7699999,-9.718064308166504,0.3758896589279175,2.2002713680267334,2.44140625,-1.8157958984375,0.6866455078125
6.789999900000001,-9.727641105651855,0.3016694188117981,2.2002713680267334,3.5400390625,7.7667236328125,1.4801025390625
6.8099999,-9.737217903137207,0.3232172429561615,2.1930887699127197,2.25830078125,1.7852783203125,-0.396728515625
6.829999900000001,-9.696516990661621,0.38546648621559143,2.1116859912872314,0.1983642578125,-1.0833740234375,0.06103515625
6.8499999,-9.742006301879883,0.4118026793003082,2.0398597717285156,0.640869140625,4.1046142578125,-2.349853515625
6.869999900000001,-9.6989107131958,0.4357447028160095,2.0446481704711914,1.03759765625,-0.8087158203125,-5.6304931640625
6.8899999,-9.75637149810791,0.4644751250743866,2.0853497982025146,-1.434326171875,-8.6822509765625,1.15966796875
6.909999900000001,-9.75397777557373,0.4405331015586853,2.1284453868865967,-2.25830078125,-1.15966796875,6.4544677734375
6.9299999,-9.708487510681152,0.4908113479614258,2.185906171798706,0.3814697265625,5.92041015625,3.8909912109375
6.949999900000001,-9.727641105651855,0.5099649429321289,2.205059766769409,-0.2288818359375,-0.9002685546875,1.983642578125
6.9699999,-9.703699111938477,0.5219359993934631,2.145204782485962,-1.03759765625,0.48828125,2.655029296875
6.989999900000001,-9.701305389404297,0.5123591423034668,2.140416383743286,0.2899169921875,4.241943359375,-0.5950927734375
7.0099999,-9.696516990661621,0.47165772318840027,2.1380221843719482,-0.701904296875,-3.9215087890625,-3.082275390625
7.029999900000001,-9.715670585632324,0.4596867263317108,2.121262788772583,-0.152587890625,-7.4310302734375,3.814697265625
7.0499999,-9.701305389404297,0.4620809257030487,2.1116859912872314,5.0048828125,0.3204345703125,7.568359375
7.069999900000001,-9.667786598205566,0.5530605912208557,2.140416383743286,8.7127685546875,-0.762939453125,2.0751953125
7.0899999000000005,-9.694122314453125,0.6871358752250671,2.1715409755706787,5.55419921875,-4.33349609375,-1.739501953125
7.109999900000001,-9.660603523254395,0.7398083209991455,2.207453966140747,2.4566650390625,1.8463134765625,-3.47900390625
7.1299999000000005,-9.672574996948242,0.6775590777397156,2.293645143508911,1.0223388671875,3.6468505859375,-5.8746337890625
7.149999900000001,-9.660603523254395,0.5410895943641663,2.3702597618103027,-1.64794921875,-5.0811767578125,-2.0751953125
7.1699999000000005,-9.691728591918945,0.3974374830722809,2.403778553009033,-3.265380859375,-3.2958984375,7.6446533203125
7.1899999,-9.691728591918945,0.3926490843296051,2.4157495498657227,-2.6092529296875,7.5531005859375,8.270263671875
7.209999900000001,-9.703699111938477,0.5434837937355042,2.408566951751709,-2.7618408203125,4.058837890625,1.9073486328125
7.2299999,-9.725247383117676,0.7326257228851318,2.319981336593628,-5.79833984375,1.1138916015625,0.18310546875
7.249999900000001,-9.701305389404297,0.8259995579719543,2.1739351749420166,-3.5247802734375,7.4615478515625,-2.8533935546875
7.2699999,-9.677363395690918,0.790086567401886,2.145204782485962,1.068115234375,3.2958984375,-8.0108642578125
7.289999900000001,-9.677363395690918,0.6775590777397156,2.1284453868865967,1.373291015625,-6.4239501953125,-3.1280517578125
7.3099999,-9.742006301879883,0.5147533416748047,2.1715409755706787,3.173828125,0.6561279296875,6.89697265625
7.329999900000001,-9.751583099365234,0.4908113479614258,2.207453966140747,5.4168701171875,7.99560546875,5.2032470703125
7.3499999,-9.787496566772461,0.5171475410461426,2.1930887699127197,3.509521484375,1.2054443359375,2.2125244140625
7.369999900000001,-9.782708168029785,0.6129156351089478,2.0805611610412598,0.1068115234375,-0.396728515625,1.64794921875
7.3899999,-9.797073364257812,0.6943184733390808,1.9823989868164062,-2.0294189453125,4.180908203125,-1.708984375
7.409999900000001,-9.81143856048584,0.7469909191131592,1.9847931861877441,-3.631591796875,-2.7313232421875,-4.669189453125
7.4299999,-9.773131370544434,0.7541735172271729,2.03507137298584,-6.1798095703125,-9.2926025390625,0.762939453125
7.449999900000001,-9.763554573059082,0.6655880808830261,2.1116859912872314,-6.6986083984375,-0.6256103515625,6.134033203125
7.4699999,-9.607931137084961,0.586579442024231,2.2433669567108154,-4.7454833984375,3.96728515625,2.44140625
7.489999900000001,-9.5624418258667,0.4908113479614258,2.343923568725586,-4.1656494140625,-1.373291015625,3.2196044921875
7.5099999,-9.531316757202148,0.4644751250743866,2.389413356781006,-2.9144287109375,2.3956298828125,4.5623779296875
7.529999900000001,-9.53849983215332,0.5434837937355042,2.4372973442077637,0.0457763671875,9.1552734375,-0.2899169921875
7.5499999,-9.59835433959961,0.6488286852836609,2.3942017555236816,-1.2664794921875,1.8768310546875,-2.716064453125
7.569999900000001,-9.557653427124023,0.8020575642585754,2.27209734916687,-3.936767578125,-1.739501953125,-1.6937255859375
7.5899999000000005,-9.651026725769043,0.8523358106613159,2.140416383743286,-3.41796875,4.8980712890625,-0.152587890625
7.609999900000001,-9.607931137084961,0.8786720037460327,2.0638017654418945,-2.0294189453125,4.180908203125,-5.8441162109375
7.6299999000000005,-9.701305389404297,0.8188169598579407,2.0590133666992188,0.5340576171875,0.3204345703125,-3.0364990234375
7.649999900000001,-9.710882186889648,0.7254431247711182,2.073378562927246,7.8887939453125,3.6468505859375,-3.7841796875
7.6699999000000005,-9.737217903137207,0.5889736413955688,2.0877439975738525,11.3677978515625,3.997802734375,-8.8653564453125
7.6899999,-9.718064308166504,0.4405331015586853,2.1116859912872314,7.8125,-1.6632080078125,-8.056640625
7.709999900000001,-9.715670585632324,0.33997663855552673,2.030282974243164,2.3345947265625,-3.8299560546875,1.220703125
7.7299999,-9.737217903137207,0.26336219906806946,2.0183119773864746,0.9918212890625,2.593994140625,7.232666015625
7.749999900000001,-9.746794700622559,0.24420857429504395,1.9967641830444336,0.6561279296875,0.9613037109375,1.9683837890625
7.7699999,-9.6989107131958,0.35434186458587646,1.968033790588379,-2.5177001953125,-7.3699951171875,2.0294189453125
7.789999900000001,-9.84495735168457,0.4596867263317108,1.946485996246338,-4.0283203125,-1.77001953125,9.8876953125
7.8099999,-9.758766174316406,0.6033388376235962,1.9512743949890137,-0.244140625,-1.3580322265625,1.6326904296875
7.829999900000001,-9.847352027893066,0.7733271718025208,2.011129379272461,-0.9765625,-10.6353759765625,-2.7923583984375
7.8499999,-9.713275909423828,0.8212111592292786,2.073378562927246,-1.7242431640625,-11.9171142578125,0.0457763671875
7.869999900000001,-9.72285270690918,0.8954314589500427,2.22660756111145,-1.0223388671875,-0.2288818359375,6.7901611328125
7.8899999,-9.550470352172852,0.8858546018600464,2.3942017555236816,-1.007080078125,-0.1220703125,-0.9765625
7.909999900000001,-9.560047149658203,0.8906430602073669,2.5713725090026855,-1.7242431640625,-2.410888671875,-5.4168701171875
7.9299999,-9.57441234588623,0.8571242094039917,2.626439332962036,0.42724609375,3.60107421875,-2.9144287109375
7.949999900000001,-9.564835548400879,0.8092401623725891,2.6192567348480225,5.6915283203125,9.5062255859375,-2.9296875
7.9699999,-9.651026725769043,0.7086837291717529,2.4803929328918457,5.9661865234375,1.6632080078125,-8.880615234375
7.989999900000001,-9.732429504394531,0.646434485912323,2.343923568725586,4.058837890625,-3.0059814453125,-10.406494140625
8.0099999,-9.732429504394531,0.6177040338516235,2.2361843585968018,0.9307861328125,-3.1280517578125,-4.913330078125
8.0299999,-9.794678688049316,0.6153098344802856,2.1739351749420166,-4.638671875,3.7689208984375,2.6397705078125
8.049999900000001,-9.725247383117676,0.727837324142456,2.1739351749420166,-2.8533935546875,7.1868896484375,-0.2593994140625
8.069999900000001,-9.68694019317627,0.7805097699165344,2.2912509441375732,-7.9803466796875,1.8310546875,-7.2021484375
8.0899999,-9.643844604492188,0.8259995579719543,2.389413356781006,-23.4527587890625,9.09423828125,-7.843017578125
8.1099999,-9.615114212036133,0.7182605266571045,2.516305923461914,-24.1241455078125,12.481689453125,-7.38525390625
8.129999900000001,-9.651026725769043,0.5123591423034668,2.5043349266052246,-17.7154541015625,9.246826171875,-4.608154296875
8.149999900000001,-9.696516990661621,0.23942017555236816,2.3487119674682617,-6.0882568359375,7.568359375,-0.4730224609375
8.1699999,-9.727641105651855,0.040701430290937424,2.145204782485962,4.7149658203125,6.011962890625,0.4730224609375
8.1899999,-9.739612579345703,-0.021547814831137657,2.0015525817871094,7.8277587890625,3.448486328125,-0.79345703125
8.2099999,-9.742006301879883,0.05985504388809204,1.9129672050476074,8.23974609375,3.4332275390625,-1.52587890625
8.229999900000001,-9.732429504394531,0.21547815203666687,1.9081788063049316,7.0648193359375,4.058837890625,-1.556396484375
8.2499999,-9.742006301879883,0.42616790533065796,1.9057846069335938,5.7525634765625,3.4332275390625,-1.739501953125
8.2699999,-9.732429504394531,0.6703764796257019,1.9081788063049316,5.4779052734375,2.2735595703125,-3.5552978515625
8.2899999,-9.749189376831055,0.8619126081466675,1.824381709098816,2.3345947265625,0.457763671875,-9.21630859375
8.309999900000001,-9.732429504394531,1.0055646896362305,1.7908629179000854,-1.15966796875,-2.716064453125,-13.824462890625
8.3299999,-9.818621635437012,1.0007762908935547,1.6136919260025024,-2.288818359375,-5.18798828125,-14.617919921875
8.3499999,-9.825803756713867,0.8355764150619507,1.5083470344543457,3.0670166015625,-10.7269287109375,-16.05224609375
8.3699999,-9.86650562286377,0.5841852426528931,1.434126853942871,4.0740966796875,-17.76123046875,-14.3280029296875
8.389999900000001,-9.856928825378418,0.3064578175544739,1.5083470344543457,0.9002685546875,-19.4244384765625,-12.0849609375
8.4099999,-9.758766174316406,0.035913024097681046,1.7573440074920654,-2.471923828125,-17.059326171875,-10.3302001953125
8.4299999,-9.68694019317627,-0.13168109953403473,2.1523873805999756,-3.2806396484375,-14.251708984375,-8.5906982421875
8.4499999,-9.588777542114258,-0.24660277366638184,2.58813214302063,-3.1585693359375,-10.009765625,-6.0882568359375
8.469999900000001,-9.528923034667969,-0.31842881441116333,2.9448680877685547,-4.08935546875,-3.387451171875,-4.119873046875
8.4899999,-9.516951560974121,-0.33039984107017517,3.1962592601776123,-4.7760009765625,2.0751953125,-0.5035400390625
8.5099999,-9.488221168518066,-0.31124621629714966,3.3207578659057617,-6.0882568359375,5.2032470703125,2.38037109375
8.5299999,-9.493009567260742,-0.2777273952960968,3.318363666534424,-7.99560546875,9.979248046875,2.899169921875
8.549999900000001,-9.493009567260742,-0.21547815203666687,3.222595453262329,-9.0179443359375,15.106201171875,3.60107421875
8.569999900000001,-9.495404243469238,-0.1604115068912506,3.0550012588500977,-9.7198486328125,17.8680419921875,5.859375
8.5899999,-9.555258750915527,-0.07422025501728058,2.829946517944336,-10.894775390625,18.280029296875,7.2021484375
8.6099999,-9.612719535827637,0.023942016065120697,2.5761611461639404,-13.427734375,19.2718505859375,7.5836181640625
8.629999900000001,-9.682151794433594,0.15801730751991272,2.343923568725586,-16.8914794921875,20.0958251953125,6.9427490234375
8.649999900000001,-9.768342971801758,0.36152446269989014,1.944091796875,-20.5841064453125,17.9595947265625,4.4097900390625
8.6699999,-9.792284965515137,0.3758896589279175,1.7693150043487549,-18.7225341796875,16.0980224609375,2.8839111328125
8.6899999,-9.84256362915039,0.33758243918418884,1.601720929145813,-17.0440673828125,13.4124755859375,2.4871826171875
8.709999900000001,-9.847352027893066,0.22505496442317963,1.501164436340332,-18.2342529296875,8.758544921875,3.41796875
8.729999900000001,-9.871294021606445,0.0933738648891449,1.3838485479354858,-14.16015625,6.1798095703125,4.1961669921875
8.7499999,-9.880870819091797,-0.038307227194309235,1.3048399686813354,-4.608154296875,3.5247802734375,3.7078857421875
8.7699999,-9.90241813659668,-0.10295066982507706,1.2186486721038818,3.509521484375,-1.7547607421875,4.2724609375
8.7899999,-9.916783332824707,-0.13168109953403473,1.1468225717544556,12.3443603515625,-7.8125,4.1351318359375
8.809999900000001,-9.923966407775879,-0.11013327538967133,1.0773907899856567,22.9034423828125,-11.9781494140625,2.86865234375
8.8299999,-9.921571731567383,-0.0694318488240242,1.0582371950149536,34.6527099609375,-16.265869140625,1.8463134765625
8.8499999,-9.909601211547852,-0.014365210197865963,1.1109095811843872,44.6929931640625,-21.8048095703125,2.3040771484375
8.8699999,-9.876082420349121,0.05746084079146385,1.3000515699386597,50.8575439453125,-25.115966796875,3.2196044921875
8.889999900000001,-9.818621635437012,0.14844051003456116,1.577778935432434,53.3599853515625,-23.01025390625,3.2806396484375
8.9099999,-9.732429504394531,0.2777273952960968,1.965639591217041,50.72021484375,-20.050048828125,3.570556640625
8.9299999,-9.639056205749512,0.4381389021873474,2.3558945655822754,42.755126953125,-16.3726806640625,4.8065185546875
8.9499999,-9.564835548400879,0.6248866319656372,2.7222073078155518,29.632568359375,-10.5438232421875,5.4931640625
8.969999900000001,-9.512163162231445,0.811634361743927,3.0142998695373535,10.80322265625,-4.57763671875,5.0201416015625
8.9899999,-9.478644371032715,0.9768342971801758,3.2130186557769775,0.6561279296875,1.617431640625,3.692626953125
9.0099999,-9.466673851013184,1.0965443849563599,3.270479440689087,-3.4637451171875,7.32421875,1.953125
9.0299999,-9.495404243469238,1.1348515748977661,3.181894063949585,-9.0179443359375,11.6424560546875,-0.30517578125
9.049999900000001,-9.560047149658203,1.094150185585022,2.9735984802246094,-13.397216796875,13.763427734375,-1.220703125
9.069999900000001,-9.627084732055664,0.993593692779541,2.6886885166168213,-13.7939453125,14.2822265625,-1.007080078125
9.0899999,-9.68933391571045,0.8738836050033569,2.387019157409668,-14.2669677734375,13.73291015625,-0.7171630859375
9.1099999,-9.732429504394531,0.7374141216278076,2.1068975925445557,-17.2119140625,13.427734375,-1.617431640625
9.129999900000001,-9.765948295593262,0.6392518281936646,1.8842366933822632,-23.8037109375,10.284423828125,-1.4495849609375
9.149999900000001,-9.775525093078613,0.5051765441894531,1.7286136150360107,-23.9715576171875,6.195068359375,-1.251220703125
9.1699999,-9.787496566772461,0.4165911078453064,1.7573440074920654,-23.6663818359375,6.04248046875,1.5869140625
9.1899999,-9.75397777557373,0.22026655077934265,1.7980455160140991,-21.78955078125,7.62939453125,2.4566650390625
9.209999900000001,-9.739612579345703,0.1149216815829277,2.097320795059204,-15.7012939453125,9.6588134765625,4.8675537109375
9.229999900000001,-9.713275909423828,0.043095629662275314,2.2361843585968018,-16.2811279296875,14.556884765625,9.4146728515625
9.2499999,-9.658209800720215,0.08858546614646912,2.4636335372924805,-14.9993896484375,16.8609619140625,8.97216796875
9.2699999,-9.653421401977539,0.28730419278144836,2.5043349266052246,-19.073486328125,21.3165283203125,7.781982421875
9.2899999,-9.612719535827637,0.5506663918495178,2.4636335372924805,-27.3895263671875,23.92578125,6.34765625
9.309999900000001,-9.624691009521484,0.790086567401886,2.293645143508911,-31.9366455078125,25.604248046875,5.1727294921875
9.3299999,-9.674968719482422,0.9313444495201111,1.9991583824157715,-32.073974609375,25.054931640625,3.3111572265625
9.3499999,-9.75397777557373,0.9361328482627869,1.647210717201233,-30.2581787109375,21.42333984375,1.922607421875
9.3699999,-9.852140426635742,0.8475474119186401,1.316810965538025,-26.91650390625,17.2119140625,1.6021728515625
9.389999900000001,-9.904812812805176,0.7589619159698486,1.1276689767837524,-22.3541259765625,14.556884765625,1.861572265625
9.4099999,-9.911994934082031,0.7637503147125244,1.0989385843276978,-18.524169921875,14.9688720703125,-1.1138916015625
9.4299999,-9.852140426635742,0.768538773059845,1.1516109704971313,-5.92041015625,17.059326171875,-10.1165771484375
9.4499999,-9.813833236694336,0.7230489253997803,1.2473790645599365,5.1727294921875,15.5181884765625,-16.143798828125
9.469999900000001,-9.854534149169922,0.5674257874488831,1.2497732639312744,14.9993896484375,13.0157470703125,-13.397216796875
9.4899999,-9.86889934539795,0.3711012601852417,1.2330138683319092,23.3001708984375,10.589599609375,-9.1094970703125
9.5099999,-9.90241813659668,0.16519992053508759,1.070208191871643,34.576416015625,8.4686279296875,-11.383056640625
9.5299999,-9.923966407775879,0.08619125932455063,1.0558429956436157,45.1507568359375,3.60107421875,-17.303466796875
9.549999900000001,-9.876082420349121,0.08379705995321274,1.0534487962722778,44.6929931640625,4.5013427734375,-15.2435302734375
9.569999900000001,-9.890447616577148,0.21308395266532898,1.192312479019165,36.6668701171875,9.5062255859375,-11.3983154296875
9.5899999,-9.86650562286377,0.4668693244457245,1.3862427473068237,28.01513671875,13.5040283203125,-14.984130859375
9.6099999,-9.797073364257812,0.7326257228851318,1.5705963373184204,17.0745849609375,17.181396484375,-22.15576171875
9.629999900000001,-9.746794700622559,0.9888052940368652,1.7094600200653076,-0.4730224609375,22.4456787109375,-25.146484375
9.649999900000001,-9.718064308166504,1.0414776802062988,1.702277421951294,-19.4244384765625,29.7698974609375,-23.8800048828125
9.6699999,-9.744400978088379,0.8738836050033569,1.5298948287963867,-30.8074951171875,32.8216552734375,-23.37646484375
9.6899999,-9.794678688049316,0.5147533416748047,1.2306196689605713,-40.6951904296875,30.1361083984375,-20.416259765625
9.709999900000001,-9.832986831665039,0.021547814831137657,0.7709329724311829,-50.262451171875,27.28271484375,-14.556884765625
9.729999900000001,-9.916783332824707,-0.5482721924781799,0.31124621629714966,-48.6907958984375,23.9715576171875,-9.9029541015625
9.7499999,-10.000580787658691,-1.1348515748977661,-0.0933738648891449,-37.567138671875,16.9219970703125,-4.608154296875
9.7699999,-10.08437728881836,-1.5538369417190552,-0.40462008118629456,-30.029296875,9.307861328125,6.2103271484375
9.7899999,-10.17296314239502,-1.7956513166427612,-0.6153098344802856,-22.6593017578125,2.6092529296875,14.9993896484375
9.809999900000001,-10.218452453613281,-1.7310078144073486,-0.6991068720817566,-7.0037841796875,-4.9591064453125,15.4266357421875
9.8299999,-10.225635528564453,-1.41257905960083,-0.6368576288223267,7.415771484375,-12.6495361328125,14.7857666015625
9.8499999,-10.15141487121582,-0.8810662031173706,-0.507570743560791,10.8642578125,-11.5509033203125,12.969970703125
9.8699999,-10.074800491333008,-0.31603461503982544,-0.33039984107017517,13.9617919921875,-10.498046875,6.5460205078125
9.889999900000001,-10.012551307678223,0.19871874153614044,-0.12689268589019775,19.1192626953125,-15.167236328125,0.732421875
9.9099999,-10.017339706420898,0.5793967843055725,0.09816227108240128,18.310546875,-19.4091796875,-1.2969970703125
9.9299999,-10.034099578857422,0.7493851184844971,0.3902548849582672,9.002685546875,-22.2015380859375,-0.2899169921875
9.9499999,-9.971850395202637,0.8044517636299133,0.7972691655158997,0.396728515625,-17.822265625,-5.279541015625
9.969999900000001,-9.895236015319824,0.7015010714530945,1.2976573705673218,-4.94384765625,-7.2174072265625,-9.3994140625
9.9899999,-9.773131370544434,0.49320554733276367,1.699883222579956,-10.92529296875,0.579833984375,-9.9029541015625
10.0099999,-9.677363395690918,0.24181437492370605,2.032677173614502,-21.392822265625,7.2479248046875,-7.415771484375
10.0299999,-9.672574996948242,-0.028730420395731926,2.0661959648132324,-27.435302734375,17.0745849609375,-4.45556640625
10.049999900000001,-9.744400978088379,-0.2753331959247589,1.8339585065841675,-22.4456787109375,21.0418701171875,-1.8310546875
10.069999900000001,-9.835380554199219,-0.4644751250743866,1.3838485479354858,-13.0157470703125,14.129638671875,-1.5716552734375
10.0899999,-9.955090522766113,-0.5530605912208557,0.8259995579719543,-10.5743408203125,9.246826171875,-1.2664794921875
10.1099999,-10.089165687561035,-0.5770025849342346,0.26815059781074524,-9.2010498046875,5.096435546875,0.9307861328125
10.129999900000001,-10.141838073730469,-0.5315127968788147,-0.1412578970193863,-0.396728515625,-0.9002685546875,-2.044677734375
10.149999900000001,-10.146626472473145,-0.42377370595932007,-0.33279404044151306,5.6610107421875,-4.2724609375,-7.080078125
10.1699999,-10.137049674987793,-0.2513911724090576,-0.29209262132644653,2.1209716796875,-5.79833984375,-3.9825439453125
10.1899999,-10.101137161254883,-0.13168109953403473,-0.05746084079146385,-0.9307861328125,-6.011962890625,-1.495361328125
10.209999900000001,-10.014945983886719,-0.0454898327589035,0.23942017555236816,-0.79345703125,-6.6375732421875,-6.622314453125
10.229999900000001,-9.983820915222168,-0.05506663769483566,0.5482721924781799,-2.9144287109375,-5.0811767578125,-9.002685546875
10.2499999,-9.974244117736816,-0.15322890877723694,0.7876923680305481,-5.889892578125,-5.401611328125,-3.4637451171875
10.2699999,-9.93354320526123,-0.38307225704193115,0.8690952062606812,-6.3018798828125,-4.8675537109375,-3.173828125
10.2899999,-9.926360130310059,-0.6033388376235962,0.8667010068893433,-1.3885498046875,-0.7476806640625,-4.57763671875
10.309999900000001,-9.943120002746582,-0.7948749661445618,0.7350199222564697,6.04248046875,-3.41796875,1.89208984375
10.3299999,-9.974244117736816,-0.8906430602073669,0.5722141861915588,8.9874267578125,-10.9100341796875,8.544921875
10.3499999,-9.983820915222168,-0.8188169598579407,0.47405192255973816,6.927490234375,-13.092041015625,6.6680908203125
10.3699999,-10.014945983886719,-0.6129156351089478,0.47405192255973816,7.659912109375,-11.65771484375,3.5858154296875
10.389999900000001,-9.945513725280762,-0.31842881441116333,0.6871358752250671,5.5084228515625,-11.41357421875,3.936767578125
10.4099999,-9.86650562286377,-0.07182604819536209,0.9888052940368652,-7.4615478515625,-6.9732666015625,1.4190673828125
10.4299999,-9.794678688049316,0.16998831927776337,1.3527239561080933,-20.8282470703125,4.0130615234375,-1.556396484375
10.4499999,-9.813833236694336,0.24660277366638184,1.6304513216018677,-26.0009765625,9.979248046875,1.2359619140625
10.469999900000001,-9.799467086791992,0.19871874153614044,1.6639702320098877,-26.0162353515625,8.0718994140625,1.373291015625
10.4899999,-9.861717224121094,0.040701430290937424,1.4628572463989258,-20.904541015625,7.5225830078125,-2.593994140625
10.5099999,-9.950302124023438,-0.19632454216480255,1.1228805780410767,-9.1094970703125,4.4097900390625,-4.0740966796875
10.5299999,-9.976638793945312,-0.4165911078453064,0.7182605266571045,4.33349609375,-0.823974609375,-2.6397705078125
10.549999900000001,-10.010157585144043,-0.5770025849342346,0.4381389021873474,11.4593505859375,-3.509521484375,-3.173828125
10.569999900000001,-10.022128105163574,-0.6392518281936646,0.2849099934101105,12.481689453125,-5.0506591796875,-1.6021728515625
10.5899999,-10.046070098876953,-0.6177040338516235,0.31364041566848755,11.90185546875,-6.011962890625,2.593994140625
10.6099999,-9.981427192687988,-0.5554547905921936,0.4692635238170624,7.8277587890625,-6.561279296875,2.50244140625
10.629999900000001,-10.005369186401367,-0.42377370595932007,0.7134721279144287,0.8544921875,-4.8065185546875,0.18310546875
10.649999900000001,-9.955090522766113,-0.31364041566848755,1.0127472877502441,-4.6844482421875,-1.9378662109375,1.220703125
10.6699999,-9.86889934539795,-0.19632454216480255,1.2617442607879639,-11.1846923828125,1.800537109375,2.2735595703125
10.6899999,-9.835380554199219,-0.12689268589019775,1.3886369466781616,-16.510009765625,7.080078125,-1.373291015625
10.709999900000001,-9.876082420349121,-0.10534487664699554,1.3623007535934448,-15.625,6.622314453125,-0.48828125
10.729999900000001,-9.895236015319824,-0.19153612852096558,1.1540051698684692,-10.55908203125,0.9307861328125,3.2806396484375
10.7499999,-9.945513725280762,-0.2849099934101105,0.8667010068893433,-5.767822265625,-1.7852783203125,0.6561279296875
10.7699999,-9.976638793945312,-0.3926490843296051,0.586579442024231,2.9144287109375,-4.0740966796875,-2.685546875
10.7899999,-10.000580787658691,-0.47405192255973816,0.45250412821769714,13.1378173828125,-8.9569091796875,0.1678466796875
10.809999900000001,-9.93593692779541,-0.4644751250743866,0.49320554733276367,12.5885009765625,-9.7808837890625,0.213623046875
10.8299999,-9.909601211547852,-0.37828385829925537,0.7709329724311829,4.547119140625,-4.0283203125,-1.46484375
10.8499999,-9.880870819091797,-0.22505496442317963,1.1228805780410767,-3.0517578125,2.197265625,0.2288818359375
10.8699999,-9.799467086791992,-0.090979665517807,1.436521053314209,-8.5296630859375,3.96728515625,-0.9613037109375
10.889999900000001,-9.823410034179688,-0.016759412363171577,1.5897499322891235,-12.1307373046875,7.1563720703125,-4.1961669921875
10.9099999,-9.871294021606445,-0.047884032130241394,1.53707754611969,-12.14599609375,8.575439453125,-2.288818359375
10.9299999,-9.876082420349121,-0.18914192914962769,1.316810965538025,-8.48388671875,5.43212890625,0.2593994140625
10.9499999,-9.923966407775879,-0.3519476354122162,1.015141487121582,-4.9285888671875,5.706787109375,-1.983642578125
10.969999900000001,-9.95748519897461,-0.5147533416748047,0.7134721279144287,0.6561279296875,1.739501953125,0.030517578125
10.9899999,-10.019734382629395,-0.6344634294509888,0.5195417404174805,4.3792724609375,-3.4942626953125,5.401611328125
11.0099999,-9.998186111450195,-0.6631938815116882,0.4596867263317108,2.6092529296875,-4.058837890625,4.7607421875
11.0299999,-10.002974510192871,-0.5578489899635315,0.5626373887062073,0.8544921875,-0.3204345703125,1.2054443359375
11.049999900000001,-9.96945571899414,-0.3878606855869293,0.727837324142456,-0.152587890625,-0.457763671875,2.4261474609375
11.069999900000001,-9.897629737854004,-0.16998831927776337,0.9265560507774353,-5.67626953125,-2.349853515625,3.0059814453125
11.0899999,-9.890447616577148,-0.031124621629714966,1.0630255937576294,-8.5601806640625,2.2125244140625,-2.3193359375
11.1099999,-9.914389610290527,0.028730420395731926,1.091755986213684,-3.631591796875,3.60107421875,-3.3721923828125
11.129999900000001,-9.93593692779541,-0.06224924325942993,1.05105459690094,0.0762939453125,-1.64794921875,0.06103515625
11.149999900000001,-9.959878921508789,-0.1628057211637497,0.9552865028381348,-1.9378662109375,-2.9754638671875,-1.6326904296875
11.1699999,-9.962273597717285,-0.2944868206977844,0.8643068075180054,-0.9307861328125,-0.8697509765625,-2.9449462890625
11.1899999,-9.950302124023438,-0.35913026332855225,0.8667010068893433,3.8604736328125,-1.3885498046875,-0.4119873046875
11.209999900000001,-9.890447616577148,-0.43335050344467163,0.8882488012313843,0.9918212890625,-1.556396484375,0.396728515625
11.229999900000001,-9.880870819091797,-0.45010992884635925,0.9816226959228516,-1.800537109375,1.129150390625,-0.3662109375
11.2499999,-9.914389610290527,-0.4668693244457245,1.0414776802062988,0.946044921875,2.349853515625,1.9683837890625
11.2699999,-9.890447616577148,-0.40222588181495667,1.091755986213684,1.5106201171875,-0.030517578125,3.662109375
11.2899999,-9.919178009033203,-0.3232172429561615,1.115697979927063,-3.0670166015625,1.9683837890625,-0.48828125
11.309999900000001,-9.95748519897461,-0.19153612852096558,1.0965443849563599,-4.39453125,4.2877197265625,-1.5869140625
11.3299999,-9.93593692779541,-0.1364694982767105,1.070208191871643,-2.3956298828125,2.2430419921875,0.30517578125
11.3499999,-9.947908401489258,-0.12210428714752197,0.9959878921508789,-5.0811767578125,3.631591796875,-2.4261474609375
11.3699999,-9.967061996459961,-0.19632454216480255,0.8738836050033569,-1.739501953125,2.685546875,-4.5318603515625
11.389999900000001,-9.995792388916016,-0.28730419278144836,0.7781155705451965,5.6915283203125,-0.79345703125,-0.9918212890625
11.4099999,-9.979032516479492,-0.4213795065879822,0.6655880808830261,6.65283203125,-4.1656494140625,0.8544921875
11.4299999,-10.000580787658691,-0.4596867263317108,0.6488286852836609,7.26318359375,-2.86865234375,-2.685546875
11.4499999,-9.99100399017334,-0.47644615173339844,0.6751648783683777,10.19287109375,-3.3721923828125,-0.5340576171875
11.469999900000001,-9.928754806518555,-0.4189853072166443,0.7924807667732239,4.8980712890625,-5.8135986328125,3.143310546875
11.4899999,-9.90241813659668,-0.36152446269989014,0.9385270476341248,-5.767822265625,-1.068115234375,0.396728515625
11.5099999,-9.907206535339355,-0.28969839215278625,1.070208191871643,-6.805419921875,2.25830078125,-0.4425048828125
11.5299999,-9.897629737854004,-0.24660277366638184,1.1635819673538208,-3.265380859375,0.518798828125,3.2196044921875
11.549999900000001,-9.897629737854004,-0.24181437492370605,1.173158884048462,-5.767822265625,-0.91552734375,2.044677734375
11.569999900000001,-9.885659217834473,-0.21787235140800476,1.1348515748977661,-5.126953125,2.1514892578125,-1.52587890625
11.5899999,-9.883264541625977,-0.2059013396501541,1.048660397529602,1.5716552734375,1.434326171875,0.244140625
11.6099999,-9.856928825378418,-0.2082955539226532,1.0031704902648926,1.9378662109375,-2.3956298828125,0.06103515625
11.629999900000001,-9.86889934539795,-0.17956513166427612,0.9768342971801758,-1.068115234375,0.885009765625,-3.60107421875
11.649999900000001,-9.938331604003906,-0.1867477297782898,0.9792284965515137,1.1749267578125,2.8533935546875,-2.4261474609375
11.6699999,-9.955090522766113,-0.22505496442317963,1.036689281463623,2.62451171875,0.18310546875,0.335693359375
11.6899999,-9.943120002746582,-0.26336219906806946,1.0821791887283325,-2.7618408203125,1.3427734375,-1.922607421875
11.709999900000001,-9.964667320251465,-0.31364041566848755,1.0797849893569946,-3.35693359375,4.3792724609375,-3.753662109375
11.729999900000001,-9.926360130310059,-0.38067805767059326,1.0271124839782715,1.3275146484375,2.2125244140625,-0.885009765625
11.7499999,-9.904812812805176,-0.42377370595932007,0.9768342971801758,-2.410888671875,0.3509521484375,0.091552734375
11.7699999,-9.916783332824707,-0.47405192255973816,0.8930372595787048,-5.43212890625,1.3580322265625,-1.2054443359375
11.7899999,-9.959878921508789,-0.5171475410461426,0.811634361743927,0.67138671875,0.762939453125,1.312255859375
11.809999900000001,-9.99339771270752,-0.5434837937355042,0.7924807667732239,4.2877197265625,-3.9520263671875,4.08935546875
11.8299999,-10.014945983886719,-0.5315127968788147,0.7565677165985107,0.3662109375,-3.570556640625,2.7313232421875
11.8499999,-10.036493301391602,-0.44771572947502136,0.7829039692878723,-1.6937255859375,-1.6632080078125,3.2806396484375
11.8699999,-9.983820915222168,-0.36152446269989014,0.9097966551780701,-1.953125,-2.3040771484375,5.67626953125
11.889999900000001,-9.9000244140625,-0.26336219906806946,1.01753568649292,-9.1552734375,0.5035400390625,3.2806396484375
11.9099999,-9.832986831665039,-0.19632454216480255,1.192312479019165,-11.444091796875,2.8076171875,2.38037109375
11.9299999,-9.78989028930664,-0.12689268589019775,1.314416766166687,-9.21630859375,3.84521484375,5.5389404296875
11.9499999,-9.739612579345703,-0.05506663769483566,1.4269442558288574,-14.5263671875,4.241943359375,5.5999755859375
11.969999900000001,-9.732429504394531,0.0933738648891449,1.50355863571167,-26.1993408203125,11.1846923828125,2.0904541015625
11.9899999,-9.734824180603027,0.2322375625371933,1.6376339197158813,-40.1153564453125,17.27294921875,2.7008056640625
12.0099999,-9.636661529541016,0.40701428055763245,1.742978811264038,-57.92236328125,23.895263671875,4.2877197265625
12.0299999,-9.732429504394531,0.5147533416748047,1.8315643072128296,-81.1614990234375,36.0260009765625,2.777099609375
12.049999900000001,-9.876082420349121,0.2992752194404602,1.3646949529647827,-88.897705078125,45.2423095703125,-4.180908203125
12.069999900000001,-10.031704902648926,0.009576806798577309,0.7350199222564697,-45.9747314453125,24.139404296875,-2.105712890625
12.0899999,-10.27591323852539,-0.40222588181495667,-0.026336219161748886,-12.02392578125,2.5482177734375,5.0811767578125
12.1099999,-10.38604736328125,-0.7709329724311829,-0.7924807667732239,-8.7432861328125,5.157470703125,-4.82177734375
12.129999900000001,-10.295066833496094,-0.6655880808830261,-0.4213795065879822,2.1820068359375,-4.1046142578125,-2.349853515625
12.149999900000001,-10.134655952453613,-0.6320692300796509,0.016759412363171577,-34.5611572265625,15.80810546875,5.340576171875
12.1699999,-9.964667320251465,-0.5602431893348694,0.6057330369949341,-59.7076416015625,37.04833984375,3.326416015625
12.1899999,-9.835380554199219,-0.5937620401382446,0.9074024558067322,-40.9088134765625,26.0162353515625,9.27734375
12.209999900000001,-9.895236015319824,-0.768538773059845,0.3998316824436188,-29.4189453125,15.68603515625,14.3585205078125
12.229999900000001,-10.005369186401367,-0.3758896589279175,-0.667982280254364,-6.9122314453125,-9.0179443359375,10.467529296875
12.2499999,-9.998186111450195,0.10773907601833344,-0.849941611289978,-19.2108154296875,0.5035400390625,-3.1890869140625
12.2699999,-9.888052940368652,0.7015010714530945,-0.37828385829925537,-27.52685546875,-2.9754638671875,-4.150390625
12.289999900000002,-9.852140426635742,0.8619126081466675,-0.09816227108240128,-62.4237060546875,8.9874267578125,-4.5928955078125
12.309999900000001,-9.832986831665039,0.8140285611152649,0.2944868206977844,-70.5413818359375,12.1612548828125,-6.2713623046875
12.3299999,-9.856928825378418,0.2968810200691223,0.16519992053508759,-54.99267578125,3.8299560546875,-1.5869140625
12.3499999,-10.050858497619629,-0.42377370595932007,-0.2585737705230713,-35.2935791015625,-4.669189453125,0.9002685546875
12.3699999,-10.146626472473145,-0.9481038451194763,-0.6009446382522583,0.3814697265625,-23.9410400390625,5.3253173828125
12.389999900000001,-10.192116737365723,-1.2521674633026123,-0.7326257228851318,12.1917724609375,-26.7333984375,8.4228515625
12.4099999,-10.20887565612793,-1.094150185585022,-0.4668693244457245,7.9803466796875,-17.303466796875,5.1116943359375
12.4299999,-10.072406768798828,-0.6033388376235962,0.20350714027881622,0.42724609375,-12.786865234375,4.7454833984375
12.4499999,-9.911994934082031,-0.08379705995321274,0.7374141216278076,-22.76611328125,-1.8768310546875,0.396728515625
12.469999900000001,-9.825803756713867,0.3902548849582672,1.2641384601593018,-33.599853515625,5.6610107421875,-2.5177001953125
12.4899999,-9.75637149810791,0.49559974670410156,1.235408067703247,-33.721923828125,9.9029541015625,-2.227783203125
12.5099999,-9.78989028930664,0.4165911078453064,1.0534487962722778,-20.2178955078125,4.4708251953125,-2.6702880859375
12.5299999,-9.854534149169922,0.22744916379451752,0.7589619159698486,-11.3067626953125,-1.983642578125,-0.6561279296875
12.549999900000001,-9.926360130310059,0.08619125932455063,0.4692635238170624,-20.32470703125,6.1187744140625,-5.2642822265625
12.569999900000001,-9.971850395202637,0,0.43335050344467163,-23.92578125,7.26318359375,-4.486083984375
12.5899999,-9.964667320251465,-0.05746084079146385,0.31124621629714966,-31.6162109375,10.711669921875,-4.4403076171875
12.6099999,-10.010157585144043,-0.07900865375995636,0.31124621629714966,-36.5447998046875,5.828857421875,-0.640869140625
12.629999900000001,-9.964667320251465,0.009576806798577309,0.4357447028160095,-56.304931640625,8.880615234375,1.1749267578125
12.649999900000001,-8.707711219787598,-0.10295066982507706,0.43095630407333374,-84.8541259765625,21.759033203125,7.4310302734375
12.6699999,-7.979874134063721,-0.26815059781074524,0.6009446382522583,-82.2296142578125,24.627685546875,34.1796875
12.6899999,-6.40927791595459,-0.7493851184844971,0.5051765441894531,-51.9561767578125,-2.2735595703125,28.594970703125
12.709999900000001,-6.234501361846924,-1.1563993692398071,0.42377370595932007,-40.985107421875,13.641357421875,36.7889404296875
12.729999900000001,-7.146692276000977,-1.2641384601593018,0.2322375625371933,-47.515869140625,28.3660888671875,35.7513427734375
12.7499999,-8.995016098022461,-0.933738648891449,0.12928688526153564,-58.3648681640625,32.745361328125,41.107177734375
12.7699999,-11.018115997314453,-0.035913024097681046,0.06464344263076782,-75.5157470703125,32.867431640625,40.6036376953125
12.789999900000002,-13.074735641479492,0.9983820915222168,-0.047884032130241394,-88.0584716796875,41.9769287109375,33.3099365234375
12.809999900000001,-14.520833015441895,2.0925323963165283,-0.14844051003456116,-89.630126953125,39.97802734375,16.9525146484375
12.8299999,-15.021221160888672,2.738966703414917,-0.3495534360408783,-87.890625,13.824462890625,7.781982421875
12.8499999,-14.788984298706055,2.827552318572998,-0.5961562395095825,-75.4852294921875,-1.7242431640625,9.5367431640625
12.8699999,-13.33570384979248,2.0470423698425293,-1.1085153818130493,-35.5377197265625,3.4942626953125,-3.936767578125
12.889999900000001,-11.274295806884766,1.070208191871643,-1.3910311460494995,15.1214599609375,2.9754638671875,-13.48876953125
12.9099999,-9.131484985351562,0.08858546614646912,-1.4963760375976562,36.407470703125,-8.4228515625,-7.080078125
12.9299999,-7.491456985473633,-0.38546648621559143,-1.2473790645599365,14.404296875,-0.3509521484375,1.2054443359375
12.9499999,-6.6391215324401855,-0.395043283700943,-0.849941611289978,-15.7318115234375,13.18359375,5.06591796875
12.969999900000001,-6.672640323638916,-0.15562310814857483,-0.6105214357376099,-17.7001953125,14.2364501953125,4.3487548828125
12.9899999,-7.374141216278076,0.0933738648891449,-0.6655880808830261,-1.9378662109375,-2.3193359375,6.9427490234375
13.0099999,-8.429984092712402,0.3758896589279175,-0.7829039692878723,8.544921875,-14.34326171875,10.0555419921875
13.0299999,-9.421183586120605,0.6871358752250671,-0.7996633648872375,1.3580322265625,-7.843017578125,6.7291259765625
13.049999900000001,-10.110713958740234,0.9672574996948242,-0.6775590777397156,-12.3443603515625,1.190185546875,1.0986328125
13.069999900000001,-10.503362655639648,1.1827356815338135,-0.4836287498474121,-14.434814453125,-0.5645751953125,-0.18310546875
13.0899999,-10.675745010375977,1.1803414821624756,-0.3974374830722809,-9.8419189453125,-4.7149658203125,0.9613037109375
13.1099999,-10.702081680297852,1.1037269830703735,-0.3447650372982025,-4.5928955078125,-4.1351318359375,0.396728515625
13.129999900000001,-10.584765434265137,1.0295066833496094,-0.28730419278144836,-8.697509765625,-2.197265625,0.9002685546875
13.149999900000001,-10.44350814819336,1.048660397529602,-0.1843535304069519,-25.6195068359375,0.54931640625,-0.6103515625
13.1699999,-10.223240852355957,1.0845733880996704,-0.06703764945268631,-35.9954833984375,2.838134765625,-5.950927734375
13.1899999,-10.04846477508545,1.1013327836990356,0.023942016065120697,-8.1329345703125,7.8277587890625,-12.51220703125
13.209999900000001,-9.99100399017334,1.0558429956436157,0.2298433631658554,30.8685302734375,15.3350830078125,-14.404296875
13.229999900000001,-10.098742485046387,1.2976573705673218,-0.002394201699644327,37.04833984375,19.805908203125,-19.9432373046875
13.2499999,-10.165780067443848,1.2090718746185303,-0.14844051003456116,-1.7852783203125,16.1590576171875,-35.58349609375
13.2699999,-10.340557098388672,1.1851298809051514,-0.6033388376235962,0.30517578125,17.791748046875,-39.8406982421875
13.289999900000002,-10.340557098388672,0.6823474764823914,-0.9816226959228516,9.3841552734375,4.7149658203125,-21.8353271484375
13.309999900000001,-10.266336441040039,0.1173158809542656,-1.0438719987869263,4.119873046875,-4.8828125,-2.9144287109375
13.3299999,-10.110713958740234,-0.35913026332855225,-1.039083480834961,-3.1585693359375,4.241943359375,0.152587890625
13.3499999,-9.983820915222168,-0.44532153010368347,-0.9385270476341248,-0.701904296875,13.8702392578125,-6.6986083984375
13.3699999,-9.849745750427246,-0.2944868206977844,-0.8738836050033569,5.31005859375,7.0648193359375,-8.72802734375
13.389999900000001,-9.81143856048584,-0.08619125932455063,-0.8571242094039917,5.4779052734375,-6.34765625,-3.7384033203125
13.4099999,-9.763554573059082,0.12210428714752197,-0.8331822156906128,0.18310546875,-6.28662109375,0.823974609375
13.4299999,-9.804255485534668,0.22744916379451752,-0.790086567401886,-4.058837890625,-3.387451171875,2.0294189453125
13.4499999,-9.883264541625977,0.2968810200691223,-0.8307880163192749,-5.2032470703125,-5.096435546875,2.5634765625
13.469999900000001,-10.072406768798828,0.3663128614425659,-1.0893617868423462,-2.86865234375,-12.1612548828125,1.495361328125
13.4899999,-10.283096313476562,0.4189853072166443,-1.1540051698684692,-0.4119873046875,-26.06201171875,-1.434326171875
13.5099999,-10.376470565795898,0.4692635238170624,-1.0989385843276978,-0.1220703125,-28.3660888671875,-2.349853515625
13.5299999,-10.302249908447266,0.45250412821769714,-0.6536170840263367,-2.8533935546875,-14.8162841796875,-3.0670166015625
13.549999900000001,-10.074800491333008,0.3926490843296051,-0.08619125932455063,-7.4005126953125,-1.03759765625,-0.5950927734375
13.569999900000001,-9.801861763000488,0.24420857429504395,0.35673606395721436,-4.7149658203125,5.279541015625,2.0599365234375
13.5899999,-9.655815124511719,0.1628057211637497,0.45010992884635925,1.007080078125,5.4931640625,3.7994384765625
13.6099999,-9.600749015808105,0.16759411990642548,0.2825157940387726,5.157470703125,1.9989013671875,2.197265625
13.629999900000001,-9.603142738342285,0.21308395266532898,-0.016759412363171577,5.37109375,0.0457763671875,-2.838134765625
13.649999900000001,-9.619902610778809,0.2753331959247589,-0.272938996553421,4.45556640625,0.1373291015625,-2.6397705078125
13.6699999,-9.636661529541016,0.26336219906806946,-0.33997663855552673,2.6397705078125,0.885009765625,1.2054443359375
13.6899999,-10.007762908935547,0.33279404044151306,0.004788403399288654,-2.9754638671875,5.9051513671875,4.1046142578125
13.709999900000001,-9.979032516479492,0.2992752194404602,0.3998316824436188,-48.1109619140625,3.4637451171875,1.8463134765625
13.729999900000001,-10.307038307189941,0.31603461503982544,0.6655880808830261,5.3253173828125,6.561279296875,-6.3018798828125
13.7499999,-10.216058731079102,0.27054479718208313,0.8164227604866028,18.890380859375,0.274658203125,-0.9613037109375
13.7699999,-10.120290756225586,0.22026655077934265,0.5722141861915588,11.138916015625,1.3275146484375,3.662109375
13.789999900000002,-10.072406768798828,0.21547815203666687,0.21308395266532898,3.5552978515625,9.8419189453125,1.800537109375
13.809999900000001,-10.101137161254883,0.181959331035614,-0.37828385829925537,1.922607421875,9.1705322265625,-0.54931640625
13.8299999,-10.163386344909668,0.22505496442317963,-0.8690952062606812,24.7039794921875,-12.115478515625,1.2054443359375
13.8499999,-10.18493366241455,0.3208230137825012,-1.1994950771331787,34.759521484375,-24.3988037109375,3.7689208984375
13.8699999,-10.20648193359375,0.4429273009300232,-1.2832920551300049,18.524169921875,-7.537841796875,-0.5950927734375
13.889999900000001,-10.223240852355957,0.49559974670410156,-0.9744400978088379,-9.3231201171875,-2.685546875,0.1373291015625
13.9099999,-10.216058731079102,0.43095630407333374,-0.6727706789970398,-19.6685791015625,-11.5814208984375,7.5225830078125
13.9299999,-10.251971244812012,0.21308395266532898,-0.4620809257030487,-1.5106201171875,-15.56396484375,9.9639892578125
13.9499999,-10.144232749938965,0.09576806426048279,-0.1867477297782898,12.51220703125,-18.2342529296875,9.8419189453125
13.969999900000001,-9.943120002746582,0.22026655077934265,0.19871874153614044,6.927490234375,-8.8043212890625,7.14111328125
13.9899999,-9.708487510681152,0.4596867263317108,0.5650315880775452,-5.0048828125,11.0931396484375,0.9613037109375
14.0099999,-9.555258750915527,0.7086837291717529,0.7876923680305481,-3.1890869140625,20.69091796875,-5.126953125
14.0299999,-9.526528358459473,0.8523358106613159,0.7326257228851318,6.683349609375,15.899658203125,-5.828857421875
14.049999900000001,-9.583989143371582,0.8571242094039917,0.4668693244457245,8.1634521484375,11.5966796875,-6.500244140625
14.069999900000001,-9.727641105651855,0.7541735172271729,0.07661445438861847,2.349853515625,17.242431640625,-9.185791015625
14.0899999,-9.876082420349121,0.5674257874488831,-0.31364041566848755,-1.6632080078125,16.6473388671875,-7.9498291015625
14.1099999,-10.022128105163574,0.35673606395721436,-0.6320692300796509,3.0059814453125,7.9803466796875,-3.0517578125
14.129999900000001,-10.120290756225586,0.12928688526153564,-0.8834604024887085,4.852294921875,2.5634765625,0.48828125
14.149999900000001,-10.187328338623047,0.004788403399288654,-0.9792284965515137,0.457763671875,2.838134765625,2.74658203125
14.1699999,-10.199298858642578,-0.05027823522686958,-0.9768342971801758,-1.7242431640625,3.448486328125,3.72314453125
14.1899999,-10.216058731079102,0.011971008032560349,-0.8906430602073669,0.0152587890625,-0.4730224609375,6.6680908203125
14.209999900000001,-10.216058731079102,0.1149216815829277,-0.8044517636299133,-0.396728515625,-3.60107421875,7.720947265625
14.229999900000001,-10.201693534851074,0.26575639843940735,-0.7374141216278076,-1.983642578125,-3.0059814453125,5.645751953125
14.2499999,-10.139444351196289,0.4357447028160095,-0.646434485912323,-1.007080078125,-3.936767578125,4.180908203125
14.2699999,-10.041281700134277,0.5817909836769104,-0.5506663918495178,0.5950927734375,-5.462646484375,3.1280517578125
14.289999900000002,-9.938331604003906,0.6631938815116882,-0.4668693244457245,-0.457763671875,-4.5318603515625,0.8087158203125
14.309999900000001,-9.86889934539795,0.6703764796257019,-0.3926490843296051,-1.7547607421875,-3.082275390625,-0.4425048828125
14.3299999,-9.823410034179688,0.6009446382522583,-0.3447650372982025,-0.3814697265625,-3.3721923828125,1.0833740234375
14.3499999,-9.823410034179688,0.5219359993934631,-0.2992752194404602,1.2359619140625,-4.486083984375,3.753662109375
14.3699999,-9.840168952941895,0.42856210470199585,-0.2968810200691223,-0.4119873046875,-2.9144287109375,3.41796875
14.389999900000001,-10.02452278137207,0.181959331035614,-0.6440402865409851,6.256103515625,-2.4566650390625,0.2899169921875
14.4099999,-10.165780067443848,-0.05506663769483566,-1.1300631761550903,48.3551025390625,-27.16064453125,-1.4190673828125
14.4299999,-10.33098030090332,-0.2346317619085312,-1.5179238319396973,86.1663818359375,-54.7637939453125,3.082275390625
14.4499999,-10.347740173339844,-0.1412578970193863,-1.644816517829895,101.1962890625,-59.4024658203125,2.0904541015625
14.469999900000001,-10.251971244812012,0.1364694982767105,-1.2521674633026123,98.968505859375,-42.3126220703125,-6.04248046875
14.4899999,-10.019734382629395,0.7589619159698486,-0.33997663855552673,93.8568115234375,-36.285400390625,-13.18359375
14.5099999,-9.96945571899414,1.192312479019165,0.5506663918495178,72.1435546875,-24.7344970703125,-8.331298828125
14.5299999,-9.859322547912598,1.5107412338256836,1.4484920501708984,41.229248046875,-7.1258544921875,-11.1846923828125
14.549999900000001,-9.785101890563965,1.522712230682373,2.013523578643799,7.049560546875,7.6446533203125,-9.063720703125
14.569999900000001,-9.77791976928711,1.278503656387329,2.1547815799713135,-13.4735107421875,20.416259765625,-3.9215087890625
14.5899999,-9.84256362915039,0.7757213711738586,1.8052281141281128,-16.0980224609375,22.39990234375,-1.6937255859375
14.6099999,-9.909601211547852,0.31364041566848755,1.0773907899856567,-10.284423828125,17.5933837890625,2.62451171875
14.629999900000001,-10.460267066955566,-0.08140286058187485,0.22026655077934265,-0.9765625,5.706787109375,6.683349609375
14.649999900000001,-10.627861022949219,-0.3064578175544739,-0.545877993106842,12.8326416015625,-9.0484619140625,1.129150390625
14.6699999,-11.08994197845459,-0.29209262132644653,-1.0558429956436157,26.580810546875,-17.4407958984375,2.6702880859375
14.6899999,-11.051634788513184,-0.15801730751991272,-1.2018892765045166,39.947509765625,-20.1568603515625,6.103515625
14.709999900000001,-10.881647109985352,0.1843535304069519,-1.0630255937576294,51.0711669921875,-28.5491943359375,9.2620849609375
14.729999900000001,-10.702081680297852,0.5051765441894531,-0.5937620401382446,58.59375,-27.252197265625,1.5106201171875
14.7499999,-10.18493366241455,0.8451532125473022,-0.0454898327589035,58.685302734375,-27.435302734375,-14.9078369140625
14.7699999,-10.031704902648926,1.0630255937576294,0.6105214357376099,50.4913330078125,-13.4124755859375,-14.6026611328125
14.789999900000002,-9.636661529541016,1.1085153818130493,1.1037269830703735,43.0145263671875,-7.6904296875,-8.5601806640625
14.809999900000001,-9.490615844726562,1.070208191871643,1.4437036514282227,35.1715087890625,-7.0037841796875,-1.373291015625
14.8299999,-9.464279174804688,0.9289502501487732,1.5969325304031372,33.7371826171875,2.4261474609375,-7.7362060546875
14.8499999,-9.35893440246582,0.8020575642585754,1.580173134803772,31.43310546875,0.3509521484375,-17.425537109375
14.8699999,-9.493009567260742,0.6584054827690125,1.482010841369629,24.993896484375,12.4053955078125,-8.6212158203125
14.889999900000001,-9.533711433410645,0.5650315880775452,1.314416766166687,21.42333984375,12.542724609375,-9.796142578125
14.9099999,-9.703699111938477,0.47884035110473633,1.0869675874710083,19.7906494140625,12.451171875,-14.0838623046875
14.9299999,-9.96945571899414,0.4429273009300232,0.8690952062606812,21.7132568359375,11.2152099609375,-16.754150390625
14.9499999,-10.400412559509277,0.3878606855869293,0.6392518281936646,24.6124267578125,1.495361328125,-11.6729736328125
14.969999900000001,-10.74996566772461,0.4118026793003082,0.569819986820221,26.1688232421875,-22.5372314453125,-14.8468017578125
14.9899999,-10.912771224975586,0.45250412821769714,0.7493851184844971,12.8173828125,-21.942138671875,-12.8936767578125
15.0099999,-10.862493515014648,0.4429273009300232,0.8882488012313843,-2.960205078125,0.42724609375,-11.0015869140625
15.0299999,-10.56800651550293,0.4165911078453064,1.0223240852355957,0.762939453125,12.51220703125,-10.6964111328125
15.049999900000001,-10.261548042297363,0.2849099934101105,0.8595184087753296,12.5732421875,6.500244140625,-11.871337890625
15.069999900000001,-10.041281700134277,0.08379705995321274,0.49320554733276367,25.390625,-5.1422119140625,-10.5133056640625
15.0899999,-9.914389610290527,-0.11013327538967133,0.07900865375995636,37.7044677734375,-12.5274658203125,-8.60595703125
15.1099999,-9.821015357971191,-0.26096799969673157,-0.20350714027881622,44.677734375,-18.096923828125,-9.2010498046875
15.129999900000001,-9.725247383117676,-0.3280056416988373,-0.29209262132644653,44.9676513671875,-21.0418701171875,-9.58251953125
15.149999900000001,-9.634267807006836,-0.31364041566848755,-0.20111294090747833,41.80908203125,-16.387939453125,-8.9569091796875
15.1699999,-9.536105155944824,-0.2585737705230713,0.011971008032560349,38.0096435546875,-6.0577392578125,-10.009765625
15.1899999,-9.459490776062012,-0.19153612852096558,0.2585737705230713,33.4014892578125,4.0283203125,-12.5732421875
15.209999900000001,-9.435548782348633,-0.1412578970193863,0.47165772318840027,29.052734375,9.735107421875,-14.434814453125
15.229999900000001,-9.457097053527832,-0.11971008777618408,0.6200982332229614,25.1312255859375,9.1705322265625,-14.3890380859375
15.2499999,-9.502586364746094,-0.11252748221158981,0.6991068720817566,20.5230712890625,5.7220458984375,-13.275146484375
15.2699999,-9.512163162231445,-0.12928688526153564,0.7326257228851318,15.9759521484375,1.2969970703125,-12.359619140625
15.289999900000002,-9.464279174804688,-0.15083470940589905,0.7350199222564697,11.5814208984375,-1.15966796875,-8.48388671875
15.309999900000001,-9.35654067993164,-0.16998831927776337,0.7326257228851318,8.819580078125,2.3345947265625,-3.7078857421875
15.3299999,-9.246406555175781,-0.1843535304069519,0.7158663272857666,8.636474609375,9.521484375,-1.2359619140625
15.3499999,-9.186552047729492,-0.17956513166427612,0.706289529800415,9.8419189453125,11.1083984375,0.06103515625
15.3699999,-9.248801231384277,-0.1388636976480484,0.689530074596405,9.063720703125,8.209228515625,1.52587890625
15.389999900000001,-9.373299598693848,-0.10295066982507706,0.6871358752250671,6.561279296875,4.2266845703125,0.946044921875
15.4099999,-9.53849983215332,-0.090979665517807,0.7110779285430908,3.90625,0.213623046875,-0.213623046875
15.4299999,-9.6989107131958,-0.12449848651885986,0.751779317855835,1.3580322265625,-1.4495849609375,-0.3662109375
15.4499999,-9.832986831665039,-0.19393034279346466,0.8068459630012512,-0.2593994140625,-2.86865234375,-0.9002685546875
15.469999900000001,-9.93593692779541,-0.29209262132644653,0.8307880163192749,-1.0833740234375,-4.364013671875,-2.6397705078125
15.4899999,-10.017339706420898,-0.38546648621559143,0.8379706144332886,-1.4190673828125,-4.5623779296875,-4.150390625
15.5099999,-10.062829971313477,-0.47884035110473633,0.811634361743927,-1.0986328125,-4.730224609375,-3.84521484375
15.5299999,-10.053253173828125,-0.5746083855628967,0.7757213711738586,-0.18310546875,-4.241943359375,-3.90625
15.549999900000001,-10.019734382629395,-0.6607996821403503,0.7469909191131592,1.068115234375,-2.13623046875,-4.913330078125
15.569999900000001,-9.99339771270752,-0.7206547260284424,0.7086837291717529,3.1585693359375,-0.0152587890625,-6.622314453125
15.5899999,-9.967061996459961,-0.768538773059845,0.6607996821403503,5.6610107421875,-3.11279296875,-8.60595703125
15.6099999,-9.974244117736816,-0.7972691655158997,0.6129156351089478,8.0108642578125,-6.4544677734375,-9.857177734375
15.629999900000001,-10.002974510192871,-0.8236053586006165,0.5602431893348694,10.7879638671875,-6.77490234375,-10.07080078125
15.649999900000001,-10.036493301391602,-0.8451532125473022,0.5363011956214905,12.87841796875,-10.833740234375,-10.406494140625
15.6699999,-10.074800491333008,-0.8571242094039917,0.5506663918495178,12.725830078125,-17.578125,-11.1846923828125
15.6899999,-10.108319282531738,-0.8523358106613159,0.6177040338516235,10.894775390625,-21.0113525390625,-12.7410888671875
15.709999900000001,-10.096348762512207,-0.8403648138046265,0.7398083209991455,8.575439453125,-18.829345703125,-14.1448974609375
15.729999900000001,-10.067618370056152,-0.8140285611152649,0.8930372595787048,6.04248046875,-14.801025390625,-13.1683349609375
15.7499999,-10.02691650390625,-0.7781155705451965,1.0606313943862915,3.4637451171875,-13.61083984375,-11.8408203125
15.7699999,-9.883264541625977,-0.6967126727104187,1.357512354850769,-2.105712890625,-5.2642822265625,-14.984130859375
15.789999900000002,-9.852140426635742,-0.7541735172271729,1.3503297567367554,-2.13623046875,18.4326171875,-17.7459716796875
15.809999900000001,-9.830592155456543,-0.7374141216278076,1.3431471586227417,0.213623046875,9.033203125,-16.7694091796875
15.8299999,-9.837775230407715,-0.828393816947937,1.2210428714752197,-2.1820068359375,-6.53076171875,-17.9290771484375
15.8499999,-9.897629737854004,-0.8810662031173706,1.1180921792984009,-2.8533935546875,-10.3607177734375,-17.63916015625
15.869999900000002,-9.895236015319824,-0.9457096457481384,1.0773907899856567,-7.7972412109375,-3.90625,-14.70947265625
15.889999900000001,-9.923966407775879,-1.01753568649292,1.1109095811843872,-7.99560546875,6.7138671875,-20.8740234375
15.9099999,-9.938331604003906,-1.1204863786697388,1.1492167711257935,-5.7525634765625,2.25830078125,-27.3895263671875
15.9299999,-9.971850395202637,-1.2306196689605713,1.2066776752471924,-2.7618408203125,-4.8980712890625,-27.618408203125
15.9499999,-9.988609313964844,-1.335964560508728,1.2282254695892334,1.6937255859375,-9.09423828125,-21.1029052734375
15.969999900000001,-9.940725326538086,-1.436521053314209,1.2210428714752197,5.096435546875,-10.43701171875,-18.768310546875
15.9899999,-9.847352027893066,-1.4987702369689941,1.2114660739898682,6.8359375,-12.51220703125,-19.8516845703125
16.0099999,-9.742006301879883,-1.5203180313110352,1.1994950771331787,9.552001953125,-11.0015869140625,-16.9677734375
16.0299999,-9.643844604492188,-1.5131354331970215,1.2042834758758545,12.420654296875,-7.9803466796875,-10.833740234375
16.0499999,-9.564835548400879,-1.4915876388549805,1.2282254695892334,12.481689453125,-4.7607421875,-7.38525390625
16.0699999,-9.514557838439941,-1.4724340438842773,1.2641384601593018,10.2996826171875,0.9307861328125,-7.50732421875
16.089999900000002,-9.488221168518066,-1.4628572463989258,1.3024457693099976,7.720947265625,9.21630859375,-7.9498291015625
16.109999900000002,-9.488221168518066,-1.4700398445129395,1.292868971824646,5.37109375,20.7977294921875,-6.7138671875
16.1299999,-9.528923034667969,-1.4963760375976562,1.2425906658172607,5.706787109375,29.2510986328125,-5.5389404296875
16.1499999,-9.610325813293457,-1.5322890281677246,1.1061211824417114,9.1400146484375,28.594970703125,-5.4473876953125
16.1699999,-9.727641105651855,-1.5610195398330688,0.9409212470054626,7.5225830078125,20.904541015625,-4.5928955078125
16.1899999,-9.837775230407715,-1.577778935432434,0.7924807667732239,4.791259765625,13.3209228515625,-3.47900390625
16.2099999,-9.911994934082031,-1.5682021379470825,0.6919242739677429,1.64794921875,8.941650390625,-2.6092529296875
16.2299999,-9.928754806518555,-1.5466543436050415,0.6655880808830261,-2.01416015625,2.99072265625,-1.1749267578125
16.249999900000002,-9.8784761428833,-1.4987702369689941,0.7134721279144287,-4.791259765625,-3.448486328125,0.9765625
16.269999900000002,-9.765948295593262,-1.4437036514282227,0.8044517636299133,-6.8206787109375,-2.9449462890625,2.9144287109375
16.2899999,-9.622296333312988,-1.381454348564148,0.9265560507774353,-8.819580078125,2.7923583984375,3.814697265625
16.3099999,-9.490615844726562,-1.3239935636520386,1.048660397529602,-11.474609375,5.5694580078125,3.7841796875
16.3299999,-9.421183586120605,-1.278503656387329,1.1492167711257935,-13.6871337890625,4.69970703125,0.274658203125
16.3499999,-9.423578262329102,-1.2832920551300049,1.2090718746185303,-13.6871337890625,8.3465576171875,-7.598876953125
16.3699999,-9.490615844726562,-1.3503297567367554,1.2018892765045166,-11.90185546875,16.876220703125,-17.8070068359375
16.3899999,-9.624691009521484,-1.4724340438842773,1.1540051698684692,-8.2855224609375,23.223876953125,-26.5350341796875
16.4099999,-9.763554573059082,-1.6711528301239014,1.0295066833496094,-2.0294189453125,24.8565673828125,-31.3720703125
16.429999900000002,-9.897629737854004,-1.9297266006469727,0.8547300100326538,7.4920654296875,19.59228515625,-30.242919921875
16.4499999,-9.979032516479492,-2.207453966140747,0.6607996821403503,18.4326171875,7.01904296875,-23.2696533203125
16.4699999,-9.979032516479492,-2.4851813316345215,0.5051765441894531,27.984619140625,-8.026123046875,-14.0533447265625
16.4899999,-9.907206535339355,-2.693476915359497,0.4165911078453064,35.2630615234375,-17.7459716796875,-5.2337646484375
16.5099999,-9.804255485534668,-2.7748796939849854,0.4405331015586853,41.778564453125,-23.9105224609375,0.6561279296875
16.5299999,-9.679757118225098,-2.717418909072876,0.5913678407669067,45.95947265625,-27.6031494140625,2.7313232421875
16.5499999,-9.579200744628906,-2.561795711517334,0.7972691655158997,47.943115234375,-26.9317626953125,2.8839111328125
16.5699999,-9.473855972290039,-2.3774423599243164,1.0582371950149536,48.2025146484375,-27.374267578125,4.7454833984375
16.589999900000002,-9.344569206237793,-2.2146365642547607,1.3215993642807007,45.0286865234375,-28.4576416015625,7.4310302734375
16.609999900000002,-9.188945770263672,-2.1284453868865967,1.5514427423477173,39.9627685546875,-18.0206298828125,9.0179443359375
16.6299999,-9.062053680419922,-2.118868589401245,1.7501614093780518,35.400390625,3.509521484375,11.0626220703125
16.6499999,-9.05247688293457,-2.1547815799713135,1.8339585065841675,30.029296875,23.406982421875,16.1895751953125
16.6699999,-9.198522567749023,-2.2002713680267334,1.7693150043487549,27.2216796875,26.9775390625,23.0255126953125
16.6899999,-9.500192642211914,-2.205059766769409,1.5849615335464478,24.23095703125,11.7645263671875,31.25
16.7099999,-9.852140426635742,-2.1284453868865967,1.3072341680526733,17.333984375,-8.5601806640625,39.24560546875
16.7299999,-10.144232749938965,-1.922544002532959,1.115697979927063,9.429931640625,-27.7557373046875,41.717529296875
16.749999900000002,-10.326191902160645,-1.6352397203445435,1.0797849893569946,1.4190673828125,-35.8734130859375,31.6314697265625
16.769999900000002,-10.316615104675293,-1.3455413579940796,1.1899182796478271,-5.5389404296875,-27.6947021484375,13.153076171875
16.7899999,-10.15141487121582,-1.1061211824417114,1.4221558570861816,-10.406494140625,-12.5579833984375,0
16.8099999,-9.883264541625977,-0.9888052940368652,1.6543933153152466,-11.77978515625,7.0343017578125,-6.77490234375
16.8299999,-9.600749015808105,-0.9840168952941895,1.8100165128707886,-10.2081298828125,27.5726318359375,-8.7432861328125
16.8499999,-9.397241592407227,-1.0606313943862915,1.843535304069519,-9.4146728515625,38.970947265625,-6.6680908203125
16.8699999,-9.318233489990234,-1.158793568611145,1.7549498081207275,-11.90185546875,36.834716796875,0.8392333984375
16.8899999,-9.337387084960938,-1.256955862045288,1.580173134803772,-15.1519775390625,31.4483642578125,8.6517333984375
16.9099999,-9.428366661071777,-1.3287819623947144,1.3718775510787964,-16.90673828125,29.47998046875,12.2833251953125
16.929999900000002,-9.583989143371582,-1.3335703611373901,1.1827356815338135,-15.80810546875,29.998779296875,13.7481689453125
16.9499999,-9.773131370544434,-1.2976573705673218,1.015141487121582,-13.36669921875,25.3143310546875,14.0838623046875
16.9699999,-9.967061996459961,-1.2186486721038818,0.8978256583213806,-10.8642578125,15.07568359375,13.0615234375
16.9899999,-10.11550235748291,-1.1444283723831177,0.8068459630012512,-9.002685546875,8.8043212890625,10.2386474609375
17.0099999,-10.18493366241455,-1.1085153818130493,0.7565677165985107,-7.2479248046875,6.866455078125,7.0343017578125
17.0299999,-10.187328338623047,-1.1061211824417114,0.7589619159698486,-6.7291259765625,2.74658203125,6.89697265625
17.0499999,-10.153809547424316,-1.1468225717544556,0.8044517636299133,-6.9732666015625,-0.152587890625,7.537841796875
17.0699999,-10.129867553710938,-1.1779472827911377,0.8834604024887085,-6.378173828125,-0.7171630859375,8.2244873046875
17.089999900000002,-10.110713958740234,-1.194706678390503,0.9696516990661621,-5.5389404296875,-0.3814697265625,7.3394775390625
17.109999900000002,-10.072406768798828,-1.1827356815338135,1.0342950820922852,-4.852294921875,-1.0223388671875,6.53076171875
17.1299999,-9.983820915222168,-1.1683704853057861,1.0678139925003052,-5.2490234375,-3.509521484375,7.568359375
17.1499999,-9.854534149169922,-1.1468225717544556,1.0821791887283325,-7.01904296875,-3.082275390625,7.476806640625
17.1699999,-9.715670585632324,-1.1324573755264282,1.0582371950149536,-7.62939453125,2.5634765625,3.0517578125
17.1899999,-9.583989143371582,-1.1228805780410767,1.039083480834961,-6.3018798828125,2.9449462890625,-0.42724609375
17.2099999,-9.476250648498535,-1.1180921792984009,1.0247182846069336,-5.4931640625,-0.91552734375,1.2359619140625
17.2299999,-9.409213066101074,-1.0989385843276978,1.0295066833496094,-5.6304931640625,-0.579833984375,4.39453125
17.249999900000002,-9.387664794921875,-1.048660397529602,1.036689281463623,-5.7373046875,2.5482177734375,4.5623779296875
17.269999900000002,-9.421183586120605,-0.9696516990661621,1.0558429956436157,-5.8441162109375,1.312255859375,5.279541015625
17.2899999,-9.521739959716797,-0.8547300100326538,1.0630255937576294,-7.3394775390625,-0.4119873046875,9.09423828125
17.3099999,-9.658209800720215,-0.7469909191131592,1.0630255937576294,-8.056640625,3.35693359375,10.2691650390625
17.3299999,-9.818621635437012,-0.629675030708313,1.0582371950149536,-6.8511962890625,8.392333984375,7.598876953125
17.3499999,-9.974244117736816,-0.5363011956214905,1.036689281463623,-4.8828125,8.0718994140625,5.6915283203125
17.3699999,-10.132261276245117,-0.4405331015586853,0.9911994934082031,-3.631591796875,1.64794921875,7.9193115234375
17.3899999,-10.273519515991211,-0.363918662071228,0.9361328482627869,-4.1046142578125,-4.2877197265625,10.955810546875
17.409999900000003,-10.38844108581543,-0.31124621629714966,0.8882488012313843,-5.5999755859375,-5.6610107421875,10.772705078125
17.429999900000002,-10.484209060668945,-0.24420857429504395,0.8595184087753296,-4.08935546875,-3.96728515625,10.1470947265625
17.4499999,-10.551246643066406,-0.20111294090747833,0.8379706144332886,-2.716064453125,-1.0528564453125,8.7738037109375
17.4699999,-10.572794914245605,-0.16998831927776337,0.8259995579719543,-3.35693359375,-1.8310546875,9.4451904296875
17.4899999,-10.57040023803711,-0.1388636976480484,0.8236053586006165,-4.0435791015625,-4.669189453125,12.1917724609375
17.5099999,-10.532093048095703,-0.11971008777618408,0.828393816947937,-4.547119140625,-3.5858154296875,11.8408203125
17.5299999,-10.474632263183594,-0.09576806426048279,0.8403648138046265,-6.3018798828125,-1.739501953125,9.7503662109375
17.5499999,-10.402806282043457,-0.08619125932455063,0.8523358106613159,-7.6141357421875,-2.471923828125,8.4381103515625
17.5699999,-10.316615104675293,-0.11013327538967133,0.8523358106613159,-8.4075927734375,-3.173828125,7.7972412109375
17.589999900000002,-10.218452453613281,-0.18914192914962769,0.8403648138046265,-8.4075927734375,-1.2359619140625,7.843017578125
17.609999900000002,-10.127472877502441,-0.31124621629714966,0.8212111592292786,-6.683349609375,0.5645751953125,7.7056884765625
17.6299999,-10.041281700134277,-0.4692635238170624,0.811634361743927,-4.669189453125,1.0833740234375,5.7525634765625
17.6499999,-9.979032516479492,-0.6416460275650024,0.7972691655158997,-2.9754638671875,0.7171630859375,2.6702880859375
17.6699999,-9.93354320526123,-0.8044517636299133,0.7924807667732239,-1.0528564453125,-1.8768310546875,-0.885009765625
17.6899999,-9.871294021606445,-0.9648633003234863,0.7852981686592102,1.434326171875,-3.7384033203125,-6.2103271484375
17.7099999,-9.785101890563965,-1.1061211824417114,0.7805097699165344,4.608154296875,-5.2642822265625,-9.7503662109375
17.7299999,-9.66299819946289,-1.2066776752471924,0.7948749661445618,6.7596435546875,-9.5367431640625,-8.5601806640625
17.749999900000002,-9.512163162231445,-1.2617442607879639,0.8331822156906128,7.6904296875,-12.8326416015625,-6.7596435546875
17.769999900000002,-9.370905876159668,-1.2425906658172607,0.9074024558067322,7.293701171875,-12.1917724609375,-5.615234375
17.7899999,-9.26795482635498,-1.1659762859344482,1.0007762908935547,6.378173828125,-8.9569091796875,-4.791259765625
17.8099999,-9.227252960205078,-1.0342950820922852,1.115697979927063,4.3487548828125,-7.8582763671875,-2.25830078125
17.8299999,-9.26795482635498,-0.8786720037460327,1.2330138683319092,1.190185546875,-6.8206787109375,0.30517578125
17.8499999,-9.402029991149902,-0.7182605266571045,1.3455413579940796,-2.532958984375,-3.4027099609375,0.9002685546875
17.8699999,-9.612719535827637,-0.5674257874488831,1.436521053314209,-6.195068359375,-0.1068115234375,1.1138916015625
17.8899999,-9.888052940368652,-0.42377370595932007,1.482010841369629,-9.521484375,0.244140625,2.197265625
17.909999900000003,-10.180145263671875,-0.31603461503982544,1.4484920501708984,-13.0157470703125,-2.4261474609375,2.197265625
17.929999900000002,-10.429142951965332,-0.2322375625371933,1.3623007535934448,-18.24951171875,-5.06591796875,0.030517578125
17.9499999,-10.594342231750488,-0.2106897532939911,1.2018892765045166,-16.1895751953125,-0.8697509765625,-1.6937255859375
17.9699999,-10.644620895385742,-0.2322375625371933,1.0079588890075684,-11.566162109375,4.791259765625,-3.3416748046875
17.9899999,-10.611102104187012,-0.30885201692581177,0.7972691655158997,-8.7127685546875,8.4228515625,-4.852294921875
18.0099999,-10.556035041809082,-0.40940847992897034,0.5889736413955688,-5.950927734375,11.5966796875,-7.232666015625
18.0299999,-10.486603736877441,-0.5291185975074768,0.40701428055763245,-2.410888671875,14.678955078125,-13.397216796875
18.0499999,-10.407594680786133,-0.6655880808830261,0.272938996553421,0.3814697265625,16.4947509765625,-19.59228515625
18.0699999,-10.271124839782715,-0.8212111592292786,0.19393034279346466,2.9754638671875,13.97705078125,-21.087646484375
18.089999900000002,-10.053253173828125,-0.9911994934082031,0.17477671802043915,5.43212890625,9.4451904296875,-18.218994140625
18.109999900000002,-9.77791976928711,-1.1468225717544556,0.22266076505184174,6.4849853515625,6.9427490234375,-12.420654296875
18.1299999,-9.50498104095459,-1.2713210582733154,0.33758243918418884,6.34765625,7.537841796875,-5.645751953125
18.1499999,-9.330204010009766,-1.3120225667953491,0.5219359993934631,4.82177734375,8.9569091796875,0.2593994140625
18.1699999,-9.287108421325684,-1.2689268589019775,0.7374141216278076,1.3427734375,11.90185546875,0.30517578125
18.1899999,-9.385271072387695,-1.161187767982483,0.9481038451194763,-2.7618408203125,15.2740478515625,-4.45556640625
18.2099999,-9.552865028381348,-1.0271124839782715,1.1252747774124146,-5.8441162109375,15.5487060546875,-8.0413818359375
18.2299999,-9.713275909423828,-0.9145850539207458,1.2401964664459229,-8.1329345703125,12.725830078125,-8.3160400390625
18.249999900000002,-9.821015357971191,-0.8355764150619507,1.3072341680526733,-9.6435546875,9.58251953125,-8.087158203125
18.269999900000002,-9.852140426635742,-0.7948749661445618,1.3311761617660522,-9.979248046875,9.0789794921875,-8.5601806640625
18.2899999,-9.823410034179688,-0.7589619159698486,1.3287819623947144,-7.8125,7.32421875,-6.1798095703125
18.3099999,-9.763554573059082,-0.6943184733390808,1.3072341680526733,-5.1727294921875,2.197265625,-0.244140625
18.3299999,-9.696516990661621,-0.608127236366272,1.2880805730819702,-3.41796875,-5.4473876953125,5.9661865234375
18.3499999,-9.660603523254395,-0.47644615173339844,1.280897855758667,-4.08935546875,-13.3209228515625,10.0250244140625
18.3699999,-9.639056205749512,-0.35673606395721436,1.2976573705673218,-6.1798095703125,-15.9454345703125,9.857177734375
18.3899999,-9.660603523254395,-0.2585737705230713,1.3335703611373901,-8.7738037109375,-12.02392578125,8.148193359375
18.409999900000003,-9.713275909423828,-0.2346317619085312,1.3551181554794312,-11.4898681640625,-3.4332275390625,4.5013427734375
18.429999900000002,-9.840168952941895,-0.2944868206977844,1.3335703611373901,-13.427734375,4.3792724609375,-0.8697509765625
18.4499999,-10.000580787658691,-0.43095630407333374,1.2425906658172607,-15.07568359375,6.5765380859375,-6.8206787109375
18.4699999,-10.156203269958496,-0.6368576288223267,1.0773907899856567,-15.6707763671875,5.18798828125,-10.4522705078125
18.4899999,-10.26394271850586,-0.8643068075180054,0.8667010068893433,-14.8162841796875,7.1563720703125,-10.284423828125
18.5099999,-10.278307914733887,-1.1013327836990356,0.6320692300796509,-11.77978515625,12.14599609375,-10.650634765625
18.5299999,-10.216058731079102,-1.3120225667953491,0.40940847992897034,-5.706787109375,10.9405517578125,-10.68115234375
18.5499999,-10.108319282531738,-1.4844050407409668,0.2298433631658554,-1.678466796875,2.532958984375,-6.65283203125
18.5699999,-9.976638793945312,-1.5945383310317993,0.13407529890537262,-1.1749267578125,-4.5166015625,-0.0762939453125
18.589999900000002,-9.852140426635742,-1.6089035272598267,0.13407529890537262,-1.64794921875,-4.7607421875,6.378173828125
18.609999900000002,-9.77791976928711,-1.5275006294250488,0.22505496442317963,0.701904296875,0.4425048828125,8.1787109375
18.6299999,-9.785101890563965,-1.3407529592514038,0.3663128614425659,-1.2664794921875,7.1563720703125,5.7830810546875
18.6499999,-9.835380554199219,-1.1180921792984009,0.5051765441894531,-6.04248046875,9.9945068359375,0.213623046875
18.6699999,-9.892841339111328,-0.9097966551780701,0.608127236366272,-8.9569091796875,6.561279296875,-2.288818359375
18.6899999,-9.909601211547852,-0.7781155705451965,0.6560112833976746,-10.8184814453125,1.251220703125,0.091552734375
18.7099999,-9.9000244140625,-0.727837324142456,0.6703764796257019,-12.63427734375,-0.4425048828125,1.89208984375
18.7299999,-9.892841339111328,-0.7493851184844971,0.6440402865409851,-13.18359375,2.25830078125,-2.0751953125
18.749999900000002,-9.895236015319824,-0.8140285611152649,0.608127236366272,-11.3525390625,-0.091552734375,-7.3089599609375
18.769999900000002,-9.909601211547852,-0.9097966551780701,0.5674257874488831,-9.3841552734375,-6.622314453125,-5.2337646484375
18.7899999,-9.914389610290527,-0.9983820915222168,0.5434837937355042,-8.4991455078125,-11.04736328125,1.5716552734375
18.8099999,-9.880870819091797,-1.0797849893569946,0.5602431893348694,-7.5531005859375,-9.796142578125,3.9215087890625
18.8299999,-9.883264541625977,-1.113303780555725,0.6224924325942993,-5.859375,-6.3629150390625,5.1727294921875
18.8499999,-9.945513725280762,-1.0893617868423462,0.7182605266571045,-4.0740966796875,-8.1939697265625,9.429931640625
18.8699999,-10.012551307678223,-1.0079588890075684,0.8355764150619507,-4.638671875,-16.6778564453125,13.6260986328125
18.8899999,-10.06043529510498,-0.871489405632019,0.9361328482627869,-8.1787109375,-20.3094482421875,16.1590576171875
18.909999900000003,-10.235212326049805,-0.7230489253997803,0.9696516990661621,-12.87841796875,-6.317138671875,17.8680419921875
18.929999900000002,-10.230423927307129,-0.5793967843055725,0.9241618514060974,-12.2833251953125,13.3819580078125,11.077880859375
18.9499999,-10.350133895874023,-0.40462008118629456,0.8212111592292786,-12.5885009765625,15.6402587890625,12.664794921875
18.9699999,-10.302249908447266,-0.272938996553421,0.646434485912323,-17.6544189453125,9.490966796875,19.805908203125
18.9899999,-10.20887565612793,-0.13168109953403473,0.48602294921875,-17.6544189453125,9.8114013671875,21.3623046875
19.0099999,-10.067618370056152,-0.038307227194309235,0.3016694188117981,-12.4359130859375,7.26318359375,26.214599609375
19.0299999,-9.940725326538086,0.035913024097681046,0.11971008777618408,-8.8348388671875,8.1329345703125,28.9306640625
19.0499999,-9.904812812805176,0.09576806426048279,-0.06703764945268631,-6.65283203125,13.18359375,24.200439453125
19.0699999,-9.90241813659668,0.13168109953403473,-0.23942017555236816,-1.64794921875,9.3994140625,18.7225341796875
19.089999900000002,-9.981427192687988,0.15322890877723694,-0.33997663855552673,3.3111572265625,4.0130615234375,14.6331787109375
19.109999900000002,-10.04846477508545,0.1364694982767105,-0.3519476354122162,7.9803466796875,0.6256103515625,8.60595703125
19.1299999,-10.072406768798828,0.06703764945268631,-0.2585737705230713,11.6119384765625,-5.8135986328125,3.3111572265625
19.1499999,-10.101137161254883,-0.05985504388809204,-0.090979665517807,14.404296875,-10.4217529296875,5.0506591796875
19.1699999,-10.089165687561035,-0.22266076505184174,0.15801730751991272,15.9912109375,-11.3525390625,7.0343017578125
19.1899999,-10.053253173828125,-0.3687070608139038,0.4692635238170624,15.167236328125,-10.711669921875,1.983642578125
19.2099999,-9.995792388916016,-0.4908113479614258,0.8164227604866028,14.2669677734375,-9.5367431640625,-3.173828125
19.2299999,-9.967061996459961,-0.5482721924781799,1.1875240802764893,12.298583984375,-13.8397216796875,0.8544921875
19.249999900000002,-9.909601211547852,-0.5434837937355042,1.5131354331970215,6.2713623046875,-13.3819580078125,7.87353515625
19.269999900000002,-9.873687744140625,-0.47165772318840027,1.764526605606079,-2.227783203125,-6.6680908203125,15.625
19.2899999,-9.806650161743164,-0.3256114423274994,1.9081788063049316,-9.82666015625,2.410888671875,17.8375244140625
19.3099999,-9.744400978088379,-0.12210428714752197,1.9177556037902832,-16.4337158203125,6.5155029296875,14.6331787109375
19.3299999,-9.643844604492188,0.05027823522686958,1.7621324062347412,-22.552490234375,9.2620849609375,3.7689208984375
19.3499999,-9.615114212036133,0.18914192914962769,1.556231141090393,-23.1475830078125,18.8751220703125,-10.4522705078125
19.3699999,-9.703699111938477,0.07182604819536209,0.9217676520347595,-12.0849609375,11.749267578125,-0.885009765625
19.3899999,-9.832986831665039,-0.10295066982507706,0.569819986820221,-4.9285888671875,11.29150390625,2.044677734375
19.409999900000003,-9.950302124023438,-0.28969839215278625,0.23702596127986908,-0.0457763671875,6.5460205078125,3.9825439453125
19.429999900000002,-10.017339706420898,-0.395043283700943,-0.016759412363171577,1.28173828125,2.777099609375,5.5084228515625
19.4499999,-9.995792388916016,-0.38067805767059326,-0.17238251864910126,1.5106201171875,0.6103515625,6.77490234375
19.4699999,-9.964667320251465,-0.2753331959247589,-0.22744916379451752,1.373291015625,-3.8299560546875,5.615234375
19.4899999,-9.979032516479492,-0.08140286058187485,-0.19871874153614044,-1.0986328125,-9.2620849609375,3.3416748046875
19.5099999,-10.086771965026855,0.12689268589019775,-0.11971008777618408,-4.8828125,-12.1002197265625,3.23486328125
19.5299999,-10.232817649841309,0.31842881441116333,-0.014365210197865963,-6.5460205078125,-13.7939453125,1.40380859375
19.5499999,-10.321403503417969,0.43095630407333374,0.11252748221158981,-5.2490234375,-17.791748046875,-1.251220703125
19.5699999,-10.333374977111816,0.45010992884635925,0.304063618183136,-4.2877197265625,-20.3094482421875,-0.2593994140625
19.589999900000002,-10.261548042297363,0.3974374830722809,0.5291185975074768,-7.232666015625,-18.646240234375,0.0152587890625
19.609999900000002,-10.067618370056152,0.29209262132644653,0.768538773059845,-7.62939453125,-16.876220703125,-2.044677734375
19.6299999,-9.983820915222168,0.14844051003456116,0.9983820915222168,-3.6163330078125,-17.0135498046875,-1.40380859375
19.6499999,-9.871294021606445,-0.0071826050989329815,1.1492167711257935,-1.7547607421875,-16.2811279296875,-0.06103515625
19.6699999,-9.849745750427246,-0.15322890877723694,1.2689268589019775,-2.01416015625,-14.556884765625,2.01416015625
19.6899999,-9.873687744140625,-0.22505496442317963,1.3838485479354858,-1.6632080078125,-12.9241943359375,3.387451171875
19.7099999,-9.962273597717285,-0.1843535304069519,1.5179238319396973,-2.44140625,-9.6893310546875,4.2266845703125
19.7299999,-10.079588890075684,-0.05506663769483566,1.6400281190872192,-5.645751953125,-5.0201416015625,4.119873046875
19.749999900000002,-10.170568466186523,0.10295066982507706,1.7142484188079834,-8.087158203125,-2.2430419921875,2.9754638671875
19.769999900000002,-10.182539939880371,0.24181437492370605,1.8052281141281128,-5.157470703125,-0.06103515625,0.6256103515625
19.7899999,-9.99100399017334,0.30885201692581177,1.8602946996688843,-0.946044921875,5.0506591796875,0.79345703125
19.8099999,-9.674968719482422,0.3064578175544739,1.8986018896102905,1.2664794921875,10.345458984375,-0.0152587890625
19.8299999,-9.332598686218262,0.2753331959247589,1.9105730056762695,1.5716552734375,13.3514404296875,-1.3427734375
19.8499999,-9.117119789123535,0.24899697303771973,1.8387469053268433,0.1220703125,17.303466796875,-2.99072265625
19.8699999,-9.126696586608887,0.2513911724090576,1.6424223184585571,-5.1422119140625,21.392822265625,-2.8076171875
19.8899999,-9.370905876159668,0.27054479718208313,1.3120225667953491,-10.1165771484375,20.20263671875,-3.72314453125
19.909999900000003,-9.751583099365234,0.2777273952960968,0.8882488012313843,-12.7410888671875,13.7176513671875,-4.57763671875
19.929999900000002,-10.180145263671875,0.2585737705230713,0.47405192255973816,-12.2222900390625,7.2174072265625,-4.2877197265625
19.9499999,-10.548852920532227,0.19153612852096558,0.15322890877723694,-9.4451904296875,2.8228759765625,-4.0130615234375
19.9699999,-10.74996566772461,0.07661445438861847,-0.014365210197865963,-6.1187744140625,-2.0599365234375,-3.5247802734375
19.9899999,-10.735600471496582,-0.05985504388809204,-0.014365210197865963,-2.4261474609375,-7.8125,-2.0294189453125
20.0099999,-10.498574256896973,-0.23942017555236816,0.16998831927776337,2.1209716796875,-10.2996826171875,-0.2593994140625
20.0299999,-10.105925559997559,-0.3998316824436188,0.49320554733276367,6.500244140625,-7.598876953125,2.0904541015625
20.0499999,-9.694122314453125,-0.5051765441894531,0.9169792532920837,9.674072265625,-3.692626953125,4.608154296875
20.0699999,-9.41639518737793,-0.4884171485900879,1.335964560508728,10.55908203125,0.1068115234375,6.8359375
