# Time (seconds),Accel_X,Accel_Y,Accel_Z,Gyro_X,Gyro_Y,Gyro_Z
0.0099999,0.9433154463768005,-7.536946773529053,4.867412090301514,61.737060546875,-17.6544189453125,5.096435546875
0.029999900000000003,1.0127472877502441,-7.441178798675537,5.274426460266113,50.323486328125,-15.8538818359375,-0.579833984375
0.0499999,1.1803414821624756,-7.508216381072998,5.628767967224121,38.1317138671875,-18.49365234375,-3.021240234375
0.0699999,1.4245500564575195,-7.747636795043945,5.894524574279785,31.3873291015625,-21.2554931640625,-1.495361328125
0.08999990000000001,1.7118542194366455,-8.090007781982422,6.074089527130127,27.52685546875,-19.1650390625,5.706787109375
0.10999990000000001,1.9704279899597168,-8.468291282653809,6.1530985832214355,21.66748046875,-19.866943359375,11.1083984375
0.1299999,2.166752576828003,-8.796297073364258,6.18182897567749,16.7083740234375,-26.7791748046875,14.434814453125
0.14999990000000002,2.2840683460235596,-9.062053680419922,6.162675380706787,15.4266357421875,-32.04345703125,16.41845703125
0.1699999,2.346317768096924,-9.41400146484375,6.009446144104004,15.350341796875,-30.1971435546875,20.8587646484375
0.1899999,2.3247697353363037,-9.53849983215332,5.896918773651123,18.8751220703125,-30.242919921875,21.4996337890625
0.20999990000000002,2.2433669567108154,-9.641449928283691,5.770026206970215,24.383544921875,-27.557373046875,19.22607421875
0.2299999,2.118868589401245,-9.701305389404297,5.631162166595459,29.8309326171875,-24.7039794921875,14.4805908203125
0.2499999,1.9800047874450684,-9.730035781860352,5.540182590484619,35.15625,-29.7393798828125,9.033203125
0.2699999,1.8914192914962769,-9.710882186889648,5.537788391113281,37.7960205078125,-35.491943359375,3.3721923828125
0.28999990000000003,1.9057846069335938,-9.651026725769043,5.643133640289307,35.064697265625,-31.402587890625,-1.617431640625
0.3099999,2.008735179901123,-9.57441234588623,5.863399982452393,26.8096923828125,-21.759033203125,-3.96728515625
0.3299999,2.123656988143921,-9.521739959716797,6.138733386993408,15.594482421875,-14.1754150390625,-3.9825439453125
0.34999990000000003,2.166752576828003,-9.50737476348877,6.3733649253845215,2.4871826171875,-10.3759765625,-2.899169921875
0.3699999,2.0422539710998535,-9.543288230895996,6.495469093322754,-10.4522705078125,-11.8255615234375,-3.1585693359375
0.3899999,1.7836803197860718,-9.600749015808105,6.478709697723389,-20.2484130859375,-20.538330078125,-6.77490234375
0.40999990000000003,1.4700398445129395,-9.641449928283691,6.349422931671143,-27.2216796875,-31.2042236328125,-13.2904052734375
0.4299999,1.1516109704971313,-9.672574996948242,6.13633918762207,-34.515380859375,-37.0635986328125,-20.20263671875
0.4499999,0.912190854549408,-9.703699111938477,5.8657941818237305,-43.88427734375,-39.215087890625,-25.665283203125
0.4699999,0.8044517636299133,-9.727641105651855,5.616796970367432,-55.6182861328125,-38.63525390625,-28.74755859375
0.4899999,0.8427590131759644,-9.739612579345703,5.363011837005615,-69.7174072265625,-30.3192138671875,-29.388427734375
0.5099999,0.9481038451194763,-9.720458984375,5.07570743560791,-83.770751953125,-22.5982666015625,-28.5491943359375
0.5299999,1.1300631761550903,-9.641449928283691,4.742913722991943,-95.52001953125,-25.604248046875,-26.8707275390625
0.5499999,1.316810965538025,-9.493009567260742,4.338293552398682,-106.9793701171875,-28.9306640625,-23.8800048828125
0.5699999,1.4508862495422363,-9.287108421325684,3.77565598487854,-120.2850341796875,-23.3612060546875,-18.951416015625
0.5899998999999999,1.5945383310317993,-9.124302864074707,3.1723172664642334,-130.79833984375,-27.130126953125,-10.345458984375
0.6099998999999999,1.6543933153152466,-8.966285705566406,2.5258827209472656,-137.664794921875,-39.4134521484375,1.0528564453125
0.6299999,1.6328455209732056,-8.901641845703125,1.8722656965255737,-144.4854736328125,-45.4864501953125,10.6658935546875
0.6499999,1.5418659448623657,-8.827422142028809,1.2976573705673218,-149.2919921875,-50.384521484375,18.1732177734375
0.6699999,1.4101848602294922,-8.686163902282715,0.8068459630012512,-152.7099609375,-53.0853271484375,23.529052734375
0.6899999,1.278503656387329,-8.480262756347656,0.40940847992897034,-155.4718017578125,-50.78125,26.2451171875
0.7099999,1.1899182796478271,-8.226476669311523,0.1173158809542656,-157.8216552734375,-43.5791015625,26.641845703125
0.7299998999999999,1.1492167711257935,-7.967903137207031,-0.1412578970193863,-161.773681640625,-31.982421875,24.47509765625
0.7499998999999999,1.2186486721038818,-7.769184589385986,-0.363918662071228,-165.4052734375,-19.2413330078125,20.477294921875
0.7699999,1.3910311460494995,-7.625532627105713,-0.6224924325942993,-167.3126220703125,-3.6773681640625,16.3726806640625
0.7899999,1.6328455209732056,-7.546523571014404,-0.9481038451194763,-167.7398681640625,12.87841796875,13.5345458984375
0.8099999,1.8507179021835327,-7.536946773529053,-1.3862427473068237,-167.1600341796875,23.590087890625,11.1541748046875
0.8299999,2.051830768585205,-7.575253963470459,-1.9033904075622559,-165.4510498046875,28.4576416015625,9.2010498046875
0.8499998999999999,2.212242364883423,-7.637503623962402,-2.5115175247192383,-162.7349853515625,34.9884033203125,8.4381103515625
0.8699998999999999,2.360682964324951,-7.714118003845215,-3.141192674636841,-158.2489013671875,39.4744873046875,10.1165771484375
0.8899999,2.516305923461914,-7.762001991271973,-3.773261785507202,-152.801513671875,36.80419921875,15.8538818359375
0.9099999,2.652775526046753,-7.773972988128662,-4.369418144226074,-148.0865478515625,28.594970703125,24.810791015625
0.9299999,2.736572504043579,-7.702147006988525,-4.853046894073486,-145.0347900390625,26.30615234375,34.637451171875
0.9499999,2.8371291160583496,-7.5201873779296875,-5.228936672210693,-143.9971923828125,42.9840087890625,42.3736572265625
0.9699998999999999,2.8347349166870117,-7.247248649597168,-5.564124584197998,-142.8375244140625,66.009521484375,46.7071533203125
0.9899998999999999,2.82515811920166,-6.92881965637207,-5.9304375648498535,-139.2669677734375,72.235107421875,46.9512939453125
1.0099999,2.827552318572998,-6.62236213684082,-6.335057735443115,-131.2408447265625,70.587158203125,44.9371337890625
1.0299999,2.8395233154296875,-6.406883716583252,-6.766014099121094,-121.612548828125,83.404541015625,42.8009033203125
1.0499999,2.8634653091430664,-6.246472358703613,-7.139509677886963,-116.0736083984375,91.3848876953125,39.8712158203125
1.0699999,2.8347349166870117,-6.13633918762207,-7.467514991760254,-106.3079833984375,84.9609375,38.7725830078125
1.0899999,2.7102363109588623,-6.033388137817383,-7.754819393157959,-90.5303955078125,68.328857421875,33.2489013671875
1.1099999,2.542642116546631,-5.928043365478516,-8.010998725891113,-72.3876953125,46.142578125,28.533935546875
1.1299999,2.4444799423217773,-5.841852188110352,-8.164227485656738,-55.7403564453125,26.0467529296875,27.8167724609375
1.1499999,2.5019407272338867,-5.813121795654297,-8.212111473083496,-44.403076171875,14.8773193359375,29.4189453125
1.1699998999999999,2.63362193107605,-5.851428985595703,-8.166622161865234,-34.820556640625,16.082763671875,33.6456298828125
1.1899998999999999,2.808398485183716,-5.932831764221191,-8.078036308288574,-26.4892578125,24.5513916015625,39.093017578125
1.2099999,2.999934673309326,-6.00226354598999,-7.948749542236328,-22.03369140625,37.4603271484375,41.5191650390625
1.2299999,3.1316158771514893,-6.035782337188721,-7.781155586242676,-22.1099853515625,52.9632568359375,42.266845703125
1.2499999,3.2082302570343018,-6.057330131530762,-7.630321025848389,-24.5819091796875,68.1610107421875,43.548583984375
1.2699999,3.1890766620635986,-6.110002517700195,-7.587224960327148,-23.162841796875,77.911376953125,44.8760986328125
1.2899999,3.0861260890960693,-6.222530364990234,-7.6782050132751465,-12.9547119140625,74.462890625,44.9676513671875
1.3099999,2.9448680877685547,-6.368576526641846,-7.8529815673828125,2.0294189453125,62.5152587890625,44.1131591796875
1.3299999,2.851494312286377,-6.5050458908081055,-7.979874134063721,14.7857666015625,51.910400390625,42.449951171875
1.3499999,2.846705913543701,-6.552929878234863,-7.915230751037598,24.2767333984375,48.6297607421875,39.337158203125
1.3699999,2.9712042808532715,-6.485892295837402,-7.592013359069824,31.6162109375,52.6123046875,35.1715087890625
1.3899999,3.1890766620635986,-6.347028732299805,-7.0557122230529785,34.515380859375,68.2525634765625,29.2205810546875
1.4099999,3.5482068061828613,-6.186617374420166,-6.457161903381348,33.2794189453125,97.4884033203125,24.5361328125
1.4299998999999999,3.9240965843200684,-6.129156112670898,-5.935225963592529,32.0587158203125,123.7335205078125,24.932861328125
1.4499999,4.273650169372559,-6.18182897567749,-5.544970989227295,31.9976806640625,137.542724609375,30.975341796875
1.4699999,4.517858505249023,-6.3733649253845215,-5.288791656494141,31.9976806640625,142.76123046875,40.46630859375
1.4899999,4.517858505249023,-6.5912370681762695,-5.137956619262695,30.548095703125,146.30126953125,50.6591796875
1.5099999,4.2951979637146,-6.72531270980835,-4.991910457611084,27.801513671875,144.195556640625,61.70654296875
1.5299999,3.88818359375,-6.7708024978637695,-4.900930881500244,21.5911865234375,132.50732421875,72.784423828125
1.5499999,3.404554843902588,-6.746860504150391,-4.754884719848633,13.1378173828125,112.2283935546875,83.55712890625
1.5699999,2.9664158821105957,-6.710947513580322,-4.616020679473877,6.5155029296875,84.6405029296875,90.484619140625
1.5899999,2.6815059185028076,-6.7708024978637695,-4.32871675491333,1.739501953125,52.91748046875,92.071533203125
1.6099999,2.6360161304473877,-6.952761650085449,-3.9695863723754883,-3.9520263671875,22.2320556640625,91.1865234375
1.6299999,2.7676970958709717,-7.15387487411499,-3.5960910320281982,-10.7574462890625,-3.35693359375,90.7440185546875
1.6499999,3.0550012588500977,-7.362170219421387,-3.2154128551483154,-16.11328125,-22.308349609375,90.118408203125
1.6699999,3.3470940589904785,-7.527369976043701,-2.959233283996582,-18.4326171875,-34.72900390625,86.5020751953125
1.6899998999999999,3.5482068061828613,-7.63989782333374,-2.8419175148010254,-18.73779296875,-41.9769287109375,80.4290771484375
1.7099999,3.598485231399536,-7.735665798187256,-2.918531894683838,-16.876220703125,-44.342041015625,76.385498046875
1.7299999,3.507505416870117,-7.795520782470703,-3.1459810733795166,-14.739990234375,-43.76220703125,71.258544921875
1.7499999,3.31118106842041,-7.85537576675415,-3.488351821899414,-9.1705322265625,-42.05322265625,63.8580322265625
1.7699999,3.0621838569641113,-7.898471355438232,-3.847482204437256,-2.777099609375,-39.581298828125,53.4210205078125
1.7899999,2.80361008644104,-8.018181800842285,-4.153939723968506,4.730224609375,-35.400390625,43.8232421875
1.8099999,2.5474305152893066,-8.224082946777344,-4.381389141082764,7.75146484375,-28.9154052734375,31.8450927734375
1.8299999,2.3247697353363037,-8.47547435760498,-4.51067590713501,10.894775390625,-25.3143310546875,22.8729248046875
1.8499999,2.1164743900299072,-8.762778282165527,-4.616020679473877,14.862060546875,-24.8260498046875,15.106201171875
1.8699999,1.946485996246338,-9.009381294250488,-4.711789131164551,18.24951171875,-28.01513671875,9.1400146484375
1.8899999,1.8267759084701538,-9.188945770263672,-4.81473970413208,23.040771484375,-34.942626953125,4.4708251953125
1.9099999,1.7932571172714233,-9.311050415039062,-4.920084476470947,28.5186767578125,-40.740966796875,-1.7547607421875
1.9299998999999999,1.843535304069519,-9.38048267364502,-4.98472785949707,30.82275390625,-38.604736328125,-9.552001953125
1.9499999,1.9153614044189453,-9.385271072387695,-5.013458251953125,26.519775390625,-30.609130859375,-14.6026611328125
1.9699999,2.0039467811584473,-9.38048267364502,-4.994304656982422,23.193359375,-25.787353515625,-19.439697265625
1.9899999,2.054224967956543,-9.378087997436523,-4.970362663269043,18.73779296875,-23.2696533203125,-23.5443115234375
2.0099999,2.0925323963165283,-9.402029991149902,-4.944026470184326,10.9405517578125,-21.6522216796875,-27.40478515625
2.0299999,2.1475989818573,-9.469067573547363,-4.927267074584961,2.471923828125,-19.927978515625,-30.33447265625
2.0499999,2.2242133617401123,-9.543288230895996,-4.920084476470947,-5.4473876953125,-16.6168212890625,-31.8450927734375
2.0699999,2.3343467712402344,-9.600749015808105,-4.898536682128906,-11.383056640625,-13.519287109375,-31.829833984375
2.0899999,2.4420857429504395,-9.617507934570312,-4.888959884643555,-15.68603515625,-10.55908203125,-29.23583984375
2.1099999,2.4851813316345215,-9.560047149658203,-4.929661273956299,-19.7906494140625,-8.1024169921875,-27.3284912109375
2.1299999,2.513911724090576,-9.481039047241211,-4.963180065155029,-16.1895751953125,-9.70458984375,-26.6876220703125
2.1499999,2.5258827209472656,-9.375694274902344,-5.011064052581787,-11.53564453125,-9.1705322265625,-28.350830078125
2.1699999,2.5330653190612793,-9.251194953918457,-5.035006046295166,-10.2081298828125,-6.2103271484375,-24.71923828125
2.1899999,2.58813214302063,-9.078812599182129,-5.03021764755249,-9.3994140625,-7.354736328125,-15.9454345703125
2.2099999,2.693476915359497,-8.798690795898438,-4.934449672698975,-2.99072265625,-10.986328125,-6.4697265625
2.2299999,2.832340717315674,-8.432378768920898,-4.709394931793213,3.84521484375,-4.8370361328125,4.8675537109375
2.2499999,2.9879636764526367,-8.051700592041016,-4.400542736053467,-10.1318359375,9.58251953125,18.4173583984375
2.2699999,3.090914487838745,-7.740454196929932,-4.084507942199707,-27.77099609375,19.439697265625,34.4085693359375
2.2899999,3.0789434909820557,-7.558494567871094,-3.8762125968933105,-30.303955078125,23.6968994140625,50.7049560546875
2.3099999,2.9328970909118652,-7.4986395835876465,-3.8570590019226074,-35.2935791015625,25.848388671875,68.8018798828125
2.3299999,2.6240451335906982,-7.544129371643066,-4.07014274597168,-49.31640625,30.9295654296875,82.489013671875
2.3499999,2.2457611560821533,-7.603984832763672,-4.37420654296875,-59.356689453125,28.80859375,91.796875
2.3699999,1.8555063009262085,-7.666234016418457,-4.788403511047363,-62.347412109375,24.3682861328125,99.5330810546875
2.3899999,1.4915876388549805,-7.694964408874512,-5.2480902671813965,-62.255859375,23.4832763671875,107.1929931640625
2.4099999,1.1563993692398071,-7.673416614532471,-5.74129581451416,-63.934326171875,25.390625,111.6790771484375
2.4299999,0.8978256583213806,-7.6111674308776855,-6.2201361656188965,-63.0645751953125,26.6876220703125,110.9466552734375
2.4499999,0.629675030708313,-7.493851184844971,-6.675034523010254,-60.8062744140625,28.045654296875,109.9090576171875
2.4699999,0.3878606855869293,-7.299921035766602,-7.0557122230529785,-59.9822998046875,29.449462890625,108.33740234375
2.4899999,0.17238251864910126,-7.043741226196289,-7.309497833251953,-57.861328125,29.388427734375,103.1341552734375
2.5099999,-0.07900865375995636,-6.782773494720459,-7.489062786102295,-53.497314453125,29.5867919921875,94.78759765625
2.5299999,-0.33039984107017517,-6.607996463775635,-7.589619159698486,-42.8619384765625,28.7017822265625,84.014892578125
2.5499999,-0.5530605912208557,-6.574477672576904,-7.637503623962402,-27.03857421875,27.679443359375,71.4569091796875
2.5699999,-0.7469909191131592,-6.665457725524902,-7.671022415161133,-12.0697021484375,30.9295654296875,58.16650390625
2.5899999,-0.8355764150619507,-6.828263282775879,-7.68538761138916,2.50244140625,36.3311767578125,43.548583984375
2.6099999,-0.8044517636299133,-6.981492042541504,-7.603984832763672,16.6778564453125,41.7633056640625,29.72412109375
2.6299999,-0.6655880808830261,-7.168240070343018,-7.407660007476807,23.25439453125,52.032470703125,20.538330078125
2.6499999,-0.4884171485900879,-7.249642848968506,-7.287950038909912,22.7813720703125,60.821533203125,15.8843994140625
2.6699999,-0.3519476354122162,-7.266402244567871,-7.096413612365723,25.69580078125,56.427001953125,12.6953125
2.6899999,-0.304063618183136,-7.216124057769775,-7.091625213623047,24.59716796875,50.9490966796875,8.453369140625
2.7099999,-0.28969839215278625,-7.144298076629639,-7.175422668457031,21.5606689453125,46.4935302734375,5.92041015625
2.7299999,-0.24181437492370605,-7.113173484802246,-7.204153060913086,20.4620361328125,42.633056640625,7.3699951171875
2.7499999,-0.15083470940589905,-7.1706342697143555,-7.194576263427734,17.7459716796875,41.68701171875,10.498046875
2.7699999,-0.031124621629714966,-7.266402244567871,-7.067683219909668,13.7939453125,37.933349609375,13.458251953125
2.7899999,0.043095629662275314,-7.362170219421387,-6.88332986831665,9.6435546875,32.65380859375,16.7083740234375
2.8099999,0.033518824726343155,-7.510610580444336,-6.715735912322998,5.9051513671875,28.228759765625,20.4010009765625
2.8299999,-0.011971008032560349,-7.608773231506348,-6.596025466918945,6.317138671875,24.90234375,22.918701171875
2.8499999,-0.07661445438861847,-7.642292022705078,-6.564900875091553,6.072998046875,29.1595458984375,24.383544921875
2.8699999,-0.11252748221158981,-7.5632829666137695,-6.574477672576904,-1.312255859375,39.24560546875,27.9693603515625
2.8899999,-0.10773907601833344,-7.424419403076172,-6.62236213684082,-8.8958740234375,44.4488525390625,32.3638916015625
2.9099999,-0.090979665517807,-7.314286231994629,-6.627150535583496,-9.46044921875,38.818359375,35.5377197265625
2.9299999,-0.08858546614646912,-7.29034423828125,-6.5912370681762695,-7.8277587890625,28.0914306640625,36.0107421875
2.9499999,-0.10773907601833344,-7.331045627593994,-6.5696892738342285,-9.521484375,17.4407958984375,35.736083984375
2.9699999,-0.1149216815829277,-7.376535415649414,-6.50025749206543,-10.1165771484375,6.7138671875,36.7584228515625
2.9899999,-0.1149216815829277,-7.393294811248779,-6.421248912811279,-10.833740234375,0.9613037109375,37.2772216796875
3.0099999,-0.10773907601833344,-7.386112213134766,-6.411672115325928,-15.6402587890625,1.5869140625,35.491943359375
3.0299999,-0.16998831927776337,-7.354987621307373,-6.418854713439941,-19.1192626953125,3.2196044921875,31.5399169921875
3.0499999,-0.28730419278144836,-7.3023152351379395,-6.4834980964660645,-20.4620361328125,6.2255859375,26.336669921875
3.0699999,-0.4357447028160095,-7.24485445022583,-6.572083473205566,-25.7415771484375,12.939453125,21.2249755859375
3.0899999,-0.6105214357376099,-7.2113356590271,-6.720524311065674,-37.2467041015625,19.4854736328125,17.4407958984375
3.1099999,-0.7326257228851318,-7.206547260284424,-6.885724067687988,-49.7894287109375,18.6309814453125,14.3890380859375
3.1299999,-0.8595184087753296,-7.223306655883789,-7.168240070343018,-58.6090087890625,12.664794921875,13.5345458984375
3.1499999,-0.9289502501487732,-7.216124057769775,-7.4986395835876465,-61.4776611328125,1.46484375,14.373779296875
3.1699999,-0.9624691009521484,-7.134721279144287,-7.800309181213379,-61.0504150390625,-16.1285400390625,16.8609619140625
3.1899999,-0.9457096457481384,-6.955155849456787,-7.970297336578369,-63.568115234375,-29.2510986328125,19.9127197265625
3.2099999,-0.9097966551780701,-6.71334171295166,-7.994239330291748,-67.352294921875,-29.2510986328125,20.751953125
3.2299999,-0.8427590131759644,-6.461950302124023,-7.903259754180908,-66.436767578125,-23.040771484375,18.3868408203125
3.2499999,-0.7613561153411865,-6.248866558074951,-7.7883381843566895,-59.6923828125,-14.7705078125,15.1519775390625
3.2699999,-0.7110779285430908,-6.050147533416748,-7.738059997558594,-50.35400390625,-6.103515625,15.106201171875
3.2899999,-0.6631938815116882,-5.95677375793457,-7.817068576812744,-35.6903076171875,-1.8157958984375,17.9901123046875
3.3099999,-0.6751648783683777,-5.9088897705078125,-7.999027729034424,-15.625,0.6103515625,21.42333984375
3.3299999000000002,-0.7230489253997803,-5.935225963592529,-8.255207061767578,3.173828125,0.091552734375,23.1781005859375
3.3499999,-0.7852981686592102,-6.030993938446045,-8.501810073852539,21.3775634765625,-7.3699951171875,25.482177734375
3.3699999,-0.9002198576927185,-6.124367713928223,-8.702922821044922,39.703369140625,-24.8260498046875,28.1219482421875
3.3899999,-1.0414776802062988,-6.203376770019531,-8.904036521911621,53.5430908203125,-46.9818115234375,28.045654296875
3.4099999,-1.194706678390503,-6.27280855178833,-9.105149269104004,62.8814697265625,-69.5648193359375,28.4271240234375
3.4299999,-1.3311761617660522,-6.308721542358398,-9.23682975769043,77.545166015625,-82.4127197265625,27.89306640625
3.4499999,-1.381454348564148,-6.344634532928467,-9.165003776550293,92.529296875,-70.1751708984375,21.3470458984375
3.4699999,-1.3335703611373901,-6.368576526641846,-8.860940933227539,100.433349609375,-47.05810546875,14.8162841796875
3.4899999,-1.3072341680526733,-6.349422931671143,-8.274360656738281,102.60009765625,-30.5938720703125,13.946533203125
3.5099999,-1.314416766166687,-6.3302693367004395,-7.654263019561768,97.8851318359375,-15.625,12.5274658203125
3.5299999,-1.4413094520568848,-6.294356346130371,-7.216124057769775,91.217041015625,-7.4005126953125,12.054443359375
3.5499999,-1.6639702320098877,-6.2632317543029785,-7.029376029968262,88.6688232421875,-12.2222900390625,18.2647705078125
3.5699999,-1.9345149993896484,-6.229712963104248,-7.0317702293396,92.6971435546875,-20.843505859375,27.4658203125
3.5899999,-2.229001760482788,-6.234501361846924,-7.0341644287109375,93.6431884765625,-17.974853515625,34.820556640625
3.6099999,-2.499546527862549,-6.335057735443115,-6.950367450714111,86.48681640625,-1.922607421875,36.8194580078125
3.6299999,-2.8371291160583496,-6.495469093322754,-6.715735912322998,91.3848876953125,9.1094970703125,30.1513671875
3.6499999,-3.2345664501190186,-6.744466304779053,-6.538564682006836,109.9395751953125,11.474609375,14.5111083984375
3.6699999,-3.794809579849243,-7.048529624938965,-6.607996463775635,133.8653564453125,5.0506591796875,-2.3040771484375
3.6899999,-4.481945514678955,-7.268796443939209,-6.780379295349121,149.5208740234375,-21.5606689453125,-10.406494140625
3.7099999,-5.080495834350586,-7.587224960327148,-6.988674640655518,165.3289794921875,-68.2373046875,-16.17431640625
3.7299999,-5.480327606201172,-7.8960771560668945,-6.720524311065674,185.516357421875,-112.060546875,-23.0255126953125
3.7499999,-5.504269599914551,-8.128314971923828,-5.901707172393799,192.047119140625,-141.4794921875,-25.299072265625
3.7699999,-4.41969633102417,-8.17380428314209,-2.367865562438965,168.853759765625,-150.1922607421875,-23.7579345703125
3.7899999,-3.643975019454956,-8.058882713317871,-0.33039984107017517,140.7623291015625,-130.18798828125,-19.622802734375
3.8099999,-2.765302896499634,-8.015787124633789,1.601720929145813,109.283447265625,-101.165771484375,-11.383056640625
3.8299999000000002,-2.097320795059204,-8.106766700744629,3.1004912853240967,77.056884765625,-52.6123046875,-1.2664794921875
3.8499999,-1.678335428237915,-8.29590892791748,3.9671921730041504,45.3948974609375,0.42724609375,4.180908203125
3.8699999,-1.699883222579956,-8.422801971435547,4.273650169372559,20.44677734375,16.4947509765625,1.6326904296875
3.8899999,-2.027888774871826,-8.547300338745117,4.003105163574219,2.2125244140625,13.763427734375,-7.049560546875
3.9099999,-2.4851813316345215,-8.585607528686523,3.4189200401306152,-10.589599609375,8.85009765625,-14.9993896484375
3.9299999,-2.63362193107605,-8.597578048706055,2.7676970958709717,-22.4456787109375,6.28662109375,-13.3209228515625
3.9499999,-2.3080103397369385,-8.59997272491455,2.2146365642547607,-37.322998046875,8.48388671875,5.126953125
3.9699999,-1.7094600200653076,-8.621520042419434,1.7477672100067139,-52.9022216796875,14.892578125,39.1387939453125
3.9899999,-1.1444283723831177,-8.638279914855957,1.357512354850769,-61.798095703125,14.9993896484375,75.3631591796875
4.0099999,-0.9840168952941895,-8.631096839904785,0.9528923034667969,-61.767578125,7.354736328125,96.1456298828125
4.029999900000001,-1.3192051649093628,-8.573636054992676,0.5530605912208557,-54.3060302734375,-4.913330078125,99.6246337890625
4.0499999,-1.9273324012756348,-8.451532363891602,0.2346317619085312,-45.806884765625,-18.61572265625,101.9744873046875
4.069999900000001,-2.6192567348480225,-8.286332130432129,0.009576806798577309,-41.168212890625,-23.681640625,113.3880615234375
4.0899999000000005,-3.2369606494903564,-8.085219383239746,-0.10534487664699554,-36.346435546875,-18.6920166015625,125.213623046875
4.1099999,-3.7852327823638916,-7.876923561096191,-0.1412578970193863,-27.801513671875,-10.772705078125,126.2664794921875
4.1299999000000005,-4.347870349884033,-7.663839817047119,-0.18914192914962769,-18.6309814453125,-5.645751953125,123.6114501953125
4.1499999,-4.944026470184326,-7.467514991760254,-0.2513911724090576,-10.9405517578125,-16.9677734375,128.387451171875
4.1699999000000005,-5.5114521980285645,-7.232883453369141,-0.2777273952960968,-3.7994384765625,-31.5093994140625,134.1400146484375
4.1899999,-6.007051944732666,-7.003039836883545,-0.26575639843940735,1.64794921875,-28.4576416015625,134.1094970703125
4.209999900000001,-6.512228488922119,-6.751648902893066,-0.20350714027881622,3.9825439453125,-21.453857421875,136.749267578125
4.2299999,-7.074865818023682,-6.421248912811279,-0.08619125932455063,4.852294921875,-25.054931640625,136.6424560546875
4.249999900000001,-7.733271598815918,-6.078877925872803,0.031124621629714966,4.8065185546875,-21.453857421875,117.2943115234375
4.2699999,-8.40843677520752,-5.7341132164001465,0.1149216815829277,3.7689208984375,-5.43212890625,88.043212890625
4.289999900000001,-8.947132110595703,-5.463568210601807,0.19153612852096558,1.9378662109375,2.593994140625,69.88525390625
4.3099999,-9.224859237670898,-5.324704647064209,0.2322375625371933,-0.640869140625,-0.518798828125,66.2078857421875
4.329999900000001,-9.2033109664917,-5.307945251464844,0.2801215946674347,-2.38037109375,-3.4332275390625,69.76318359375
4.3499999,-9.026140213012695,-5.331887245178223,0.33758243918418884,-4.1351318359375,-0.54931640625,77.4993896484375
4.369999900000001,-8.796297073364258,-5.317522048950195,0.4141969084739685,-7.5225830078125,0.42724609375,88.9739990234375
4.3899999,-8.736441612243652,-5.2049946784973145,0.5003881454467773,-11.3983154296875,-6.16455078125,99.6246337890625
4.409999900000001,-8.863334655761719,-5.0014872550964355,0.5817909836769104,-13.5040283203125,-14.95361328125,100.1129150390625
4.4299999,-9.17697525024414,-4.72376012802124,0.6560112833976746,-14.83154296875,-19.989013671875,95.5810546875
4.449999900000001,-9.59596061706543,-4.4077253341674805,0.7350199222564697,-16.78466796875,-21.1181640625,94.3756103515625
4.4699999,-10.007762908935547,-4.046200752258301,0.828393816947937,-18.9666748046875,-20.8740234375,91.49169921875
4.489999900000001,-10.33098030090332,-3.7205893993377686,0.9145850539207458,-21.392822265625,-15.8538818359375,82.03125
4.5099999,-10.575188636779785,-3.4332852363586426,0.9600749015808105,-24.383544921875,-12.0849609375,76.6143798828125
4.529999900000001,-10.718840599060059,-3.2321722507476807,0.950498104095459,-27.03857421875,-16.387939453125,79.0557861328125
4.5499999,-10.766724586486816,-3.117250680923462,0.8906430602073669,-29.1900634765625,-19.7601318359375,79.071044921875
4.569999900000001,-10.781089782714844,-3.1100680828094482,0.811634361743927,-30.3802490234375,-12.603759765625,69.793701171875
4.5899999000000005,-10.87446403503418,-3.1435868740081787,0.730231523513794,-30.5938720703125,1.2054443359375,54.7637939453125
4.609999900000001,-11.101913452148438,-3.2082302570343018,0.6631938815116882,-29.266357421875,13.9617919921875,28.3050537109375
4.6299999000000005,-11.532869338989258,-3.315969467163086,0.6033388376235962,-26.5045166015625,19.866943359375,-11.6119384765625
4.6499999,-12.196063041687012,-3.4739866256713867,0.5410895943641663,-23.6663818359375,11.3067626953125,-55.5572509765625
4.6699999000000005,-12.969390869140625,-3.6296098232269287,0.5003881454467773,-20.4010009765625,-8.7738037109375,-103.5614013671875
4.6899999,-13.64455509185791,-3.869029998779297,0.49559974670410156,-14.6026611328125,-22.03369140625,-159.576416015625
4.709999900000001,-14.030021667480469,-4.19224739074707,0.5913678407669067,-10.5438232421875,-25.0244140625,-213.165283203125
4.7299999,-13.883975982666016,-4.606443881988525,0.7541735172271729,-11.962890625,-15.44189453125,-253.9215087890625
4.749999900000001,-13.055582046508789,-5.2480902671813965,0.9528923034667969,-14.58740234375,11.3677978515625,-279.1595458984375
4.7699999,-11.714828491210938,-6.138733386993408,1.0869675874710083,-10.223388671875,41.839599609375,-282.5469970703125
4.789999900000001,-10.093954086303711,-7.208941459655762,1.0295066833496094,-3.0517578125,54.5196533203125,-265.8538818359375
4.8099999,-8.516175270080566,-8.4108304977417,0.7445967197418213,8.11767578125,42.96875,-243.7286376953125
4.829999900000001,-7.264008045196533,-9.459490776062012,0.2992752194404602,28.3355712890625,18.280029296875,-220.4132080078125
4.8499999,-6.308721542358398,-10.165780067443848,-0.14604631066322327,50.018310546875,-6.2408447265625,-200.7598876953125
4.869999900000001,-5.628767967224121,-10.424354553222656,-0.4357447028160095,66.8182373046875,-19.3023681640625,-191.6656494140625
4.8899999,-5.0254292488098145,-10.249577522277832,-0.47165772318840027,73.3184814453125,-20.9808349609375,-190.093994140625
4.909999900000001,-4.412513732910156,-9.804255485534668,-0.2561795711517334,73.944091796875,-17.1966552734375,-189.9261474609375
4.9299999,-3.7828385829925537,-9.301473617553711,0.10534487664699554,70.587158203125,-8.9111328125,-186.8896484375
4.949999900000001,-3.0813376903533936,-8.834604263305664,0.4884171485900879,64.51416015625,-3.60107421875,-177.0477294921875
4.9699999,-2.365471363067627,-8.506598472595215,0.849941611289978,57.281494140625,-11.71875,-162.5518798828125
4.989999900000001,-1.6519991159439087,-8.286332130432129,1.1659762859344482,46.539306640625,-20.9808349609375,-145.5230712890625
5.0099999,-1.048660397529602,-8.190564155578613,1.4197616577148438,32.3638916015625,-14.0533447265625,-128.662109375
5.029999900000001,-0.6129156351089478,-8.142680168151855,1.6352397203445435,19.317626953125,-3.0517578125,-116.180419921875
5.0499999,-0.37828385829925537,-8.109161376953125,1.8076223134994507,7.568359375,-0.8392333984375,-110.90087890625
5.069999900000001,-0.3447650372982025,-8.118738174438477,1.8387469053268433,-5.2947998046875,-2.0599365234375,-110.4583740234375
5.0899999000000005,-0.4141969084739685,-8.130708694458008,1.7741034030914307,-11.6729736328125,-8.0718994140625,-107.11669921875
5.109999900000001,-0.48602294921875,-8.238448143005371,1.5849615335464478,-11.7950439453125,-18.890380859375,-101.2725830078125
5.1299999000000005,-0.4692635238170624,-8.439560890197754,1.357512354850769,-8.0413818359375,-29.571533203125,-96.435546875
5.1499999,-0.31603461503982544,-8.671798706054688,1.1252747774124146,-2.777099609375,-35.3240966796875,-89.5538330078125
5.1699999000000005,-0.011971008032560349,-8.892065048217773,0.9624691009521484,1.8768310546875,-36.2548828125,-79.254150390625
5.1899999,0.4141969084739685,-9.040505409240723,0.9600749015808105,5.3863525390625,-38.787841796875,-67.6727294921875
5.209999900000001,0.7852981686592102,-9.10993766784668,0.9696516990661621,6.8206787109375,-35.8428955078125,-60.211181640625
5.2299999,1.1061211824417114,-9.102754592895508,1.1109095811843872,8.6822509765625,-27.374267578125,-58.441162109375
5.249999900000001,1.3215993642807007,-9.093177795410156,1.2234370708465576,13.2293701171875,-29.5257568359375,-58.4869384765625
5.2699999,1.4628572463989258,-9.002198219299316,1.3215993642807007,16.693115234375,-38.3453369140625,-56.2744140625
5.289999900000001,1.702277421951294,-8.978256225585938,1.5083470344543457,16.3421630859375,-39.031982421875,-53.192138671875
5.3099999,1.9608511924743652,-8.908824920654297,1.6639702320098877,14.3585205078125,-25.4669189453125,-52.7496337890625
5.329999900000001,2.2457611560821533,-8.889671325683594,1.8291701078414917,12.8936767578125,-11.3525390625,-51.8341064453125
5.3499999,2.454056739807129,-8.9064302444458,1.9273324012756348,13.6260986328125,-11.16943359375,-48.6907958984375
5.369999900000001,2.5665841102600098,-8.939949035644531,1.9584569931030273,15.8843994140625,-23.6968994140625,-46.112060546875
5.3899999,2.693476915359497,-8.971074104309082,2.006340980529785,17.2119140625,-34.393310546875,-46.2646484375
5.409999900000001,2.851494312286377,-8.983044624328613,2.094926595687866,14.6942138671875,-31.982421875,-45.4559326171875
5.4299999,3.090914487838745,-8.932766914367676,2.248155355453491,9.185791015625,-26.0162353515625,-41.4886474609375
5.449999900000001,3.3662476539611816,-8.860940933227539,2.410961151123047,1.983642578125,-19.683837890625,-41.7633056640625
5.4699999,3.5913026332855225,-8.774748802185059,2.5043349266052246,-3.9215087890625,-11.41357421875,-48.03466796875
5.489999900000001,3.7493197917938232,-8.71728801727295,2.4875755310058594,-5.67626953125,-8.4686279296875,-52.3681640625
5.5099999,3.8714241981506348,-8.681375503540039,2.3774423599243164,-4.3487548828125,-15.045166015625,-52.8411865234375
5.529999900000001,3.971980571746826,-8.65743350982666,2.183511972427368,-3.2501220703125,-24.2919921875,-52.4444580078125
5.5499999,4.129997730255127,-8.614337921142578,2.006340980529785,-2.8228759765625,-30.731201171875,-52.398681640625
5.569999900000001,4.3622355461120605,-8.51138687133789,1.845929503440857,-3.143310546875,-32.073974609375,-52.42919921875
5.5899999000000005,4.697423934936523,-8.480262756347656,1.7812861204147339,-5.462646484375,-28.0914306640625,-50.6744384765625
5.609999900000001,5.078101634979248,-8.38449478149414,1.7381904125213623,-9.2010498046875,-22.796630859375,-44.7845458984375
5.6299999000000005,5.384559631347656,-8.358158111572266,1.702277421951294,-12.969970703125,-18.0816650390625,-39.8406982421875
5.6499999,5.604825973510742,-8.324639320373535,1.6352397203445435,-15.0146484375,-11.749267578125,-41.0919189453125
5.6699999000000005,5.65031623840332,-8.219294548034668,1.4652514457702637,-14.495849609375,-5.55419921875,-45.1812744140625
5.6899999,5.633556365966797,-8.087613105773926,1.3215993642807007,-12.1612548828125,-9.0484619140625,-47.943115234375
5.709999900000001,5.547365188598633,-7.893682956695557,1.0749965906143188,-10.3302001953125,-17.8375244140625,-51.2542724609375
5.7299999,5.602431774139404,-7.671022415161133,1.015141487121582,-11.1846923828125,-21.1944580078125,-53.9093017578125
5.749999900000001,5.65031623840332,-7.417236804962158,0.8810662031173706,-14.83154296875,-18.12744140625,-53.192138671875
5.7699999,5.822698593139648,-7.189787864685059,0.871489405632019,-18.4326171875,-14.22119140625,-52.3223876953125
5.789999900000001,5.990292549133301,-6.988674640655518,0.8212111592292786,-20.477294921875,-11.90185546875,-53.070068359375
5.8099999,6.150704383850098,-6.842628479003906,0.7541735172271729,-20.7366943359375,-11.7645263671875,-52.24609375
5.829999900000001,6.299144744873047,-6.746860504150391,0.6919242739677429,-20.6146240234375,-14.0228271484375,-49.4842529296875
5.8499999,6.490680694580078,-6.658275127410889,0.6320692300796509,-21.331787109375,-15.3656005859375,-46.173095703125
5.869999900000001,6.710947513580322,-6.624756336212158,0.586579442024231,-23.2086181640625,-10.650634765625,-41.5802001953125
5.8899999,6.912060260772705,-6.581660270690918,0.5554547905921936,-24.1851806640625,-5.0811767578125,-34.66796875
5.909999900000001,7.048529624938965,-6.600813865661621,0.47165772318840027,-23.2696533203125,-5.6610107421875,-29.8309326171875
5.9299999,7.094019412994385,-6.5696892738342285,0.3663128614425659,-20.416259765625,-9.2315673828125,-31.158447265625
5.949999900000001,7.103596210479736,-6.572083473205566,0.26096799969673157,-18.157958984375,-9.368896484375,-33.87451171875
5.9699999,7.072471618652344,-6.473921298980713,0.10295066982507706,-17.120361328125,-4.0740966796875,-33.782958984375
5.989999900000001,7.091625213623047,-6.378153324127197,0.038307227194309235,-15.19775390625,-0.9918212890625,-34.60693359375
6.0099999,7.06528902053833,-6.217741966247559,-0.05985504388809204,-11.962890625,-4.150390625,-37.90283203125
6.029999900000001,7.050923824310303,-6.102819919586182,-0.09576806426048279,-9.4451904296875,-10.772705078125,-40.5120849609375
6.0499999,7.072471618652344,-5.942408561706543,-0.08140286058187485,-9.613037109375,-14.0380859375,-41.1376953125
6.069999900000001,7.151480674743652,-5.813121795654297,-0.026336219161748886,-12.664794921875,-11.199951171875,-41.07666015625
6.0899999000000005,7.295132637023926,-5.676652431488037,0.043095629662275314,-17.059326171875,-4.669189453125,-40.8935546875
6.109999900000001,7.46033239364624,-5.542576789855957,0.08140286058187485,-20.1416015625,-1.129150390625,-39.154052734375
6.1299999000000005,7.5968017578125,-5.449203014373779,0.038307227194309235,-21.3470458984375,-3.11279296875,-34.759521484375
6.149999900000001,7.69735860824585,-5.382165431976318,-0.07422025501728058,-21.2860107421875,-7.4920654296875,-29.998779296875
6.1699999000000005,7.766790390014648,-5.339069843292236,-0.21547815203666687,-19.805908203125,-11.474609375,-27.03857421875
6.1899999,7.829039573669434,-5.276820659637451,-0.3519476354122162,-18.798828125,-11.77978515625,-24.078369140625
6.209999900000001,7.86734676361084,-5.224148273468018,-0.5051765441894531,-18.1427001953125,-9.918212890625,-19.012451171875
6.2299999,7.91283655166626,-5.147533416748047,-0.6320692300796509,-17.7001953125,-7.75146484375,-14.3280029296875
6.249999900000001,7.955932140350342,-5.109226226806641,-0.7637503147125244,-16.7694091796875,-4.3182373046875,-12.9852294921875
6.2699999,7.979874134063721,-5.106832027435303,-0.9744400978088379,-15.1519775390625,1.861572265625,-11.932373046875
6.289999900000001,8.032546997070312,-5.197812080383301,-1.1851298809051514,-5.9814453125,5.828857421875,-10.19287109375
6.3099999,8.121131896972656,-5.310339450836182,-1.37906014919281,8.36181640625,4.8370361328125,-6.4239501953125
6.329999900000001,8.236053466796875,-5.430049419403076,-1.4963760375976562,11.3983154296875,8.6517333984375,-1.983642578125
6.3499999,8.348581314086914,-5.47075080871582,-1.4748282432556152,9.796142578125,12.8631591796875,-0.5340576171875
6.369999900000001,8.42040729522705,-5.384559631347656,-1.3431471586227417,7.50732421875,15.869140625,-1.4190673828125
6.3899999,8.4108304977417,-5.214571475982666,-1.1779472827911377,4.425048828125,21.78955078125,-5.706787109375
6.409999900000001,8.346187591552734,-5.013458251953125,-1.0199298858642578,2.7618408203125,28.7322998046875,-12.26806640625
6.4299999,8.269572257995605,-4.838681697845459,-0.8978256583213806,2.1209716796875,30.33447265625,-15.594482421875
6.449999900000001,8.248024940490723,-4.7405195236206055,-0.8044517636299133,2.1209716796875,27.618408203125,-14.2822265625
6.4699999,8.312667846679688,-4.728548526763916,-0.7158663272857666,3.265380859375,24.5208740234375,-9.46044921875
6.489999900000001,8.44434928894043,-4.795586109161377,-0.5913678407669067,5.096435546875,20.111083984375,-1.8768310546875
6.5099999,8.59997272491455,-4.886565685272217,-0.4213795065879822,5.92041015625,15.3961181640625,7.6141357421875
6.529999900000001,8.707711219787598,-4.994304656982422,-0.2106897532939911,6.011962890625,15.5487060546875,14.251708984375
6.5499999,8.722076416015625,-5.092466831207275,0.019153613597154617,5.5389404296875,22.613525390625,15.625
6.569999900000001,8.60236644744873,-5.1810526847839355,0.2753331959247589,4.2724609375,29.7088623046875,13.0615234375
6.5899999000000005,8.370129585266113,-5.245696067810059,0.6153098344802856,-0.4425048828125,32.989501953125,6.683349609375
6.609999900000001,8.061277389526367,-5.279214859008789,1.0654197931289673,-13.12255859375,38.7420654296875,-6.500244140625
6.6299999000000005,7.735665798187256,-5.257667064666748,1.6352397203445435,-33.843994140625,45.3643798828125,-24.9786376953125
6.649999900000001,7.474697589874268,-5.157110691070557,2.2457611560821533,-60.394287109375,43.792724609375,-44.9066162109375
6.6699999000000005,7.371747016906738,-4.970362663269043,2.7437551021575928,-88.7451171875,35.125732421875,-62.9119873046875
6.6899999,7.457938194274902,-4.7189717292785645,3.002328872680664,-114.593505859375,25.054931640625,-78.2318115234375
6.709999900000001,7.728483200073242,-4.441244125366211,2.8850131034851074,-133.9263916015625,17.8680419921875,-88.3636474609375
6.7299999,8.161833763122559,-4.199429988861084,2.38462495803833,-142.88330078125,10.284423828125,-91.4764404296875
6.749999900000001,8.635885238647461,-4.036623954772949,1.5298948287963867,-139.8773193359375,0.274658203125,-87.7532958984375
6.7699999,9.102754592895508,-3.9695863723754883,0.4668693244457245,-126.4190673828125,-9.857177734375,-78.338623046875
6.789999900000001,9.481039047241211,-3.9695863723754883,-0.6392518281936646,-106.3385009765625,-16.998291015625,-65.73486328125
6.8099999,9.734824180603027,-3.998316764831543,-1.6400281190872192,-82.794189453125,-22.613525390625,-51.69677734375
6.829999900000001,9.859322547912598,-3.995922565460205,-2.408566951751709,-57.037353515625,-23.37646484375,-37.6129150390625
6.8499999,9.871294021606445,-3.9264907836914062,-2.9017724990844727,-31.0821533203125,-15.289306640625,-24.7802734375
6.869999900000001,9.773131370544434,-3.7684733867645264,-3.1220390796661377,-5.4473876953125,-3.814697265625,-14.2364501953125
6.8899999,9.593565940856934,-3.514688014984131,-3.090914487838745,18.798828125,2.0751953125,-3.8909912109375
6.909999900000001,9.368511199951172,-3.1699230670928955,-2.8586769104003906,39.4134521484375,2.25830078125,7.2021484375
6.9299999,9.131484985351562,-2.762908697128296,-2.4803929328918457,53.985595703125,2.3651123046875,18.0511474609375
6.949999900000001,8.96149730682373,-2.3104045391082764,-1.9823989868164062,61.6912841796875,6.439208984375,29.6173095703125
6.9699999,8.868123054504395,-1.8746598958969116,-1.4269442558288574,62.652587890625,14.617919921875,40.924072265625
6.989999900000001,8.815450668334961,-1.5131354331970215,-0.8738836050033569,57.8460693359375,21.78955078125,52.093505859375
7.0099999,8.796297073364258,-1.292868971824646,-0.3734954595565796,49.25537109375,21.8658447265625,63.4765625
7.029999900000001,8.741230010986328,-1.2689268589019775,0.026336219161748886,37.4298095703125,14.16015625,74.3408203125
7.0499999,8.707711219787598,-1.4317326545715332,0.3495534360408783,20.20263671875,8.575439453125,84.1217041015625
7.069999900000001,8.607154846191406,-1.7956513166427612,0.5602431893348694,-1.1138916015625,15.1824951171875,91.00341796875
7.0899999000000005,8.44434928894043,-2.2577321529388428,0.6775590777397156,-21.0723876953125,22.6593017578125,93.9483642578125
7.109999900000001,8.154650688171387,-2.808398485183716,0.6655880808830261,-37.3992919921875,25.909423828125,90.14892578125
7.1299999000000005,7.766790390014648,-3.383007049560547,0.5099649429321289,-49.1943359375,25.8941650390625,80.047607421875
7.149999900000001,7.362170219421387,-3.974374771118164,0.2561795711517334,-54.8553466796875,22.52197265625,68.2373046875
7.1699999000000005,7.041347026824951,-4.563348293304443,-0.05267243832349777,-55.5877685546875,18.646240234375,57.7850341796875
7.1899999,6.864176273345947,-5.128379821777344,-0.363918662071228,-52.001953125,15.1519775390625,49.346923828125
7.209999900000001,6.8378400802612305,-5.655104637145996,-0.6248866319656372,-44.86083984375,9.6282958984375,43.1365966796875
7.2299999,6.955155849456787,-6.088454723358154,-0.8236053586006165,-36.92626953125,0.9307861328125,39.9932861328125
7.249999900000001,7.146692276000977,-6.445190906524658,-0.9433154463768005,-28.594970703125,-6.9580078125,39.36767578125
7.2699999,7.390900611877441,-6.677428722381592,-0.9528923034667969,-20.81298828125,-12.4053955078125,40.283203125
7.289999900000001,7.5968017578125,-6.797138690948486,-0.9074024558067322,-15.838623046875,-12.7410888671875,41.56494140625
7.3099999,7.740454196929932,-6.811503887176514,-0.8212111592292786,-12.6800537109375,-7.7056884765625,41.3665771484375
7.329999900000001,7.771578788757324,-6.761225700378418,-0.7493851184844971,-9.2926025390625,-3.2958984375,40.8172607421875
7.3499999,7.723694801330566,-6.653486728668213,-0.7038952708244324,-6.5765380859375,-4.5318603515625,42.3736572265625
7.369999900000001,7.608773231506348,-6.572083473205566,-0.7086837291717529,-6.28662109375,-5.157470703125,44.891357421875
7.3899999,7.486668586730957,-6.495469093322754,-0.706289529800415,-7.1258544921875,-2.0751953125,47.79052734375
7.409999900000001,7.354987621307373,-6.4834980964660645,-0.7613561153411865,-6.500244140625,1.800537109375,51.483154296875
7.4299999,7.206547260284424,-6.521805286407471,-0.8355764150619507,-4.4403076171875,0.946044921875,58.074951171875
7.449999900000001,7.01979923248291,-6.588842868804932,-0.9385270476341248,-2.25830078125,-1.4190673828125,64.483642578125
7.4699999,6.794744491577148,-6.6846113204956055,-1.0678139925003052,1.1138916015625,-0.4119873046875,66.802978515625
7.489999900000001,6.593631267547607,-6.780379295349121,-1.1324573755264282,4.8675537109375,2.01416015625,67.6116943359375
7.5099999,6.382941722869873,-6.912060260772705,-1.1540051698684692,6.28662109375,0.9002685546875,73.0133056640625
7.529999900000001,6.236895561218262,-7.029376029968262,-1.1109095811843872,6.2103271484375,-1.739501953125,82.5042724609375
7.5499999,6.071695327758789,-7.216124057769775,-1.0199298858642578,7.2479248046875,-0.1983642578125,89.29443359375
7.569999900000001,5.8442463874816895,-7.493851184844971,-1.115697979927063,12.4053955078125,-1.9073486328125,95.9625244140625
7.5899999000000005,5.578489780426025,-7.7643961906433105,-1.1468225717544556,28.6102294921875,-14.0533447265625,104.98046875
7.609999900000001,5.2696380615234375,-8.063671112060547,-1.2234370708465576,37.5518798828125,-14.678955078125,111.358642578125
7.6299999000000005,4.932055473327637,-8.324639320373535,-1.1779472827911377,35.3851318359375,3.7841796875,108.70361328125
7.649999900000001,4.132391929626465,-8.789113998413086,-0.811634361743927,32.53173828125,28.7017822265625,101.8829345703125
7.6699999000000005,3.6128504276275635,-9.066842079162598,-0.6703764796257019,33.6151123046875,32.6385498046875,94.9249267578125
7.6899999,3.0406360626220703,-9.361329078674316,-0.5913678407669067,37.261962890625,34.4390869140625,82.7789306640625
7.709999900000001,2.518700122833252,-9.617507934570312,-0.5530605912208557,43.45703125,32.3333740234375,70.9075927734375
7.7299999,2.1068975925445557,-9.847352027893066,-0.5051765441894531,50.567626953125,27.435302734375,62.4847412109375
7.749999900000001,1.8291701078414917,-10.010157585144043,-0.3974374830722809,55.4351806640625,24.9481201171875,57.7239990234375
7.7699999,1.6519991159439087,-10.062829971313477,-0.22744916379451752,57.342529296875,26.4434814453125,52.7496337890625
7.789999900000001,1.5394717454910278,-9.99100399017334,0,58.135986328125,26.3214111328125,45.0439453125
7.8099999,1.4484920501708984,-9.823410034179688,0.26096799969673157,58.441162109375,22.430419921875,38.055419921875
7.829999900000001,1.3934253454208374,-9.619902610778809,0.5578489899635315,55.7708740234375,22.64404296875,35.0341796875
7.8499999,1.359906554222107,-9.39245319366455,0.8595184087753296,48.4466552734375,31.6162109375,34.4390869140625
7.869999900000001,1.403002142906189,-9.157821655273438,1.170764684677124,40.924072265625,39.1998291015625,33.3251953125
7.8899999,1.4891934394836426,-8.932766914367676,1.4460978507995605,35.430908203125,40.8477783203125,34.820556640625
7.909999900000001,1.50355863571167,-8.746018409729004,1.647210717201233,30.3192138671875,38.848876953125,45.379638671875
7.9299999,1.4389152526855469,-8.585607528686523,1.7860745191574097,22.4761962890625,38.5284423828125,58.3038330078125
7.949999900000001,1.235408067703247,-8.463502883911133,1.8555063009262085,14.5263671875,42.6177978515625,61.859130859375
7.9699999,0.9696516990661621,-8.377311706542969,1.922544002532959,9.1400146484375,47.05810546875,57.8460693359375
7.989999900000001,0.6751648783683777,-8.348581314086914,1.9632453918457031,4.2877197265625,54.8248291015625,59.14306640625
8.0099999,0.2944868206977844,-8.42040729522705,1.9752163887023926,-0.1373291015625,62.8509521484375,67.4896240234375
8.0299999,-0.09816227108240128,-8.537723541259766,1.944091796875,-1.068115234375,65.49072265625,72.2198486328125
8.049999900000001,-0.5123591423034668,-8.65982723236084,1.867477297782898,3.41796875,65.338134765625,68.389892578125
8.069999900000001,-0.811634361743927,-8.736441612243652,1.8339585065841675,9.368896484375,67.7032470703125,64.27001953125
8.0899999,-0.9552865028381348,-8.774748802185059,1.9177556037902832,12.5579833984375,78.399658203125,68.0999755859375
8.1099999,-0.9696516990661621,-8.791508674621582,2.166752576828003,12.237548828125,95.306396484375,77.3162841796875
8.129999900000001,-1.0247182846069336,-8.829815864562988,2.5929205417633057,11.04736328125,117.431640625,87.2802734375
8.149999900000001,-1.278503656387329,-8.899248123168945,3.050212860107422,6.9580078125,141.5557861328125,94.3603515625
8.1699999,-1.8507179021835327,-9.045293807983398,3.406949043273926,0.6103515625,146.2554931640625,95.5963134765625
8.1899999,-2.779668092727661,-9.327810287475586,3.5458126068115234,-0.579833984375,118.59130859375,90.1031494140625
8.2099999,-3.957615375518799,-9.727641105651855,3.4308910369873047,4.974365234375,73.028564453125,79.681396484375
8.229999900000001,-5.094861030578613,-10.211270332336426,3.1723172664642334,14.007568359375,33.1878662109375,65.704345703125
8.2499999,-6.078877925872803,-10.824186325073242,2.9496564865112305,22.8271484375,10.986328125,48.126220703125
8.2699999,-6.799532890319824,-11.487380027770996,2.873042106628418,29.510498046875,7.476806640625,27.099609375
8.2899999,-7.223306655883789,-12.143390655517578,2.9520506858825684,36.2091064453125,13.1072998046875,-0.9307861328125
8.309999900000001,-7.4555439949035645,-12.746729850769043,3.157952070236206,43.1060791015625,10.772705078125,-35.70556640625
8.3299999,-7.534552574157715,-13.256694793701172,3.471592426300049,48.1414794921875,-1.5869140625,-71.7010498046875
8.3499999,-7.333439826965332,-13.64216136932373,3.9695863723754883,50.59814453125,-6.011962890625,-112.0147705078125
8.3699999,-6.871358871459961,-13.951013565063477,4.618414878845215,48.797607421875,4.241943359375,-151.336669921875
8.389999900000001,-6.042964935302734,-14.056358337402344,5.372588634490967,40.130615234375,1.46484375,-172.0733642578125
8.4099999,-4.8482584953308105,-13.867216110229492,6.066906929016113,24.0020751953125,-27.40478515625,-173.9959716796875
8.4299999,-3.4117374420166016,-13.330915451049805,6.540958881378174,3.387451171875,-65.155029296875,-168.212890625
8.4499999,-1.922544002532959,-12.504915237426758,6.720524311065674,-20.4925537109375,-92.315673828125,-161.407470703125
8.469999900000001,-0.5889736413955688,-11.513715744018555,6.581660270690918,-46.539306640625,-98.8922119140625,-158.203125
8.4899999,0.44771572947502136,-10.532093048095703,6.14831018447876,-69.3817138671875,-90.576171875,-162.1551513671875
8.5099999,1.161187767982483,-9.677363395690918,5.434837818145752,-83.648681640625,-78.2012939453125,-172.7142333984375
8.5299999,1.6543933153152466,-9.059659004211426,4.51067590713501,-87.34130859375,-65.5364990234375,-182.12890625
8.549999900000001,1.98958158493042,-8.710105895996094,3.450044631958008,-82.489013671875,-53.9093017578125,-183.2427978515625
8.569999900000001,2.2888567447662354,-8.56884765625,2.3750481605529785,-70.1446533203125,-46.7681884765625,-178.8330078125
8.5899999,2.5761611461639404,-8.571242332458496,1.3934253454208374,-51.5289306640625,-46.4324951171875,-176.4373779296875
8.6099999,2.913743495941162,-8.516175270080566,0.6009446382522583,-31.829833984375,-49.285888671875,-173.553466796875
8.629999900000001,3.354276657104492,-8.33182144165039,0.08379705995321274,-13.1072998046875,-47.637939453125,-164.9932861328125
8.649999900000001,3.861847400665283,-7.9176249504089355,-0.1388636976480484,1.1138916015625,-37.6129150390625,-153.411865234375
8.6699999,4.395754337310791,-7.29034423828125,-0.12928688526153564,9.5977783203125,-22.3236083984375,-144.53125
8.6899999,4.874594688415527,-6.531382083892822,0.035913024097681046,14.7705078125,-10.4522705078125,-139.2059326171875
8.709999900000001,5.279214859008789,-5.702988624572754,0.24181437492370605,16.78466796875,-1.129150390625,-131.439208984375
8.729999900000001,5.640739440917969,-4.932055473327637,0.43335050344467163,15.8233642578125,7.50732421875,-120.6512451171875
8.7499999,5.959167957305908,-4.264073371887207,0.5626373887062073,13.8397216796875,12.603759765625,-108.795166015625
8.7699999,6.332663536071777,-3.8331170082092285,0.6727706789970398,11.04736328125,15.899658203125,-94.3603515625
8.7899999,6.641515731811523,-3.6104562282562256,0.7206547260284424,6.4849853515625,25.5126953125,-74.554443359375
8.809999900000001,6.933608055114746,-3.581725835800171,0.7852981686592102,1.8157958984375,31.8756103515625,-55.5419921875
8.8299999,7.089231014251709,-3.6990416049957275,0.8164227604866028,-1.8310546875,28.7628173828125,-44.9066162109375
8.8499999,7.070077419281006,-3.8714241981506348,0.8259995579719543,-3.387451171875,16.4642333984375,-37.59765625
8.8699999,6.957550048828125,-4.050989151000977,0.8259995579719543,-2.1209716796875,0.9613037109375,-31.31103515625
8.889999900000001,6.7923502922058105,-4.256890773773193,0.8140285611152649,0.42724609375,-7.6446533203125,-31.7535400390625
8.9099999,6.71334171295166,-4.436455726623535,0.8451532125473022,2.13623046875,-11.993408203125,-37.17041015625
8.9299999,6.768408298492432,-4.572925090789795,0.9433154463768005,1.5869140625,-13.824462890625,-41.9464111328125
8.9499999,6.983886241912842,-4.659116744995117,1.0773907899856567,-1.4190673828125,-11.90185546875,-44.3878173828125
8.969999900000001,7.316680431365967,-4.709394931793213,1.2306196689605713,-4.5318603515625,-13.580322265625,-45.318603515625
8.9899999,7.7428483963012695,-4.721365928649902,1.3718775510787964,-6.988525390625,-17.9290771484375,-44.525146484375
9.0099999,8.164227485656738,-4.714183330535889,1.45806884765625,-8.48388671875,-18.2342529296875,-41.9464111328125
9.0299999,8.504204750061035,-4.654327869415283,1.4939818382263184,-9.33837890625,-18.157958984375,-36.2396240234375
9.049999900000001,8.712499618530273,-4.534617900848389,1.4652514457702637,-9.3841552734375,-20.3094482421875,-30.82275390625
9.069999900000001,8.755595207214355,-4.369418144226074,1.3646949529647827,-8.6669921875,-24.1241455078125,-28.228759765625
9.0899999,8.712499618530273,-4.1874589920043945,1.2234370708465576,-7.3699951171875,-31.280517578125,-23.8189697265625
9.1099999,8.65982723236084,-4.027047157287598,1.0630255937576294,-6.4239501953125,-38.7115478515625,-14.984130859375
9.129999900000001,8.65982723236084,-3.8570590019226074,1.0342950820922852,-8.3770751953125,-39.55078125,-4.913330078125
9.149999900000001,8.7268648147583,-3.646369218826294,1.1994950771331787,-24.688720703125,-25.2227783203125,3.5858154296875
9.1699999,8.645462036132812,-3.576937437057495,1.115697979927063,-49.957275390625,-6.28662109375,7.87353515625
9.1899999,8.429984092712402,-3.536235809326172,1.1085153818130493,-56.121826171875,-10.6201171875,8.148193359375
9.209999900000001,8.042123794555664,-3.737348794937134,0.6224924325942993,-47.1038818359375,-34.36279296875,5.8441162109375
9.229999900000001,7.659051418304443,-4.082113742828369,0.06224924325942993,-34.7137451171875,-47.3175048828125,0.701904296875
9.2499999,7.4986395835876465,-4.446032524108887,-0.47405192255973816,-24.47509765625,-36.376953125,-5.0201416015625
9.2699999,7.587224960327148,-4.879383087158203,-0.9241618514060974,-16.448974609375,-17.0440673828125,-6.6680908203125
9.2899999,7.8960771560668945,-5.212177276611328,-1.2521674633026123,-8.331298828125,-4.08935546875,-5.584716796875
9.309999900000001,8.252813339233398,-5.523423194885254,-1.4724340438842773,1.52587890625,0.4730224609375,-4.7760009765625
9.3299999,8.552088737487793,-5.683835029602051,-1.659181833267212,12.87841796875,0.6256103515625,-3.96728515625
9.3499999,8.757989883422852,-5.710171222686768,-1.8818424940109253,23.468017578125,1.3885498046875,-4.2572021484375
9.3699999,8.863334655761719,-5.655104637145996,-1.9704279899597168,44.158935546875,1.77001953125,-7.4310302734375
9.389999900000001,8.973467826843262,-5.410895824432373,-1.9512743949890137,72.6776123046875,-0.7781982421875,-9.27734375
9.4099999,9.097966194152832,-5.097255229949951,-1.6352397203445435,76.751708984375,2.13623046875,-4.852294921875
9.4299999,9.282320022583008,-4.642356872558594,-1.070208191871643,61.431884765625,3.1585693359375,4.364013671875
9.4499999,9.41639518737793,-4.127603530883789,-0.3232172429561615,41.6107177734375,1.2054443359375,13.8397216796875
9.469999900000001,9.466673851013184,-3.665522813796997,0.3878606855869293,21.5606689453125,0.8697509765625,20.751953125
9.4899999,9.390059471130371,-3.31118106842041,0.9983820915222168,1.8157958984375,-0.9918212890625,25.8331298828125
9.5099999,9.150638580322266,-3.136404275894165,1.3407529592514038,-17.6544189453125,4.302978515625,29.0374755859375
9.5299999,8.755595207214355,-3.1675288677215576,1.4077905416488647,-33.203125,2.3040771484375,30.5328369140625
9.549999900000001,8.236053466796875,-3.3686418533325195,1.2042834758758545,-41.32080078125,-13.5498046875,28.99169921875
9.569999900000001,7.675810813903809,-3.7205893993377686,0.8068459630012512,-43.45703125,-23.3917236328125,19.9127197265625
9.5899999,7.24485445022583,-4.168305397033691,0.35434186458587646,-43.1976318359375,-20.6298828125,6.8511962890625
9.6099999,7.058106422424316,-4.671087741851807,-0.07661445438861847,-42.694091796875,-12.1002197265625,-0.8697509765625
9.629999900000001,7.1251444816589355,-5.183446884155273,-0.4620809257030487,-39.703369140625,-9.246826171875,0.335693359375
9.649999900000001,7.393294811248779,-5.635950565338135,-0.7733271718025208,-32.3638916015625,-17.852783203125,5.584716796875
9.6699999,7.747636795043945,-5.95677375793457,-1.0031704902648926,-23.92578125,-24.7344970703125,9.09423828125
9.6899999,8.106766700744629,-6.090848922729492,-1.139639973640442,-17.9443359375,-18.6767578125,9.33837890625
9.709999900000001,8.38688850402832,-6.030993938446045,-1.1994950771331787,-14.0380859375,-4.3792724609375,7.5531005859375
9.729999900000001,8.53532886505127,-5.817910194396973,-1.2306196689605713,-10.711669921875,14.6636962890625,2.532958984375
9.7499999,8.528146743774414,-5.547365188598633,-1.314416766166687,-5.2947998046875,24.078369140625,-5.340576171875
9.7699999,8.482656478881836,-5.274426460266113,-1.3934253454208374,3.41796875,12.20703125,-9.246826171875
9.7899999,8.40843677520752,-5.061342239379883,-1.434126853942871,11.1236572265625,-3.5858154296875,-4.7607421875
9.809999900000001,8.470685958862305,-4.874594688415527,-1.3623007535934448,14.9078369140625,-9.6588134765625,5.2947998046875
9.8299999,8.576030731201172,-4.728548526763916,-1.1899182796478271,16.2353515625,-3.7078857421875,11.9476318359375
9.8499999,8.698134422302246,-4.618414878845215,-0.9768342971801758,16.8914794921875,0.7171630859375,15.7012939453125
9.8699999,8.777143478393555,-4.537012100219727,-0.7996633648872375,17.4102783203125,-0.274658203125,20.8282470703125
9.889999900000001,8.743624687194824,-4.532223701477051,-0.6943184733390808,18.0816650390625,-1.3427734375,26.3519287109375
9.9099999,8.62630844116211,-4.563348293304443,-0.6536170840263367,18.98193359375,-0.42724609375,31.1737060546875
9.9299999,8.446743965148926,-4.63517427444458,-0.6536170840263367,19.744873046875,1.9073486328125,33.355712890625
9.9499999,8.252813339233398,-4.721365928649902,-0.667982280254364,19.4549560546875,5.340576171875,33.5540771484375
9.969999900000001,8.094796180725098,-4.824316501617432,-0.6847416758537292,18.4326171875,10.68115234375,33.7677001953125
9.9899999,7.9846625328063965,-4.946420669555664,-0.6967126727104187,17.9595947265625,16.2200927734375,35.4461669921875
10.0099999,7.91283655166626,-5.0900726318359375,-0.7134721279144287,19.1497802734375,17.578125,38.604736328125
10.0299999,7.8745293617248535,-5.252878665924072,-0.7182605266571045,22.6287841796875,13.7176513671875,41.9769287109375
10.049999900000001,7.848193168640137,-5.43723201751709,-0.689530074596405,26.42822265625,10.2386474609375,44.4793701171875
10.069999900000001,7.845798969268799,-5.633556365966797,-0.6248866319656372,28.3966064453125,12.8173828125,46.112060546875
10.0899999,7.817068576812744,-5.868188381195068,-0.5506663918495178,30.2276611328125,17.3492431640625,47.5921630859375
10.1099999,7.7428483963012695,-6.133944988250732,-0.4908113479614258,34.8663330078125,15.93017578125,49.072265625
10.129999900000001,7.5968017578125,-6.440402507781982,-0.4668693244457245,41.961669921875,10.2996826171875,49.102783203125
10.149999900000001,7.378929615020752,-6.766014099121094,-0.45010992884635925,49.5147705078125,5.9661865234375,47.8057861328125
10.1699999,7.127538681030273,-7.0772600173950195,-0.3998316824436188,57.06787109375,1.953125,46.9207763671875
10.1899999,6.8593878746032715,-7.340622425079346,-0.2849099934101105,64.697265625,-3.570556640625,46.478271484375
10.209999900000001,6.617573261260986,-7.522581577301025,-0.090979665517807,71.5789794921875,-6.53076171875,45.2117919921875
10.229999900000001,6.418854713439941,-7.615955829620361,0.181959331035614,76.0650634765625,-1.312255859375,40.802001953125
10.2499999,6.275202751159668,-7.627926826477051,0.5147533416748047,77.6824951171875,8.8043212890625,35.4461669921875
10.2699999,6.203376770019531,-7.580042362213135,0.9002198576927185,77.239990234375,15.3045654296875,31.92138671875
10.2899999,6.157886981964111,-7.496245384216309,1.2976573705673218,74.4476318359375,18.524169921875,29.8919677734375
10.309999900000001,6.141127586364746,-7.378929615020752,1.6950948238372803,69.7479248046875,21.026611328125,27.8778076171875
10.3299999,6.114790916442871,-7.261613845825195,2.0877439975738525,64.0869140625,21.8505859375,23.92578125
10.3499999,6.095637321472168,-7.156269073486328,2.477998733520508,55.328369140625,20.6756591796875,20.2789306640625
10.3699999,6.078877925872803,-7.072471618652344,2.846705913543701,42.9229736328125,23.2086181640625,17.486572265625
10.389999900000001,6.021417140960693,-7.048529624938965,3.1747114658355713,30.2734375,29.4342041015625,12.115478515625
10.4099999,5.932831764221191,-7.0557122230529785,3.442862033843994,18.218994140625,31.2347412109375,6.4544677734375
10.4299999,5.8203043937683105,-7.082048416137695,3.6320040225982666,5.92041015625,26.7791748046875,1.678466796875
10.4499999,5.717353820800781,-7.139509677886963,3.713406801223755,-4.3182373046875,23.0560302734375,-3.1280517578125
10.469999900000001,5.674258232116699,-7.19936466217041,3.7181951999664307,-9.27734375,18.37158203125,-4.7607421875
10.4899999,5.6670756340026855,-7.259219646453857,3.6607344150543213,-11.6729736328125,3.35693359375,-0.4425048828125
10.5099999,5.710171222686768,-7.292738437652588,3.5913026332855225,-16.5863037109375,-13.9617919921875,4.669189453125
10.5299999,5.774814605712891,-7.3023152351379395,3.529053211212158,-23.5443115234375,-13.4735107421875,3.2196044921875
10.549999900000001,5.846640586853027,-7.321468830108643,3.4332852363586426,-28.3660888671875,1.1444091796875,-1.1444091796875
10.569999900000001,5.901707172393799,-7.374141216278076,3.251325845718384,-27.1759033203125,9.552001953125,-2.5482177734375
10.5899999,5.942408561706543,-7.479485988616943,2.9305028915405273,-18.1732177734375,4.150390625,-1.983642578125
10.6099999,5.959167957305908,-7.627926826477051,2.5043349266052246,-2.044677734375,-14.7857666015625,1.8768310546875
10.629999900000001,5.990292549133301,-7.762001991271973,2.0925323963165283,15.4266357421875,-37.0025634765625,12.4359130859375
10.649999900000001,6.045359134674072,-7.848193168640137,1.745373010635376,30.9906005859375,-47.54638671875,25.6805419921875
10.6699999,6.110002517700195,-7.864952564239502,1.5658079385757446,46.4324951171875,-51.0101318359375,33.8897705078125
10.6899999,6.189011573791504,-7.793126583099365,1.5634137392044067,61.492919921875,-54.0771484375,37.2772216796875
10.709999900000001,6.248866558074951,-7.649474620819092,1.6927006244659424,73.79150390625,-53.77197265625,41.7022705078125
10.729999900000001,6.253654956817627,-7.481880187988281,1.9273324012756348,82.7484130859375,-54.046630859375,48.6602783203125
10.7499999,6.210559368133545,-7.283161640167236,2.231395959854126,88.3636474609375,-55.4351806640625,54.718017578125
10.7699999,6.066906929016113,-7.084442615509033,2.5522189140319824,91.2322998046875,-53.7261962890625,54.901123046875
10.7899999,5.861005783081055,-6.885724067687988,2.875436305999756,92.28515625,-53.22265625,51.7730712890625
10.809999900000001,5.628767967224121,-6.715735912322998,3.2130186557769775,91.36962890625,-59.7991943359375,50.445556640625
10.8299999,5.413290023803711,-6.5696892738342285,3.531447410583496,86.5478515625,-63.4918212890625,49.0264892578125
10.8499999,5.260061264038086,-6.48828649520874,3.847482204437256,80.5511474609375,-60.211181640625,42.96875
10.8699999,5.197812080383301,-6.449979305267334,4.1156325340271,73.638916015625,-53.558349609375,36.8194580078125
10.889999900000001,5.216965675354004,-6.478709697723389,4.338293552398682,65.9942626953125,-49.3621826171875,34.8052978515625
10.9099999,5.284003257751465,-6.5265936851501465,4.484339714050293,58.16650390625,-46.173095703125,34.9578857421875
10.9299999,5.336675643920898,-6.6127848625183105,4.584896087646484,51.3916015625,-41.1224365234375,32.6385498046875
10.9499999,5.324704647064209,-6.720524311065674,4.642356872558594,46.112060546875,-37.872314453125,29.7088623046875
10.969999900000001,5.264849662780762,-6.861782073974609,4.6040496826171875,41.473388671875,-47.2869873046875,30.731201171875
10.9899999,5.178658485412598,-7.038952827453613,4.489128112792969,40.2374267578125,-68.8323974609375,37.139892578125
11.0099999,5.145139217376709,-7.237671852111816,4.271255970001221,44.677734375,-83.9691162109375,45.2117919921875
11.0299999,5.195417881011963,-7.4316020011901855,4.055777549743652,51.7120361328125,-87.0513916015625,52.764892578125
11.049999900000001,5.240907669067383,-7.592013359069824,3.8762125968933105,55.9234619140625,-79.254150390625,59.8602294921875
11.069999900000001,5.20978307723999,-7.675810813903809,3.77565598487854,57.2967529296875,-72.265625,63.1103515625
11.0899999,5.03021764755249,-7.68538761138916,3.6990416049957275,59.5855712890625,-69.3817138671875,56.6558837890625
11.1099999,4.757278919219971,-7.644686222076416,3.622427225112915,63.8427734375,-67.6116943359375,45.135498046875
11.129999900000001,4.4532151222229,-7.608773231506348,3.5649664402008057,69.000244140625,-61.676025390625,37.78076171875
11.149999900000001,4.235342979431152,-7.599195957183838,3.529053211212158,69.6258544921875,-56.4422607421875,34.820556640625
11.1699999,4.156333923339844,-7.630321025848389,3.5673606395721436,69.2596435546875,-54.840087890625,31.6162109375
11.1899999,4.256890773773193,-7.618350028991699,3.706224203109741,66.1468505859375,-45.440673828125,29.6478271484375
11.209999900000001,4.426878929138184,-7.5848307609558105,3.864241600036621,49.5452880859375,-17.9443359375,34.2864990234375
11.229999900000001,4.599261283874512,-7.527369976043701,4.0533833503723145,31.585693359375,2.1820068359375,39.4744873046875
11.2499999,4.6255974769592285,-7.489062786102295,4.225766181945801,14.923095703125,12.1612548828125,42.0989990234375
11.2699999,4.4508209228515625,-7.4986395835876465,4.3406877517700195,3.0975341796875,13.702392578125,39.36767578125
11.2899999,4.163516521453857,-7.580042362213135,4.410119533538818,-3.72314453125,10.894775390625,29.5867919921875
11.309999900000001,3.804386615753174,-7.82185697555542,4.32871675491333,-7.6141357421875,8.5601806640625,19.3939208984375
11.3299999,3.5889084339141846,-8.10437297821045,4.220977783203125,-6.2713623046875,0.5645751953125,11.7645263671875
11.3499999,3.600879430770874,-8.40843677520752,4.067748546600342,-6.9122314453125,-3.6163330078125,5.615234375
11.3699999,3.88818359375,-8.585607528686523,4.034229755401611,-13.0157470703125,9.7503662109375,0.946044921875
11.389999900000001,4.364629745483398,-8.597578048706055,4.0533833503723145,-20.4010009765625,29.052734375,-1.2359619140625
11.4099999,4.7836151123046875,-8.530540466308594,4.082113742828369,-22.0184326171875,35.6903076171875,0.762939453125
11.4299999,4.771644115447998,-8.56884765625,3.7876269817352295,2.777099609375,17.7459716796875,1.190185546875
11.4499999,4.431667327880859,-8.686163902282715,3.6104562282562256,25.0244140625,-1.129150390625,1.6632080078125
11.469999900000001,4.098873138427734,-8.746018409729004,3.555389642715454,43.6859130859375,-9.5367431640625,3.570556640625
11.4899999,3.869029998779297,-8.674192428588867,3.7205893993377686,54.168701171875,-5.096435546875,1.1138916015625
11.5099999,3.758896589279175,-8.427590370178223,4.082113742828369,58.2275390625,-0.152587890625,-4.39453125
11.5299999,3.7636849880218506,-8.04930591583252,4.527435302734375,57.2357177734375,-3.7078857421875,-7.50732421875
11.549999900000001,3.794809579849243,-7.649474620819092,4.944026470184326,50.59814453125,-5.218505859375,-8.1024169921875
11.569999900000001,3.8738183975219727,-7.271190643310547,5.264849662780762,40.5120849609375,-1.8768310546875,-8.148193359375
11.5899999,3.971980571746826,-7.003039836883545,5.473145008087158,31.5704345703125,-5.55419921875,-5.9661865234375
11.6099999,4.0533833503723145,-6.835445880889893,5.616796970367432,22.8271484375,-13.6566162109375,-0.1068115234375
11.629999900000001,4.1180267333984375,-6.782773494720459,5.6670756340026855,12.9547119140625,-11.4288330078125,1.8310546875
11.649999900000001,4.223371982574463,-6.787561893463135,5.655104637145996,6.683349609375,-2.166748046875,-1.434326171875
11.6699999,4.302380561828613,-6.866570472717285,5.568912982940674,4.058837890625,4.8980712890625,-1.800537109375
11.6899999,4.345476150512695,-6.947973251342773,5.442020416259766,4.1656494140625,6.7291259765625,2.1209716796875
11.709999900000001,4.335899353027344,-7.0317702293396,5.284003257751465,7.01904296875,4.33349609375,1.312255859375
11.729999900000001,4.261679172515869,-7.137115478515625,5.16429328918457,13.702392578125,1.617431640625,-3.509521484375
11.7499999,4.14915132522583,-7.208941459655762,5.123591423034668,20.965576171875,0.1373291015625,-6.65283203125
11.7699999,4.048594951629639,-7.2137298583984375,5.190629482269287,22.9034423828125,-1.7242431640625,-8.3465576171875
11.7899999,4.02465295791626,-7.1490864753723145,5.34625244140625,20.2484130859375,-4.0740966796875,-11.505126953125
11.809999900000001,4.127603530883789,-7.026981830596924,5.612008571624756,16.6778564453125,-2.7618408203125,-14.068603515625
11.8299999,4.316745758056641,-6.900089263916016,5.872976779937744,9.33837890625,5.706787109375,-11.53564453125
11.8499999,4.546588897705078,-6.830657482147217,6.064512729644775,0.1983642578125,11.4593505859375,-4.3792724609375
11.8699999,4.680664539337158,-6.835445880889893,6.066906929016113,-3.9825439453125,7.7972412109375,0.6866455078125
11.889999900000001,4.680664539337158,-6.912060260772705,5.906495571136475,1.46484375,-1.89208984375,1.28173828125
11.9099999,4.596867084503174,-7.017405033111572,5.729324817657471,11.3372802734375,-9.8419189453125,2.86865234375
11.9299999,4.4508209228515625,-7.082048416137695,5.652710437774658,12.0391845703125,-4.302978515625,4.1961669921875
11.9499999,4.285621166229248,-7.041347026824951,5.702988624572754,3.173828125,7.354736328125,-2.2125244140625
11.969999900000001,4.082113742828369,-6.955155849456787,5.717353820800781,-2.4566650390625,8.331298828125,-12.451171875
11.9899999,3.9264907836914062,-6.864176273345947,5.590460777282715,4.33349609375,-6.7138671875,-15.7318115234375
12.0099999,3.931279182434082,-6.806715488433838,5.403713226318359,15.68603515625,-20.4620361328125,-10.833740234375
12.0299999,4.079719543457031,-6.739677906036377,5.240907669067383,15.350341796875,-10.498046875,-5.615234375
12.049999900000001,4.273650169372559,-6.653486728668213,5.1595048904418945,7.7667236328125,8.7738037109375,-5.6915283203125
12.069999900000001,4.565742492675781,-6.282385349273682,5.5329999923706055,6.89697265625,10.4522705078125,-8.72802734375
12.0899999,4.529829502105713,-6.315904140472412,5.4013190269470215,-5.0506591796875,-1.03759765625,-3.570556640625
12.1099999,4.649539470672607,-6.112396717071533,5.731719017028809,-12.542724609375,-1.8768310546875,0.732421875
12.129999900000001,4.486733913421631,-6.392518520355225,5.585672378540039,-17.486572265625,13.6566162109375,-4.2266845703125
12.149999900000001,4.347870349884033,-6.617573261260986,5.604825973510742,-16.2200927734375,18.6309814453125,-11.5966796875
12.1699999,4.206612586975098,-6.794744491577148,5.655104637145996,-7.8887939453125,8.453369140625,-14.1143798828125
12.1899999,4.10366153717041,-6.92881965637207,5.7556610107421875,-5.3863525390625,-5.06591796875,-9.2010498046875
12.209999900000001,4.125209331512451,-6.938396453857422,5.863399982452393,-5.828857421875,-12.298583984375,-2.4566650390625
12.229999900000001,4.271255970001221,-6.8378400802612305,5.954379558563232,-6.2103271484375,-16.9830322265625,0.640869140625
12.2499999,4.448426723480225,-6.722918510437012,5.913678169250488,-9.002685546875,-22.0794677734375,3.631591796875
12.2699999,4.546588897705078,-6.636727333068848,5.78678560256958,-9.58251953125,-24.4903564453125,6.195068359375
12.289999900000002,4.60165548324585,-6.629544734954834,5.592854976654053,-3.7994384765625,-21.97265625,1.129150390625
12.309999900000001,4.594472885131836,-6.754043102264404,5.351040840148926,2.38037109375,-16.05224609375,-7.2174072265625
12.3299999,4.575319290161133,-6.964732646942139,5.116408824920654,6.5155029296875,-6.866455078125,-12.603759765625
12.3499999,4.575319290161133,-7.187393665313721,4.879383087158203,12.1917724609375,4.150390625,-17.9290771484375
12.3699999,4.592078685760498,-7.350199222564697,4.668693542480469,21.2860107421875,9.185791015625,-22.1710205078125
12.389999900000001,4.606443881988525,-7.393294811248779,4.558559894561768,30.8074951171875,3.631591796875,-22.15576171875
12.4099999,4.594472885131836,-7.2783732414245605,4.587290287017822,35.125732421875,0.091552734375,-21.9573974609375
12.4299999,4.5825018882751465,-7.022193431854248,4.790797710418701,34.1644287109375,5.218505859375,-26.5655517578125
12.4499999,4.58968448638916,-6.66785192489624,5.123591423034668,31.2042236328125,7.6904296875,-30.6854248046875
12.469999900000001,4.663905143737793,-6.251260757446289,5.547365188598633,26.092529296875,-1.77001953125,-27.069091796875
12.4899999,4.802768707275391,-5.834669589996338,5.966350555419922,15.8233642578125,1.4495849609375,-26.30615234375
12.5099999,5.027823448181152,-5.544970989227295,6.210559368133545,5.1116943359375,14.7705078125,-30.731201171875
12.5299999,5.1810526847839355,-5.3342814445495605,6.232107162475586,9.58251953125,18.00537109375,-28.7017822265625
12.549999900000001,5.406107425689697,-5.284003257751465,6.246472358703613,19.8516845703125,14.678955078125,-22.247314453125
12.569999900000001,5.420472621917725,-5.233725070953369,6.088454723358154,19.47021484375,13.1378173828125,-19.6533203125
12.5899999,5.51624059677124,-5.193023681640625,6.186617374420166,11.4288330078125,8.0718994140625,-14.4805908203125
12.6099999,5.566518783569336,-5.0469770431518555,6.3733649253845215,1.2359619140625,0.396728515625,-2.25830078125
12.629999900000001,5.604825973510742,-4.948814868927002,6.5696892738342285,-10.894775390625,4.0435791015625,8.97216796875
12.649999900000001,5.585672378540039,-4.841075897216797,6.730101108551025,-19.6685791015625,10.0555419921875,11.6424560546875
12.6699999,5.509057998657227,-4.970362663269043,6.742072105407715,-20.32470703125,7.8277587890625,10.284423828125
12.6899999,5.341464042663574,-4.95120906829834,6.845022678375244,-20.0653076171875,9.033203125,10.0860595703125
12.709999900000001,5.147533416748047,-5.238513469696045,6.7923502922058105,-38.055419921875,15.9454345703125,8.880615234375
12.729999900000001,4.982333660125732,-5.432443618774414,6.687005519866943,-45.2880859375,10.9405517578125,6.65283203125
12.7499999,4.869806289672852,-5.803544998168945,6.3949127197265625,-27.9693603515625,1.2664794921875,5.92041015625
12.7699999,4.788403511047363,-6.212953567504883,5.87776517868042,-4.2266845703125,-1.953125,6.6070556640625
12.789999900000002,4.752490520477295,-6.555324077606201,5.339069843292236,16.754150390625,-3.0364990234375,4.2572021484375
12.809999900000001,4.759673118591309,-6.751648902893066,4.975151062011719,33.0047607421875,-4.547119140625,-1.6632080078125
12.8299999,4.786009311676025,-6.751648902893066,4.853046894073486,41.8243408203125,-4.7760009765625,-5.8441162109375
12.8499999,4.829104900360107,-6.581660270690918,4.989516258239746,44.25048828125,-4.119873046875,-6.65283203125
12.8699999,4.886565685272217,-6.303933143615723,5.30076265335083,41.5802001953125,-3.1585693359375,-8.0718994140625
12.889999900000001,4.929661273956299,-5.990292549133301,5.702988624572754,35.8123779296875,-1.953125,-10.5743408203125
12.9099999,4.967968463897705,-5.70777702331543,6.100425720214844,28.25927734375,-2.593994140625,-9.8876953125
12.9299999,5.018246650695801,-5.480327606201172,6.452373504638672,20.1263427734375,-4.5013427734375,-5.8135986328125
12.9499999,5.094861030578613,-5.315127849578857,6.737283706665039,11.199951171875,-3.41796875,-2.532958984375
12.969999900000001,5.17626428604126,-5.197812080383301,6.959944248199463,1.3427734375,1.617431640625,-0.8392333984375
12.9899999,5.212177276611328,-5.118803024291992,7.079654216766357,-8.6669921875,6.34765625,0.3204345703125
13.0099999,5.202600479125977,-5.092466831207275,7.096413612365723,-14.2364501953125,2.9754638671875,1.800537109375
13.0299999,5.16429328918457,-5.114014625549316,7.026981830596924,-14.6331787109375,-5.523681640625,3.936767578125
13.049999900000001,5.130774021148682,-5.171475887298584,6.909666061401367,-14.16015625,-10.0860595703125,6.866455078125
13.069999900000001,5.125985622406006,-5.243301868438721,6.787561893463135,-13.7939453125,-9.3841552734375,8.8653564453125
13.0899999,5.140350818634033,-5.30076265335083,6.691793918609619,-13.0462646484375,-10.7879638671875,8.85009765625
13.1099999,5.169081687927246,-5.348646640777588,6.62236213684082,-11.7034912109375,-16.9525146484375,8.9263916015625
13.129999900000001,5.193023681640625,-5.394136428833008,6.560112476348877,-10.68115234375,-24.4903564453125,11.4593505859375
13.149999900000001,5.231330871582031,-5.456385612487793,6.485892295837402,-10.0250244140625,-32.745361328125,15.5181884765625
13.1699999,5.284003257751465,-5.537788391113281,6.3949127197265625,-8.575439453125,-41.0003662109375,19.256591796875
13.1899999,5.303156852722168,-5.638344764709473,6.27280855178833,-7.171630859375,-45.95947265625,22.7203369140625
13.209999900000001,5.3127336502075195,-5.74129581451416,6.110002517700195,-6.8206787109375,-51.8798828125,26.519775390625
13.229999900000001,5.341464042663574,-5.808333396911621,5.961562156677246,-6.5765380859375,-61.4013671875,30.1361083984375
13.2499999,5.389348030090332,-5.8203043937683105,5.827486991882324,-9.002685546875,-56.5643310546875,30.7159423828125
13.2699999,5.442020416259766,-5.801150798797607,5.681440830230713,-14.7857666015625,-38.9404296875,27.0538330078125
13.289999900000002,5.475539207458496,-5.791574001312256,5.542576789855957,-19.95849609375,-29.7698974609375,22.6287841796875
13.309999900000001,5.439626216888428,-5.863399982452393,5.327098846435547,-23.92578125,-28.2135009765625,19.4549560546875
13.3299999,5.219359874725342,-6.191405773162842,4.876988887786865,-24.871826171875,-21.148681640625,14.4500732421875
13.3499999,5.078101634979248,-6.514622688293457,4.462791919708252,-15.533447265625,-10.6201171875,4.0435791015625
13.3699999,4.941632270812988,-6.885724067687988,4.000710964202881,-7.659912109375,-3.8299560546875,-0.5950927734375
13.389999900000001,4.963180065155029,-7.067683219909668,3.7445313930511475,-4.4403076171875,-5.55419921875,5.7373046875
13.4099999,5.118803024291992,-7.0557122230529785,3.713406801223755,-0.335693359375,-6.7596435546875,11.444091796875
13.4299999,5.281609058380127,-6.94079065322876,3.8091750144958496,4.8980712890625,-7.0648193359375,14.556884765625
13.4499999,5.403713226318359,-6.809109687805176,3.976768970489502,10.07080078125,-12.5579833984375,17.7764892578125
13.469999900000001,5.48272180557251,-6.687005519866943,4.199429988861084,12.359619140625,-16.66259765625,19.866943359375
13.4899999,5.5329999923706055,-6.617573261260986,4.448426723480225,9.27734375,-9.185791015625,16.387939453125
13.5099999,5.57370138168335,-6.576871871948242,4.7405195236206055,3.8604736328125,1.2359619140625,9.674072265625
13.5299999,5.595249176025391,-6.586448669433594,4.99669885635376,-1.373291015625,5.0811767578125,4.2266845703125
13.549999900000001,5.5976433753967285,-6.627150535583496,5.169081687927246,-5.0811767578125,2.3193359375,1.5411376953125
13.569999900000001,5.604825973510742,-6.6391215324401855,5.2265424728393555,-7.7362060546875,4.486083984375,-2.0904541015625
13.5899999,5.559336185455322,-6.627150535583496,5.1810526847839355,-10.6658935546875,17.5628662109375,-9.4451904296875
13.6099999,5.480327606201172,-6.615179061889648,5.020640850067139,-11.932373046875,28.4271240234375,-15.7012939453125
13.629999900000001,5.348646640777588,-6.584054470062256,4.881777286529541,-7.6446533203125,18.218994140625,-15.8538818359375
13.649999900000001,5.228936672210693,-6.598419666290283,4.728548526763916,-3.814697265625,7.476806640625,-13.6871337890625
13.6699999,5.145139217376709,-6.610390663146973,4.651933670043945,-3.0670166015625,7.6751708984375,-13.7786865234375
13.6899999,5.135562419891357,-6.646304130554199,4.618414878845215,-2.6092529296875,13.427734375,-14.9383544921875
13.709999900000001,5.17626428604126,-6.641515731811523,4.6471452713012695,0.30517578125,10.2386474609375,-11.3372802734375
13.729999900000001,5.216965675354004,-6.627150535583496,4.683058738708496,2.4566650390625,4.94384765625,-6.195068359375
13.7499999,5.2911858558654785,-6.555324077606201,4.771644115447998,4.1961669921875,0.6256103515625,-3.326416015625
13.7699999,5.398924827575684,-6.44279670715332,4.891354084014893,4.7607421875,-1.953125,-0.9307861328125
13.789999900000002,5.525817394256592,-6.311115741729736,5.035006046295166,1.708984375,0.8544921875,1.220703125
13.809999900000001,5.621585369110107,-6.189011573791504,5.171475887298584,-4.5928955078125,9.765625,0.274658203125
13.8299999,5.635950565338135,-6.129156112670898,5.252878665924072,-9.9639892578125,16.6473388671875,-4.3792724609375
13.8499999,5.583278179168701,-6.138733386993408,5.264849662780762,-12.420654296875,13.1378173828125,-8.0718994140625
13.8699999,5.492298603057861,-6.244078159332275,5.20978307723999,-12.6800537109375,6.5460205078125,-5.9661865234375
13.889999900000001,5.4228668212890625,-6.382941722869873,5.12119722366333,-12.7716064453125,5.43212890625,-3.4942626953125
13.9099999,5.377377033233643,-6.543353080749512,5.015852451324463,-12.451171875,10.2691650390625,-5.4168701171875
13.9299999,5.348646640777588,-6.677428722381592,4.917690277099609,-9.0179443359375,5.889892578125,-5.4473876953125
13.9499999,5.3342814445495605,-6.773196697235107,4.8602294921875,-3.9215087890625,-7.38525390625,-0.18310546875
13.969999900000001,5.3582234382629395,-6.828263282775879,4.836287498474121,-2.3956298828125,-11.6424560546875,3.5247802734375
13.9899999,5.406107425689697,-6.830657482147217,4.843470096588135,-3.3111572265625,-3.1890869140625,2.1514892578125
14.0099999,5.442020416259766,-6.789956092834473,4.829104900360107,-1.983642578125,4.241943359375,0.091552734375
14.0299999,5.473145008087158,-6.72531270980835,4.797980308532715,1.251220703125,-2.01416015625,1.5716552734375
14.049999900000001,5.480327606201172,-6.651092529296875,4.754884719848633,1.953125,-7.2479248046875,4.364013671875
14.069999900000001,5.4875102043151855,-6.5912370681762695,4.738125324249268,-0.9613037109375,0.1678466796875,3.692626953125
14.0899999,5.468356609344482,-6.555324077606201,4.733336925506592,-3.8299560546875,10.6964111328125,-0.67138671875
14.1099999,5.360617637634277,-6.5481414794921875,4.714183330535889,-3.1890869140625,13.7176513671875,-6.7291259765625
14.129999900000001,5.224148273468018,-6.63433313369751,4.592078685760498,2.3651123046875,9.857177734375,-12.4053955078125
14.149999900000001,5.082890033721924,-6.761225700378418,4.443638324737549,14.251708984375,-3.2958984375,-11.2152099609375
14.1699999,5.037400245666504,-6.9024834632873535,4.292803764343262,30.1971435546875,-21.1181640625,-1.2054443359375
14.1899999,5.1116204261779785,-6.947973251342773,4.266467571258545,44.2962646484375,-35.15625,11.1846923828125
14.209999900000001,5.233725070953369,-6.856993675231934,4.388571739196777,50.9796142578125,-36.8499755859375,16.7083740234375
14.229999900000001,5.3797712326049805,-6.576871871948242,4.699818134307861,50.9033203125,-36.4990234375,15.1519775390625
14.2499999,5.521028995513916,-6.1985883712768555,5.102043628692627,44.342041015625,-30.975341796875,11.993408203125
14.2699999,5.621585369110107,-5.837063789367676,5.456385612487793,33.14208984375,-21.881103515625,9.6435546875
14.289999900000002,5.719748020172119,-5.571307182312012,5.729324817657471,21.728515625,-17.486572265625,8.4228515625
14.309999900000001,5.803544998168945,-5.453991413116455,5.825092792510986,9.5367431640625,-10.3759765625,9.94873046875
14.3299999,5.861005783081055,-5.458779811859131,5.784391403198242,-3.7078857421875,0.457763671875,12.8326416015625
14.3499999,5.918466567993164,-5.556941986083984,5.664681434631348,-15.3045654296875,9.185791015625,16.204833984375
14.3699999,5.901707172393799,-5.693411827087402,5.499481201171875,-24.2462158203125,13.2293701171875,21.148681640625
14.389999900000001,5.810727596282959,-5.841852188110352,5.34625244140625,-29.876708984375,13.8092041015625,23.98681640625
14.4099999,5.626373767852783,-6.069301128387451,5.16429328918457,-32.2418212890625,13.36669921875,20.99609375
14.4299999,5.394136428833008,-6.3949127197265625,4.946420669555664,-28.961181640625,13.2598876953125,14.373779296875
14.4499999,5.17626428604126,-6.785167694091797,4.711789131164551,-19.287109375,14.251708984375,9.5672607421875
14.469999900000001,5.015852451324463,-7.139509677886963,4.513070106506348,-7.1563720703125,13.8092041015625,7.1868896484375
14.4899999,4.920084476470947,-7.374141216278076,4.376600742340088,2.74658203125,9.4757080078125,4.241943359375
14.5099999,4.903325080871582,-7.436390399932861,4.32871675491333,10.92529296875,6.1798095703125,-0.762939453125
14.5299999,4.896142482757568,-7.4100542068481445,4.347870349884033,19.0887451171875,6.9427490234375,-4.45556640625
14.549999900000001,4.917690277099609,-7.307103633880615,4.448426723480225,24.444580078125,7.6446533203125,-5.1727294921875
14.569999900000001,4.932055473327637,-7.122750282287598,4.656722068786621,23.3001708984375,3.753662109375,-3.448486328125
14.5899999,4.963180065155029,-6.856993675231934,4.946420669555664,14.2974853515625,-0.30517578125,-2.9754638671875
14.6099999,5.011064052581787,-6.5696892738342285,5.238513469696045,3.143310546875,3.753662109375,-4.425048828125
14.629999900000001,5.061342239379883,-6.335057735443115,5.446808815002441,-4.6539306640625,11.138916015625,-3.4332275390625
14.649999900000001,5.116408824920654,-6.222530364990234,5.540182590484619,-7.8125,9.58251953125,2.0294189453125
14.6699999,5.128379821777344,-6.224924564361572,5.544970989227295,-8.9111328125,4.302978515625,7.9193115234375
14.6899999,5.102043628692627,-6.265625953674316,5.501875400543213,-9.2620849609375,5.6915283203125,7.5531005859375
14.709999900000001,5.03021764755249,-6.392518520355225,5.3797712326049805,-7.62939453125,9.1705322265625,3.7994384765625
14.729999900000001,4.95120906829834,-6.485892295837402,5.2696380615234375,-1.6326904296875,3.7841796875,2.5634765625
14.7499999,4.896142482757568,-6.586448669433594,5.16429328918457,3.7994384765625,-1.4801025390625,4.638671875
14.7699999,4.886565685272217,-6.672640323638916,5.070919036865234,4.5623779296875,1.2969970703125,3.631591796875
14.789999900000002,4.8937482833862305,-6.739677906036377,5.006275653839111,5.401611328125,10.1470947265625,-0.2593994140625
14.809999900000001,4.881777286529541,-6.777985095977783,4.9583916664123535,10.07080078125,8.48388671875,-0.4119873046875
14.8299999,4.8602294921875,-6.766014099121094,4.977545261383057,15.56396484375,-3.875732421875,2.1209716796875
14.8499999,4.845864295959473,-6.675034523010254,5.130774021148682,16.29638671875,-10.589599609375,2.6397705078125
14.8699999,4.881777286529541,-6.550535678863525,5.396530628204346,10.3302001953125,-5.2947998046875,-0.5035400390625
14.889999900000001,4.999093055725098,-6.464344501495361,5.683835029602051,0.8087158203125,3.7841796875,-6.04248046875
14.9099999,5.147533416748047,-6.44279670715332,5.906495571136475,-8.3465576171875,9.46044921875,-8.544921875
14.9299999,5.257667064666748,-6.481103897094727,5.999869346618652,-15.5792236328125,10.223388671875,-4.241943359375
14.9499999,5.317522048950195,-6.521805286407471,6.0190229415893555,-21.3775634765625,4.547119140625,1.953125
14.969999900000001,5.288791656494141,-6.5265936851501465,5.9974751472473145,-27.6336669921875,2.3040771484375,3.7841796875
14.9899999,5.169081687927246,-6.524199485778809,5.913678169250488,-33.721923828125,7.9803466796875,0.0457763671875
15.0099999,5.008669853210449,-6.5481414794921875,5.813121795654297,-34.0118408203125,3.936767578125,-3.23486328125
15.0299999,4.829104900360107,-6.631938934326172,5.623979568481445,-29.5562744140625,-7.6141357421875,-2.4261474609375
15.049999900000001,4.7189717292785645,-6.777985095977783,5.339069843292236,-23.62060546875,-14.0533447265625,-3.997802734375
15.069999900000001,4.692635536193848,-6.952761650085449,4.982333660125732,-16.8914794921875,-11.5203857421875,-7.0037841796875
15.0899999,4.728548526763916,-7.127538681030273,4.558559894561768,-8.7738037109375,-2.3956298828125,-7.110595703125
15.1099999,4.800374507904053,-7.232883453369141,4.180276393890381,1.89208984375,-0.335693359375,-5.0201416015625
15.129999900000001,4.853046894073486,-7.254431247711182,3.9671921730041504,12.2528076171875,-7.6141357421875,-3.814697265625
15.149999900000001,4.876988887786865,-7.158663272857666,3.9671921730041504,16.815185546875,-11.199951171875,-5.218505859375
15.1699999,4.941632270812988,-6.955155849456787,4.211400985717773,15.716552734375,-15.9454345703125,-6.4544677734375
15.1899999,5.070919036865234,-6.701370716094971,4.55616569519043,9.8419189453125,-17.15087890625,-5.523681640625
15.209999900000001,5.257667064666748,-6.457161903381348,4.898536682128906,1.4801025390625,-8.0108642578125,-5.0048828125
15.229999900000001,5.494692802429199,-6.232107162475586,5.137956619262695,-9.8724365234375,7.99560546875,-3.8909912109375
15.2499999,5.485116004943848,-6.296750545501709,5.073313236236572,-9.3994140625,0.7781982421875,-1.6632080078125
15.2699999,5.418078422546387,-6.452373504638672,4.9583916664123535,-8.270263671875,0.06103515625,0.2593994140625
15.289999900000002,5.382165431976318,-6.6391215324401855,4.857835292816162,-7.4920654296875,4.2266845703125,1.1444091796875
15.309999900000001,5.4013190269470215,-6.811503887176514,4.747702121734619,-5.2947998046875,6.3629150390625,2.0904541015625
15.3299999,5.384559631347656,-6.921637058258057,4.644751071929932,-0.3204345703125,10.009765625,1.46484375
15.3499999,5.281609058380127,-7.010222434997559,4.508281707763672,5.9051513671875,16.265869140625,-3.0364990234375
15.3699999,5.092466831207275,-7.053318023681641,4.441244125366211,11.8865966796875,7.659912109375,-6.683349609375
15.389999900000001,4.881777286529541,-7.070077419281006,4.49870491027832,15.533447265625,-7.5531005859375,-7.1258544921875
15.4099999,4.697423934936523,-7.053318023681641,4.671087741851807,14.8468017578125,-10.1776123046875,-7.50732421875
15.4299999,4.594472885131836,-7.007828235626221,4.934449672698975,11.71875,-6.9122314453125,-11.444091796875
15.4499999,4.55616569519043,-6.97430944442749,5.145139217376709,11.0321044921875,-15.5029296875,-15.869140625
15.469999900000001,4.606443881988525,-6.971915245056152,5.250484466552734,13.1072998046875,-28.86962890625,-17.9595947265625
15.4899999,4.793191909790039,-7.003039836883545,5.2049946784973145,15.0604248046875,-30.8837890625,-19.22607421875
15.5099999,5.1116204261779785,-7.0317702293396,5.061342239379883,15.838623046875,-18.24951171875,-21.6217041015625
15.5299999,5.489904403686523,-7.038952827453613,4.829104900360107,17.5628662109375,-2.9144287109375,-23.9105224609375
15.549999900000001,5.796362400054932,-6.983886241912842,4.587290287017822,22.7203369140625,2.9144287109375,-23.590087890625
15.569999900000001,5.963956356048584,-6.892906665802002,4.331110954284668,30.1513671875,2.9144287109375,-21.6217041015625
15.5899999,5.980715751647949,-6.751648902893066,4.165910720825195,38.4063720703125,0.152587890625,-18.7530517578125
15.6099999,5.849034786224365,-6.538564682006836,4.1395745277404785,45.562744140625,-0.1678466796875,-16.54052734375
15.629999900000001,5.652710437774658,-6.2392897605896,4.28322696685791,47.5616455078125,-0.4730224609375,-19.8516845703125
15.649999900000001,5.480327606201172,-5.882553577423096,4.594472885131836,44.1436767578125,-0.396728515625,-29.2205810546875
15.6699999,5.348646640777588,-5.5114521980285645,4.975151062011719,38.1011962890625,8.758544921875,-38.4674072265625
15.6899999,5.3342814445495605,-5.197812080383301,5.34625244140625,34.11865234375,14.862060546875,-42.9534912109375
15.709999900000001,5.439626216888428,-4.975151062011719,5.633556365966797,32.53173828125,5.5999755859375,-41.1834716796875
15.729999900000001,5.643133640289307,-4.821922302246094,5.853823184967041,31.2347412109375,-5.828857421875,-34.637451171875
15.7499999,5.920860767364502,-4.6950297355651855,5.9974751472473145,27.099609375,-5.7373046875,-28.0303955078125
15.7699999,6.2416839599609375,-4.563348293304443,6.133944988250732,20.599365234375,-1.007080078125,-24.261474609375
15.789999900000002,6.54574728012085,-4.424484729766846,6.22731876373291,12.9241943359375,3.9520263671875,-21.6064453125
15.809999900000001,6.782773494720459,-4.309563159942627,6.256049156188965,6.1492919921875,9.8876953125,-18.6004638671875
15.8299999,6.9240312576293945,-4.247313976287842,6.179434776306152,3.9825439453125,14.6484375,-15.3656005859375
15.8499999,6.971915245056152,-4.242525577545166,6.0190229415893555,8.0413818359375,13.8092041015625,-11.6119384765625
15.869999900000002,6.9695210456848145,-4.24970817565918,5.832275390625,13.8702392578125,10.7574462890625,-8.3160400390625
15.889999900000001,6.947973251342773,-4.244919776916504,5.6910176277160645,15.7623291015625,14.22119140625,-8.2244873046875
15.9099999,6.919242858886719,-4.213795185089111,5.580883979797363,15.13671875,28.839111328125,-12.5732421875
15.9299999,6.854599475860596,-4.182670593261719,5.501875400543213,19.71435546875,40.863037109375,-16.6168212890625
15.9499999,6.677428722381592,-4.163516521453857,5.4252610206604,29.6783447265625,36.8194580078125,-14.739990234375
15.969999900000001,6.370970726013184,-4.132391929626465,5.39174222946167,38.360595703125,20.1568603515625,-8.4228515625
15.9899999,6.007051944732666,-4.050989151000977,5.48272180557251,42.236328125,2.716064453125,-6.866455078125
16.0099999,5.681440830230713,-3.9169139862060547,5.69580602645874,41.3055419921875,-0.823974609375,-12.5579833984375
16.0299999,5.475539207458496,-3.751713991165161,5.983109951019287,39.55078125,3.4332275390625,-18.2952880859375
16.0499999,5.418078422546387,-3.6128504276275635,6.308721542358398,39.5050048828125,2.197265625,-18.24951171875
16.0699999,5.480327606201172,-3.512293815612793,6.607996463775635,39.3524169921875,-9.70458984375,-10.8795166015625
16.089999900000002,5.686229228973389,-3.428496837615967,6.962338447570801,34.8663330078125,-24.3072509765625,-1.9683837890625
16.109999900000002,5.947196960449219,-3.335123062133789,7.295132637023926,22.52197265625,-20.3399658203125,2.9144287109375
16.1299999,6.236895561218262,-3.2393548488616943,7.582436561584473,9.8876953125,-8.2855224609375,4.0740966796875
16.1499999,6.461950302124023,-3.1459810733795166,7.709329605102539,3.509521484375,-7.476806640625,2.3040771484375
16.1699999,6.617573261260986,-3.136404275894165,7.627926826477051,3.4942626953125,-13.5498046875,1.2054443359375
16.1899999,6.682217121124268,-3.1890766620635986,7.374141216278076,7.4310302734375,-18.035888671875,4.3792724609375
16.2099999,6.768408298492432,-3.335123062133789,7.017405033111572,13.73291015625,-22.2930908203125,8.575439453125
16.2299999,6.864176273345947,-3.509899616241455,6.651092529296875,21.3470458984375,-24.0325927734375,11.322021484375
16.249999900000002,6.971915245056152,-3.6846764087677,6.2847795486450195,29.4189453125,-18.3563232421875,12.9241943359375
16.269999900000002,7.062894821166992,-3.8091750144958496,5.971138954162598,39.12353515625,-10.07080078125,13.0462646484375
16.2899999,7.084442615509033,-3.8762125968933105,5.681440830230713,49.9420166015625,0.1373291015625,11.4593505859375
16.3099999,7.026981830596924,-3.8379054069519043,5.477933406829834,61.3555908203125,5.2642822265625,10.3912353515625
16.3299999,6.856993675231934,-3.713406801223755,5.374982833862305,69.4427490234375,10.0555419921875,7.2784423828125
16.3499999,6.600813865661621,-3.5051112174987793,5.372588634490967,74.4171142578125,18.0816650390625,0.6256103515625
16.3699999,6.3302693367004395,-3.2345664501190186,5.504269599914551,79.8797607421875,20.6146240234375,-7.5225830078125
16.3899999,6.133944988250732,-2.937685489654541,5.722142219543457,82.8704833984375,24.9481201171875,-13.6871337890625
16.4099999,6.064512729644775,-2.626439332962036,6.038176536560059,81.4666748046875,39.5050048828125,-18.37158203125
16.429999900000002,6.033388137817383,-2.3104045391082764,6.4380083084106445,78.1707763671875,62.042236328125,-22.430419921875
16.4499999,5.975927352905273,-2.006340980529785,6.845022678375244,74.9359130859375,70.8770751953125,-24.3682861328125
16.4699999,5.853823184967041,-1.7118542194366455,7.249642848968506,70.3582763671875,56.2286376953125,-24.5513916015625
16.4899999,5.679046630859375,-1.4508862495422363,7.558494567871094,63.0340576171875,46.844482421875,-21.05712890625
16.5099999,5.535394191741943,-1.2210428714752197,7.778761386871338,56.427001953125,47.119140625,-16.357421875
16.5299999,5.386953830718994,-1.0319008827209473,7.910442352294922,54.5806884765625,46.4630126953125,-13.702392578125
16.5499999,5.17626428604126,-0.8978256583213806,7.927201747894287,56.976318359375,37.2467041015625,-11.8255615234375
16.5699999,4.93923807144165,-0.7852981686592102,7.920019149780273,64.5294189453125,13.97705078125,-10.6048583984375
16.589999900000002,4.750096321105957,-0.6560112833976746,7.888894557952881,70.770263671875,-1.129150390625,-12.542724609375
16.609999900000002,4.704606533050537,-0.47165772318840027,7.8745293617248535,74.3865966796875,6.072998046875,-15.9149169921875
16.6299999,4.76924991607666,-0.21787235140800476,7.829039573669434,78.7506103515625,19.53125,-18.8751220703125
16.6499999,4.876988887786865,0.08619125932455063,7.733271598815918,85.8306884765625,22.0947265625,-22.5830078125
16.6699999,4.881777286529541,0.40940847992897034,7.575253963470459,93.475341796875,16.0980224609375,-26.7181396484375
16.6899999,4.812345504760742,0.7398083209991455,7.41484260559082,98.419189453125,9.3536376953125,-30.4107666015625
16.7099999,4.711789131164551,1.0893617868423462,7.33583402633667,99.609375,2.044677734375,-32.8826904296875
16.7299999,4.659116744995117,1.4724340438842773,7.3693528175354,96.2982177734375,-0.1373291015625,-32.8369140625
16.749999900000002,4.656722068786621,1.8914192914962769,7.510610580444336,90.0726318359375,3.662109375,-31.6314697265625
16.769999900000002,4.683058738708496,2.3343467712402344,7.7213006019592285,83.43505859375,8.11767578125,-30.76171875
16.7899999,4.697423934936523,2.786850690841675,7.965508937835693,76.35498046875,6.3018798828125,-29.4036865234375
16.8099999,4.675876140594482,3.224989652633667,8.221688270568848,66.558837890625,0.91552734375,-26.2908935546875
16.8299999,4.656722068786621,3.624821424484253,8.473079681396484,53.6041259765625,-1.5106201171875,-22.5830078125
16.8499999,4.6734819412231445,3.952826976776123,8.69334602355957,38.848876953125,-1.495361328125,-18.9208984375
16.8699999,4.747702121734619,4.19224739074707,8.844181060791016,24.9176025390625,-0.3662109375,-14.1143798828125
16.8899999,4.881777286529541,4.316745758056641,8.911218643188477,13.0615234375,2.1820068359375,-8.880615234375
16.9099999,4.994304656982422,4.333505153656006,8.83699893951416,2.9449462890625,9.613037109375,-5.4473876953125
16.929999900000002,5.006275653839111,4.259284973144531,8.655038833618164,0.1678466796875,14.8773193359375,-5.1116943359375
16.9499999,4.898536682128906,4.134786128997803,8.377311706542969,4.6539306640625,8.1939697265625,-4.8675537109375
16.9699999,4.711789131164551,3.998316764831543,8.101978302001953,9.033203125,-9.46044921875,-1.6632080078125
16.9899999,4.537012100219727,3.9049429893493652,7.908048152923584,8.6669921875,-30.2276611328125,5.889892578125
17.0099999,4.424484729766846,3.861847400665283,7.841010570526123,5.615234375,-47.821044921875,15.9149169921875
17.0299999,4.355052947998047,3.8953661918640137,7.939172744750977,2.86865234375,-70.068359375,26.7791748046875
17.0499999,4.347870349884033,4.0294413566589355,8.200140953063965,-5.126953125,-104.827880859375,37.2161865234375
17.0699999,4.479551315307617,4.247313976287842,8.631096839904785,-22.9339599609375,-130.9356689453125,45.0592041015625
17.089999900000002,4.766855716705322,4.546588897705078,9.153033256530762,-50.84228515625,-130.157470703125,49.0264892578125
17.109999900000002,5.245696067810059,4.817133903503418,9.603142738342285,-82.6263427734375,-120.0714111328125,48.858642578125
17.1299999,5.849034786224365,4.960785865783691,9.883264541625977,-111.2060546875,-117.7520751953125,46.356201171875
17.1499999,6.457161903381348,4.963180065155029,9.84256362915039,-139.7857666015625,-107.635498046875,46.0205078125
17.1699999,6.9695210456848145,4.711789131164551,9.435548782348633,-168.76220703125,-90.2099609375,43.5028076171875
17.1899999,7.422025203704834,4.23773717880249,8.667010307312012,-182.2357177734375,-86.883544921875,43.2891845703125
17.2099999,7.759607791900635,3.5386300086975098,7.603984832763672,-179.534912109375,-92.71240234375,49.4232177734375
17.2299999,8.08282470703125,2.585737943649292,6.325480937957764,-162.7197265625,-92.6361083984375,59.6160888671875
17.249999900000002,8.406042098999023,1.5107412338256836,5.097255229949951,-135.0555419921875,-87.7227783203125,72.4029541015625
17.269999900000002,8.655038833618164,0.4213795065879822,4.043806552886963,-106.9488525390625,-74.8138427734375,82.94677734375
17.2899999,8.700529098510742,-0.5722141861915588,3.3039982318878174,-80.9173583984375,-67.230224609375,82.51953125
17.3099999,8.49941635131836,-1.3263877630233765,2.940079689025879,-58.77685546875,-74.0203857421875,72.5250244140625
17.3299999,8.078036308288574,-1.8602946996688843,2.889801502227783,-50.5828857421875,-80.3680419921875,60.8367919921875
17.3499999,7.577648162841797,-2.1978771686553955,3.0597896575927734,-56.1981201171875,-81.7413330078125,48.828125
17.3699999,7.194576263427734,-2.389413356781006,3.2609026432037354,-60.089111328125,-85.662841796875,38.7115478515625
17.3899999,6.993463039398193,-2.5115175247192383,3.3279404640197754,-62.43896484375,-94.8638916015625,32.8369140625
17.409999900000003,6.993463039398193,-2.5953147411346436,3.1268274784088135,-60.4095458984375,-107.147216796875,33.38623046875
17.429999900000002,7.208941459655762,-2.6384103298187256,2.734178304672241,-52.337646484375,-121.8414306640625,36.9415283203125
17.4499999,7.592013359069824,-2.6862943172454834,2.1978771686553955,-46.9207763671875,-122.0245361328125,40.3594970703125
17.4699999,8.051700592041016,-2.7748796939849854,1.644816517829895,-43.39599609375,-102.8900146484375,42.5262451171875
17.4899999,8.487444877624512,-2.8993782997131348,1.115697979927063,-38.4979248046875,-82.03125,41.168212890625
17.5099999,8.765172004699707,-3.0573954582214355,0.6272808313369751,-31.707763671875,-66.7724609375,38.0401611328125
17.5299999,8.827422142028809,-3.2154128551483154,0.19632454216480255,-24.5208740234375,-57.4798583984375,32.40966796875
17.5499999,8.75080680847168,-3.3470940589904785,-0.15322890877723694,-17.3797607421875,-49.8199462890625,25.2685546875
17.5699999,8.643068313598633,-3.4189200401306152,-0.3734954595565796,-11.7645263671875,-37.65869140625,17.120361328125
17.589999900000002,8.578424453735352,-3.4572272300720215,-0.47405192255973816,-7.32421875,-17.547607421875,9.033203125
17.609999900000002,8.611943244934082,-3.442862033843994,-0.4596867263317108,-4.5623779296875,0.732421875,2.471923828125
17.6299999,8.712499618530273,-3.404554843902588,-0.36152446269989014,-4.4403076171875,13.885498046875,-0.1068115234375
17.6499999,8.884882926940918,-3.3734302520751953,-0.24899697303771973,-4.7454833984375,28.4423828125,-0.2593994140625
17.6699999,9.17936897277832,-3.339911460876465,-0.12449848651885986,-3.3416748046875,46.142578125,-1.0528564453125
17.6899999,9.648633003234863,-3.287238836288452,0.043095629662275314,-4.0740966796875,74.0814208984375,-1.129150390625
17.7099999,10.163386344909668,-3.160346269607544,0.2777273952960968,-11.2762451171875,120.4071044921875,2.288818359375
17.7299999,10.651803016662598,-2.9879636764526367,0.608127236366272,-23.62060546875,165.7867431640625,9.2315673828125
17.749999900000002,10.975020408630371,-2.7748796939849854,1.05105459690094,-40.0543212890625,188.3392333984375,18.00537109375
17.769999900000002,11.001357078552246,-2.5474305152893066,1.6112977266311646,-61.8743896484375,198.18115234375,29.5867919921875
17.7899999,10.752359390258789,-2.389413356781006,2.248155355453491,-88.623046875,208.648681640625,40.496826171875
17.8099999,10.235212326049805,-2.3319525718688965,2.9305028915405273,-108.612060546875,210.784912109375,47.8973388671875
17.8299999,9.476250648498535,-2.4013843536376953,3.60566782951355,-124.8321533203125,195.73974609375,52.0477294921875
17.8499999,8.5903959274292,-2.6240451335906982,4.242525577545166,-148.3154296875,174.6368408203125,50.3692626953125
17.8699999,7.711723804473877,-2.937685489654541,4.754884719848633,-179.168701171875,164.093017578125,43.8690185546875
17.8899999,7.0126166343688965,-3.2992098331451416,5.145139217376709,-209.9151611328125,158.5693359375,41.2445068359375
17.909999900000003,6.57926607131958,-3.6798880100250244,5.324704647064209,-235.198974609375,151.2298583984375,45.3948974609375
17.929999900000002,6.356605529785156,-4.125209331512451,5.2049946784973145,-255.584716796875,150.8636474609375,50.323486328125
17.9499999,6.18182897567749,-4.618414878845215,4.790797710418701,-266.876220703125,151.2451171875,53.8330078125
17.9699999,5.918466567993164,-5.149928092956543,4.144362926483154,-267.547607421875,143.8446044921875,52.7496337890625
17.9899999,5.4875102043151855,-5.65031623840332,3.337517261505127,-266.571044921875,129.9896240234375,46.8292236328125
18.0099999,4.977545261383057,-6.112396717071533,2.497152328491211,-268.9208984375,117.431640625,38.1317138671875
18.0299999,4.4508209228515625,-6.53377628326416,1.6160861253738403,-268.0816650390625,115.6463623046875,26.6876220703125
18.0499999,3.9863457679748535,-6.993463039398193,0.6751648783683777,-253.41796875,114.9749755859375,14.312744140625
18.0699999,3.6391866207122803,-7.503427982330322,-0.2992752194404602,-227.5238037109375,96.221923828125,5.1116943359375
18.089999900000002,3.4572272300720215,-8.042123794555664,-1.192312479019165,-199.676513671875,68.5882568359375,1.4190673828125
18.109999900000002,3.4524388313293457,-8.578424453735352,-1.944091796875,-174.8199462890625,57.3883056640625,2.6092529296875
18.1299999,3.5218706130981445,-9.074024200439453,-2.561795711517334,-147.3388671875,54.6875,4.1046142578125
18.1499999,3.600879430770874,-9.50498104095459,-3.050212860107422,-108.856201171875,34.210205078125,6.77490234375
18.1699999,3.5721490383148193,-9.864110946655273,-3.5027170181274414,-65.00244140625,2.86865234375,10.894775390625
18.1899999,3.469198226928711,-10.125079154968262,-3.8953661918640137,-21.4385986328125,-24.932861328125,14.4805908203125
18.2099999,3.378218650817871,-10.259154319763184,-4.1156325340271,21.575927734375,-46.2799072265625,15.9454345703125
18.2299999,3.380612850189209,-10.256759643554688,-4.110844135284424,60.760498046875,-57.403564453125,16.2506103515625
18.249999900000002,3.488351821899414,-10.132261276245117,-3.8762125968933105,90.39306640625,-54.26025390625,15.3961181640625
18.269999900000002,3.6750996112823486,-9.904812812805176,-3.4763808250427246,113.800048828125,-44.1131591796875,12.786865234375
18.2899999,3.9217023849487305,-9.627084732055664,-2.911349296569824,135.55908203125,-37.8570556640625,10.284423828125
18.3099999,4.146757125854492,-9.334992408752441,-2.2840683460235596,150.665283203125,-29.47998046875,10.894775390625
18.3299999,4.309563159942627,-9.066842079162598,-1.601720929145813,157.0281982421875,-20.3094482421875,15.655517578125
18.3499999,4.371812343597412,-8.848969459533691,-0.9097966551780701,158.9813232421875,-18.2952880859375,23.13232421875
18.3699999,4.280832767486572,-8.678980827331543,-0.2849099934101105,160.33935546875,-26.580810546875,30.7159423828125
18.3899999,4.07014274597168,-8.556877136230469,0.272938996553421,162.7655029296875,-45.8526611328125,36.9720458984375
18.409999900000003,3.8139634132385254,-8.439560890197754,0.8044517636299133,162.322998046875,-64.9871826171875,40.7867431640625
18.429999900000002,3.600879430770874,-8.317456245422363,1.3503297567367554,155.853271484375,-69.39697265625,39.703369140625
18.4499999,3.4572272300720215,-8.197746276855469,1.9057846069335938,146.3165283203125,-63.3087158203125,33.905029296875
18.4699999,3.397372245788574,-8.106766700744629,2.477998733520508,137.939453125,-60.72998046875,27.6641845703125
18.4899999,3.3734302520751953,-8.054094314575195,2.9951462745666504,128.6773681640625,-58.441162109375,22.5982666015625
18.5099999,3.397372245788574,-8.04691219329834,3.49314022064209,117.2027587890625,-49.5758056640625,15.8233642578125
18.5299999,3.471592426300049,-8.039729118347168,3.9480385780334473,103.3782958984375,-35.3240966796875,9.307861328125
18.5499999,3.5673606395721436,-8.008605003356934,4.383783340454102,88.0279541015625,-20.1416015625,6.3934326171875
18.5699999,3.641580820083618,-7.948749542236328,4.750096321105957,70.1751708984375,-8.1024169921875,6.1492919921875
18.589999900000002,3.643975019454956,-7.857769966125488,5.032611846923828,52.001953125,-4.608154296875,5.767822265625
18.609999900000002,3.603273630142212,-7.7763671875,5.250484466552734,37.4908447265625,-9.3994140625,4.364013671875
18.6299999,3.509899616241455,-7.69735860824585,5.43723201751709,24.2767333984375,-10.1776123046875,3.60107421875
18.6499999,3.4117374420166016,-7.647080421447754,5.578489780426025,8.514404296875,-0.732421875,1.8310546875
18.6699999,3.3063924312591553,-7.625532627105713,5.679046630859375,-5.889892578125,8.5906982421875,-5.279541015625
18.6899999,3.19865345954895,-7.65186882019043,5.700594425201416,-14.1143798828125,11.1846923828125,-13.5345458984375
18.7099999,3.162740468978882,-7.682993412017822,5.652710437774658,-18.5546875,7.080078125,-16.8914794921875
18.7299999,3.2321722507476807,-7.6997528076171875,5.57370138168335,-24.505615234375,3.9825439453125,-14.129638671875
18.749999900000002,3.3925838470458984,-7.675810813903809,5.499481201171875,-33.4014892578125,5.828857421875,-7.5531005859375
18.769999900000002,3.5625722408294678,-7.632715225219727,5.394136428833008,-42.0684814453125,7.354736328125,-1.922607421875
18.7899999,3.6846764087677,-7.623138427734375,5.219359874725342,-47.2564697265625,2.8533935546875,1.52587890625
18.8099999,3.667917013168335,-7.692570209503174,4.9799394607543945,-50.5828857421875,-0.6256103515625,4.7760009765625
18.8299999,3.581725835800171,-7.8098859786987305,4.714183330535889,-54.5806884765625,-1.89208984375,5.7830810546875
18.8499999,3.488351821899414,-7.9415669441223145,4.486733913421631,-59.1583251953125,-0.457763671875,2.7313232421875
18.8699999,3.4404678344726562,-8.051700592041016,4.28322696685791,-65.460205078125,5.0201416015625,-0.091552734375
18.8899999,3.469198226928711,-8.133103370666504,4.065354347229004,-70.4498291015625,11.53564453125,-0.0762939453125
18.909999900000003,3.5266590118408203,-8.219294548034668,3.823540210723877,-70.4193115234375,15.4571533203125,0.2288818359375
18.929999900000002,3.552995204925537,-8.341399192810059,3.529053211212158,-67.1234130859375,18.6614990234375,-1.7242431640625
18.9499999,3.536235809326172,-8.501810073852539,3.220201253890991,-61.8133544921875,15.7012939453125,-4.150390625
18.9699999,3.485957622528076,-8.686163902282715,2.918531894683838,-55.816650390625,8.4381103515625,-4.57763671875
18.9899999,3.421314239501953,-8.99740982055664,2.427720546722412,-44.1131591796875,11.3067626953125,-9.8114013671875
19.0099999,3.4308910369873047,-9.10993766784668,2.250549554824829,-36.92626953125,13.5955810546875,-14.70947265625
19.0299999,3.4356794357299805,-9.205705642700195,2.070984363555908,-28.6407470703125,12.1612548828125,-15.07568359375
19.0499999,3.5027170181274414,-9.27034854888916,1.9273324012756348,-18.2647705078125,5.7830810546875,-12.542724609375
19.0699999,3.6367924213409424,-9.263166427612305,1.920149803161621,-8.209228515625,-2.50244140625,-6.500244140625
19.089999900000002,3.773261785507202,-9.129091262817383,2.078166961669922,-7.1563720703125,-1.3275146484375,2.3193359375
19.109999900000002,3.890577793121338,-8.899248123168945,2.389413356781006,-15.289306640625,4.8065185546875,5.2337646484375
19.1299999,3.9025487899780273,-8.647856712341309,2.7030537128448486,-24.810791015625,7.7056884765625,-0.0457763671875
19.1499999,3.799597978591919,-8.485051155090332,2.80361008644104,-30.21240234375,8.3160400390625,-7.2479248046875
19.1699999,3.6798880100250244,-8.482656478881836,2.6815059185028076,-30.21240234375,-1.9683837890625,-8.2550048828125
19.1899999,3.665522813796997,-8.607154846191406,2.4157495498657227,-28.9459228515625,-13.97705078125,-1.6632080078125
19.2099999,3.7469255924224854,-8.786720275878906,2.142810583114624,-30.6549072265625,-6.2103271484375,5.8135986328125
19.2299999,3.8570590019226074,-8.932766914367676,1.9536685943603516,-32.135009765625,8.4991455078125,10.6201171875
19.249999900000002,3.88818359375,-9.011775016784668,1.824381709098816,-29.632568359375,7.904052734375,12.7716064453125
19.269999900000002,3.773261785507202,-9.074024200439453,1.6496049165725708,-23.0255126953125,1.739501953125,9.979248046875
19.2899999,3.56017804145813,-9.138668060302734,1.3982137441635132,-10.2081298828125,1.220703125,2.8076171875
19.3099999,3.383007049560547,-9.208099365234375,1.1444283723831177,5.9967041015625,-0.3662109375,-1.3427734375
19.3299999,3.3231520652770996,-9.26795482635498,0.9169792532920837,17.303466796875,-5.2947998046875,0.946044921875
19.3499999,3.315969467163086,-9.289502143859863,0.8427590131759644,24.4903564453125,-0.4119873046875,1.15966796875
19.3699999,3.3494882583618164,-9.248801231384277,0.9289502501487732,29.4647216796875,7.4920654296875,-5.37109375
19.3899999,3.380612850189209,-9.215282440185547,1.1085153818130493,31.18896484375,3.72314453125,-9.918212890625
19.409999900000003,3.3470940589904785,-9.167398452758789,1.4413094520568848,29.3121337890625,-3.0364990234375,-6.2103271484375
19.429999900000002,3.294421434402466,-9.045293807983398,1.968033790588379,16.754150390625,-1.40380859375,-3.90625
19.4499999,3.2561142444610596,-8.887276649475098,2.4803929328918457,-7.14111328125,8.60595703125,-12.054443359375
19.4699999,3.3231520652770996,-8.7484130859375,2.801215887069702,-25.2227783203125,12.7716064453125,-21.8658447265625
19.4899999,3.469198226928711,-8.719682693481445,2.779668092727661,-25.5126953125,5.92041015625,-16.510009765625
19.5099999,3.6607344150543213,-8.825027465820312,2.5067291259765625,-16.78466796875,-6.439208984375,-1.77001953125
19.5299999,3.8283286094665527,-8.987833023071289,2.1284453868865967,-13.3209228515625,-13.1988525390625,2.5634765625
19.5499999,3.9384617805480957,-9.138668060302734,1.7525556087493896,-11.8865966796875,-3.4942626953125,-5.9967041015625
19.5699999,3.971980571746826,-9.222464561462402,1.4173674583435059,1.28173828125,12.3443603515625,-13.0767822265625
19.589999900000002,3.892971992492676,-9.217676162719727,1.115697979927063,20.172119140625,16.9219970703125,-8.7127685546875
19.609999900000002,3.804386615753174,-9.136273384094238,0.9552865028381348,24.4903564453125,-4.0283203125,-1.5411376953125
19.6299999,3.7708675861358643,-8.973467826843262,0.9696516990661621,15.716552734375,-15.93017578125,-0.5645751953125
19.6499999,3.845088005065918,-8.80587387084961,1.1755530834197998,12.2833251953125,5.615234375,-2.8533935546875
19.6699999,3.869029998779297,-8.662221908569336,1.4915876388549805,15.3350830078125,32.1197509765625,-0.6866455078125
19.6899999,3.825934410095215,-8.5903959274292,1.843535304069519,9.6588134765625,16.54052734375,1.28173828125
19.7099999,3.7181951999664307,-8.59997272491455,2.1811177730560303,-1.953125,-7.4615478515625,-6.500244140625
19.7299999,3.6104562282562256,-8.707711219787598,2.4444799423217773,-4.1351318359375,3.753662109375,-13.73291015625
19.749999900000002,3.550601005554199,-8.884882926940918,2.650381326675415,2.5177001953125,21.9573974609375,-6.89697265625
19.769999900000002,3.5410242080688477,-9.042900085449219,2.851494312286377,1.007080078125,3.2501220703125,2.349853515625
19.7899999,3.469198226928711,-9.133879661560059,2.896984100341797,-12.420654296875,-13.0767822265625,-5.5694580078125
19.8099999,3.552995204925537,-9.126696586608887,2.801215887069702,-14.434814453125,-10.040283203125,-20.4010009765625
19.8299999,3.6798880100250244,-9.097966194152832,2.427720546722412,2.3651123046875,12.8173828125,-19.927978515625
19.8499999,3.869029998779297,-9.057265281677246,2.0877439975738525,17.9290771484375,8.30078125,-6.7138671875
19.8699999,3.9887399673461914,-8.96389102935791,1.8818424940109253,14.2822265625,-21.5911865234375,0.335693359375
19.8899999,4.082113742828369,-8.813055992126465,1.8315643072128296,1.8157958984375,-27.0233154296875,-5.4168701171875
19.909999900000003,4.252102375030518,-8.62391471862793,1.766920804977417,3.570556640625,-3.326416015625,-9.46044921875
19.929999900000002,4.323928356170654,-8.463502883911133,1.6496049165725708,15.7470703125,17.547607421875,-1.678466796875
19.9499999,4.285621166229248,-8.355764389038086,1.6160861253738403,16.7388916015625,-6.5765380859375,5.9356689453125
19.9699999,4.1180267333984375,-8.291120529174805,1.7573440074920654,6.9427490234375,-29.5867919921875,-1.0528564453125
19.9899999,4.000710964202881,-8.310274124145508,1.922544002532959,2.777099609375,-10.650634765625,-13.2293701171875
20.0099999,4.0078935623168945,-8.413225173950195,2.0685901641845703,13.580322265625,22.88818359375,-11.9476318359375
20.0299999,4.082113742828369,-8.60236644744873,2.1763293743133545,23.7579345703125,19.8211669921875,1.0528564453125
20.0499999,4.106055736541748,-8.746018409729004,2.3918075561523438,18.8751220703125,-16.571044921875,14.0228271484375
20.0699999,4.048594951629639,-8.80587387084961,2.626439332962036,5.5084228515625,-32.5469970703125,19.34814453125
20.089999900000002,4.098873138427734,-8.769960403442383,2.741360902786255,-1.2969970703125,-18.1121826171875,16.754150390625
20.109999900000002,4.050989151000977,-8.69095230102539,2.674323320388794,0.640869140625,21.697998046875,3.5552978515625
