# Time (seconds),Accel_X,Accel_Y,Accel_Z,Gyro_X,Gyro_Y,Gyro_Z
0.0099999,0.9002198576927185,-9.883264541625977,0.3519476354122162,-0.1373291015625,0.640869140625,-0.2288818359375
0.029999900000000003,0.9002198576927185,-9.883264541625977,0.3519476354122162,-0.091552734375,0.6103515625,-0.18310546875
0.0499999,0.8954314589500427,-9.880870819091797,0.35434186458587646,-0.1678466796875,0.640869140625,-0.30517578125
0.0699999,0.8738836050033569,-9.8784761428833,0.35673606395721436,-0.274658203125,0.6561279296875,-0.5645751953125
0.08999990000000001,0.849941611289978,-9.876082420349121,0.35913026332855225,-0.457763671875,0.54931640625,-1.495361328125
0.10999990000000001,0.8571242094039917,-9.8784761428833,0.35434186458587646,-0.4119873046875,0.5950927734375,-2.1820068359375
0.1299999,0.9026140570640564,-9.880870819091797,0.3447650372982025,-0.0457763671875,0.7171630859375,-1.2054443359375
0.14999990000000002,0.9624691009521484,-9.885659217834473,0.33279404044151306,0.1068115234375,0.762939453125,1.007080078125
0.1699999,1.01753568649292,-9.888052940368652,0.3208230137825012,0,0.6561279296875,1.7852783203125
0.1899999,1.0199298858642578,-9.888052940368652,0.3208230137825012,0.2593994140625,0.732421875,1.40380859375
0.20999990000000002,0.9672574996948242,-9.888052940368652,0.33039984107017517,0.30517578125,0.79345703125,0.9002685546875
0.2299999,0.8882488012313843,-9.883264541625977,0.3471592366695404,-0.0762939453125,0.579833984375,0.06103515625
0.2499999,0.8140285611152649,-9.880870819091797,0.36152446269989014,-0.3814697265625,0.54931640625,-1.190185546875
0.2699999,0.7757213711738586,-9.873687744140625,0.3734954595565796,-0.396728515625,0.6866455078125,-2.0904541015625
0.28999990000000003,0.7876923680305481,-9.876082420349121,0.3663128614425659,-0.3662109375,0.579833984375,-2.0599365234375
0.3099999,0.8523358106613159,-9.876082420349121,0.35434186458587646,-0.213623046875,0.6103515625,-1.3427734375
0.3299999,0.933738648891449,-9.883264541625977,0.33518823981285095,-0.1373291015625,0.67138671875,0.06103515625
0.34999990000000003,0.9959878921508789,-9.885659217834473,0.3208230137825012,0.030517578125,0.7476806640625,1.2359619140625
0.3699999,1.0127472877502441,-9.885659217834473,0.3256114423274994,0.3662109375,0.7476806640625,1.52587890625
0.3899999,0.9720458984375,-9.883264541625977,0.33279404044151306,-0.06103515625,0.6256103515625,0.8697509765625
0.40999990000000003,0.8978256583213806,-9.8784761428833,0.3495534360408783,-0.3662109375,0.54931640625,-0.5340576171875
0.4299999,0.828393816947937,-9.876082420349121,0.3687070608139038,-0.1678466796875,0.6561279296875,-1.8463134765625
0.4499999,0.7972691655158997,-9.876082420349121,0.3711012601852417,-0.3814697265625,0.5645751953125,-2.227783203125
0.4699999,0.8188169598579407,-9.880870819091797,0.3687070608139038,-0.42724609375,0.6256103515625,-1.7547607421875
0.4899999,0.8810662031173706,-9.883264541625977,0.36152446269989014,-0.2288818359375,0.6866455078125,-0.67138671875
0.5099999,0.9433154463768005,-9.888052940368652,0.33997663855552673,-0.0457763671875,0.6256103515625,0.5645751953125
0.5299999,0.9744400978088379,-9.890447616577148,0.33039984107017517,0.335693359375,0.7781982421875,0.732421875
0.5499999,0.9433154463768005,-9.892841339111328,0.3232172429561615,0.42724609375,0.579833984375,-0.0152587890625
0.5699999,0.9864110946655273,-9.911994934082031,0.24660277366638184,0.3662109375,-0.0762939453125,-1.3885498046875
0.5899998999999999,1.1085153818130493,-9.976638793945312,0.06224924325942993,1.64794921875,-9.33837890625,4.21142578125
0.6099998999999999,1.216254472732544,-10.144232749938965,-0.31603461503982544,4.058837890625,-31.036376953125,16.8304443359375
0.6299999,1.4077905416488647,-10.469843864440918,-0.7086837291717529,11.41357421875,-49.2401123046875,23.468017578125
0.6499999,1.4413094520568848,-10.982203483581543,-1.139639973640442,23.3612060546875,-38.75732421875,25.0244140625
0.6699999,1.479616641998291,-11.465831756591797,-1.2401964664459229,33.3404541015625,-12.6495361328125,21.7132568359375
0.6899999,1.3646949529647827,-11.978191375732422,-1.1755530834197998,38.421630859375,16.845703125,20.6298828125
0.7099999,1.161187767982483,-12.2990140914917,-0.8619126081466675,35.2935791015625,41.6259765625,15.7012939453125
0.7299998999999999,0.8451532125473022,-12.447454452514648,-0.4118026793003082,27.0843505859375,50.4302978515625,9.3994140625
0.7499998999999999,0.4189853072166443,-12.497733116149902,-0.011971008032560349,14.1448974609375,50.994873046875,3.326416015625
0.7699999,0.05506663769483566,-12.389993667602539,0.3423708379268646,1.5869140625,38.4368896484375,-3.082275390625
0.7899999,-0.17717093229293823,-12.179304122924805,0.586579442024231,-8.1024169921875,22.39990234375,-10.5133056640625
0.8099999,-0.3016694188117981,-11.915942192077637,0.667982280254364,-17.1966552734375,14.6942138671875,-17.303466796875
0.8299999,-0.2825157940387726,-11.626243591308594,0.6200982332229614,-25.8941650390625,8.575439453125,-21.4996337890625
0.8499998999999999,-0.14844051003456116,-11.353304862976074,0.47644615173339844,-33.4930419921875,1.2969970703125,-23.01025390625
0.8699998999999999,0.0454898327589035,-11.104307174682617,0.2561795711517334,-40.6341552734375,-0.244140625,-22.8118896484375
0.8899999,0.27054479718208313,-10.879252433776855,-0.019153613597154617,-46.3104248046875,1.4495849609375,-21.759033203125
0.9099999,0.4836287498474121,-10.65898609161377,-0.3016694188117981,-49.407958984375,-1.190185546875,-20.08056640625
0.9299999,0.6248866319656372,-10.462661743164062,-0.6057330369949341,-50.8575439453125,-4.241943359375,-17.5933837890625
0.9499999,0.7326257228851318,-10.251971244812012,-0.8762778043746948,-52.9937744140625,-2.166748046875,-13.9312744140625
0.9699998999999999,0.8259995579719543,-10.029311180114746,-1.0869675874710083,-56.5338134765625,5.8746337890625,-9.33837890625
0.9899998999999999,0.9074024558067322,-9.782708168029785,-1.2497732639312744,-59.600830078125,14.9993896484375,-3.387451171875
1.0099999,0.9720458984375,-9.533711433410645,-1.3862427473068237,-61.004638671875,18.829345703125,4.5928955078125
1.0299999,0.9864110946655273,-9.306262016296387,-1.5490485429763794,-60.05859375,18.7530517578125,14.617919921875
1.0499999,0.9265560507774353,-9.093177795410156,-1.7405846118927002,-56.3507080078125,17.3797607421875,23.7579345703125
1.0699999,0.7876923680305481,-8.889671325683594,-1.9488801956176758,-49.74365234375,17.5018310546875,28.5797119140625
1.0899999,0.6009446382522583,-8.676587104797363,-2.1475989818573,-40.5426025390625,18.61572265625,29.2816162109375
1.1099999,0.3734954595565796,-8.51138687133789,-2.315192937850952,-30.8990478515625,18.4478759765625,28.8848876953125
1.1299999,0.1412578970193863,-8.4108304977417,-2.43011474609375,-23.223876953125,17.9595947265625,31.097412109375
1.1499999,-0.028730420395731926,-8.389283180236816,-2.451662540435791,-18.646240234375,19.8211669921875,35.6903076171875
1.1699998999999999,-0.1388636976480484,-8.451532363891602,-2.387019157409668,-17.0745849609375,25.0091552734375,40.9393310546875
1.1899998999999999,-0.2082955539226532,-8.537723541259766,-2.250549554824829,-18.5699462890625,30.914306640625,48.33984375
1.2099999,-0.2346317619085312,-8.588001251220703,-2.0685901641845703,-22.8118896484375,39.886474609375,56.7474365234375
1.2299999,-0.30885201692581177,-8.56645393371582,-1.9177556037902832,-26.6571044921875,49.3621826171875,62.1795654296875
1.2499999,-0.47644615173339844,-8.463502883911133,-1.843535304069519,-27.8472900390625,46.356201171875,67.5048828125
1.2699999,-0.7015010714530945,-8.279149055480957,-1.8171991109848022,-27.34375,31.8756103515625,75.0579833984375
1.2899999,-0.9744400978088379,-8.070854187011719,-1.821987509727478,-26.3824462890625,28.3355712890625,81.024169921875
1.3099999,-1.2617442607879639,-7.860164165496826,-1.821987509727478,-24.7039794921875,39.2913818359375,83.2977294921875
1.3299999,-1.534683346748352,-7.687781810760498,-1.7932571172714233,-22.8729248046875,40.6341552734375,85.8001708984375
1.3499999,-1.8363527059555054,-7.592013359069824,-1.7717092037200928,-21.91162109375,25.4058837890625,93.7042236328125
1.3699999,-2.142810583114624,-7.565677165985107,-1.742978811264038,-20.99609375,9.2315673828125,105.3619384765625
1.3899999,-2.4612393379211426,-7.613561630249023,-1.7070658206939697,-18.00537109375,9.796142578125,113.861083984375
1.4099999,-2.846705913543701,-7.68538761138916,-1.7046716213226318,-12.969970703125,18.9056396484375,118.072509765625
1.4299998999999999,-3.2369606494903564,-7.7428483963012695,-1.721431016921997,-5.6610107421875,15.07568359375,119.9493408203125
1.4499999,-3.6559460163116455,-7.817068576812744,-1.764526605606079,3.84521484375,0.030517578125,121.337890625
1.4699999,-4.05817174911499,-7.869740962982178,-1.7956513166427612,12.054443359375,-9.8419189453125,125.701904296875
1.4899999,-4.364629745483398,-7.910442352294922,-1.745373010635376,18.4173583984375,-7.1868896484375,128.2806396484375
1.5099999,-4.630385875701904,-7.915230751037598,-1.6280571222305298,24.810791015625,-2.1820068359375,125.823974609375
1.5299999,-4.903325080871582,-7.898471355438232,-1.4844050407409668,29.998779296875,-10.07080078125,123.96240234375
1.5499999,-5.183446884155273,-7.817068576812744,-1.2952631711959839,32.04345703125,-26.275634765625,125.640869140625
1.5699999,-5.439626216888428,-7.706935405731201,-1.0678139925003052,29.937744140625,-31.280517578125,125.5950927734375
1.5899999,-5.679046630859375,-7.529764175415039,-0.7876923680305481,27.2064208984375,-17.88330078125,124.69482421875
1.6099999,-5.904101371765137,-7.326257228851318,-0.507570743560791,24.59716796875,-5.6915283203125,125.6103515625
1.6299999,-6.160281181335449,-7.060500621795654,-0.272938996553421,23.0712890625,-6.4697265625,124.8931884765625
1.6499999,-6.493074893951416,-6.787561893463135,-0.11252748221158981,24.10888671875,-7.6141357421875,115.875244140625
1.6699999,-6.904877662658691,-6.54574728012085,-0.05267243832349777,25.360107421875,-1.7547607421875,102.5238037109375
1.6899998999999999,-7.343016624450684,-6.356605529785156,-0.038307227194309235,25.787353515625,-3.5247802734375,92.9412841796875
1.7099999,-7.7213006019592285,-6.248866558074951,-0.040701430290937424,26.5045166015625,-9.552001953125,83.4197998046875
1.7299999,-8.015787124633789,-6.246472358703613,-0.05746084079146385,27.252197265625,-2.9296875,70.6787109375
1.7499999,-8.192957878112793,-6.3063273429870605,-0.06464344263076782,27.4810791015625,9.2620849609375,61.4471435546875
1.7699999,-8.269572257995605,-6.402095317840576,-0.1149216815829277,27.6031494140625,8.8348388671875,59.1888427734375
1.7899999,-8.283937454223633,-6.512228488922119,-0.19153612852096558,28.533935546875,-3.936767578125,58.6395263671875
1.8099999,-8.259995460510254,-6.584054470062256,-0.2992752194404602,29.78515625,-10.894775390625,60.150146484375
1.8299999,-8.192957878112793,-6.596025466918945,-0.38067805767059326,30.3497314453125,-10.7421875,62.469482421875
1.8499999,-8.1139497756958,-6.54574728012085,-0.4118026793003082,29.9530029296875,-15.2587890625,67.1844482421875
1.8699999,-8.056488990783691,-6.423643112182617,-0.3687070608139038,28.228759765625,-23.74267578125,71.6705322265625
1.8899999,-8.073247909545898,-6.246472358703613,-0.27054479718208313,24.8565673828125,-24.6429443359375,70.7855224609375
1.9099999,-8.166622161865234,-6.030993938446045,-0.13407529890537262,20.32470703125,-18.8140869140625,65.9942626953125
1.9299998999999999,-8.322244644165039,-5.793968200683594,0.021547814831137657,16.143798828125,-17.7154541015625,61.5081787109375
1.9499999,-8.492233276367188,-5.57370138168335,0.15083470940589905,13.092041015625,-20.5078125,58.2427978515625
1.9699999,-8.810662269592285,-5.264849662780762,0.24181437492370605,7.476806640625,-21.331787109375,60.9130859375
1.9899999,-8.975862503051758,-5.1331682205200195,0.22744916379451752,4.9896240234375,-23.8494873046875,65.1397705078125
2.0099999,-9.14585018157959,-4.991910457611084,0.19153612852096558,3.3721923828125,-23.6968994140625,67.291259765625
2.0299999,-9.342175483703613,-4.797980308532715,0.15322890877723694,1.3427734375,-22.369384765625,67.718505859375
2.0499999,-9.53849983215332,-4.5394062995910645,0.09576806426048279,-0.823974609375,-22.94921875,65.2008056640625
2.0699999,-9.696516990661621,-4.242525577545166,0.026336219161748886,-0.9765625,-22.8729248046875,59.3109130859375
2.0899999,-9.804255485534668,-3.950432777404785,-0.047884032130241394,0.18310546875,-17.9443359375,54.840087890625
2.1099999,-9.907206535339355,-3.667917013168335,-0.11252748221158981,0.213623046875,-10.162353515625,53.680419921875
2.1299999,-10.019734382629395,-3.4093432426452637,-0.1628057211637497,-0.1983642578125,-5.7220458984375,50.9185791015625
2.1499999,-10.144232749938965,-3.184288263320923,-0.1843535304069519,1.0223388671875,-5.767822265625,45.41015625
2.1699999,-10.266336441040039,-2.96162748336792,-0.18914192914962769,2.471923828125,-5.3863525390625,41.50390625
2.1899999,-10.304644584655762,-2.738966703414917,-0.1604115068912506,2.99072265625,-3.23486328125,40.7562255859375
2.2099999,-10.218452453613281,-2.5450363159179688,-0.10295066982507706,3.9520263671875,-2.38037109375,43.1671142578125
2.2299999,-10.086771965026855,-2.3271639347076416,-0.028730420395731926,5.096435546875,-6.072998046875,49.1180419921875
2.2499999,-9.943120002746582,-2.0901381969451904,0.040701430290937424,5.2337646484375,-11.4593505859375,54.0008544921875
2.2699999,-9.825803756713867,-1.8195933103561401,0.1173158809542656,4.791259765625,-14.22119140625,55.450439453125
2.2899999,-9.746794700622559,-1.5322890281677246,0.20350714027881622,3.5552978515625,-12.0849609375,55.72509765625
2.3099999,-9.703699111938477,-1.2258312702178955,0.3016694188117981,1.5411376953125,-7.9193115234375,54.962158203125
2.3299999,-9.658209800720215,-0.9624691009521484,0.40462008118629456,-0.8544921875,-4.150390625,51.5594482421875
2.3499999,-9.62947940826416,-0.751779317855835,0.4836287498474121,-3.936767578125,-1.5106201171875,47.271728515625
2.3699999,-9.624691009521484,-0.5841852426528931,0.5315127968788147,-7.1563720703125,-0.48828125,42.05322265625
2.3899999,-9.648633003234863,-0.48602294921875,0.5434837937355042,-9.3841552734375,2.5482177734375,35.003662109375
2.4099999,-9.68694019317627,-0.4596867263317108,0.5410895943641663,-11.199951171875,4.8980712890625,29.78515625
2.4299999,-9.782708168029785,-0.47165772318840027,0.5291185975074768,-12.969970703125,7.7056884765625,26.8096923828125
2.4499999,-9.919178009033203,-0.524330198764801,0.5099649429321289,-13.0157470703125,12.3291015625,20.56884765625
2.4699999,-10.077195167541504,-0.5841852426528931,0.49559974670410156,-11.1236572265625,12.2528076171875,12.115478515625
2.4899999,-10.278307914733887,-0.586579442024231,0.47644615173339844,-9.765625,8.453369140625,8.30078125
2.5099999,-10.441113471984863,-0.5219359993934631,0.47644615173339844,-8.544921875,5.3863525390625,9.4146728515625
2.5299999,-10.556035041809082,-0.3878606855869293,0.5051765441894531,-7.2784423828125,5.4779052734375,12.3138427734375
2.5499999,-10.6709566116333,-0.20111294090747833,0.5554547905921936,-6.2713623046875,5.0506591796875,13.7939453125
2.5699999,-10.78587818145752,-0.0071826050989329815,0.569819986820221,-4.180908203125,-3.23486328125,9.46044921875
2.5899999,-10.793061256408691,0.11013327538967133,0.569819986820221,0.1068115234375,-20.1873779296875,0.6866455078125
2.6099999,-10.6709566116333,0.1412578970193863,0.545877993106842,4.0283203125,-27.1453857421875,-2.7618408203125
2.6299999,-10.390835762023926,0.07182604819536209,0.5171475410461426,5.645751953125,-18.707275390625,1.556396484375
2.6499999,-10.02691650390625,-0.033518824726343155,0.524330198764801,5.6610107421875,-11.077880859375,6.65283203125
2.6699999,-9.725247383117676,-0.13168109953403473,0.5506663918495178,4.69970703125,-5.43212890625,7.4615478515625
2.6899999,-9.581595420837402,-0.181959331035614,0.5578489899635315,3.3721923828125,0.579833984375,6.439208984375
2.7099999,-9.564835548400879,-0.16519992053508759,0.545877993106842,4.5928955078125,1.556396484375,6.561279296875
2.7299999,-9.619902610778809,-0.1149216815829277,0.5051765441894531,8.7432861328125,0.5645751953125,7.6904296875
2.7499999,-9.976638793945312,-0.021547814831137657,0.4620809257030487,12.75634765625,0.1983642578125,8.60595703125
2.7699999,-10.316615104675293,0.07661445438861847,0.3902548849582672,15.5487060546875,0.3662109375,-3.753662109375
2.7899999,-10.656591415405273,0.1388636976480484,0.31364041566848755,18.341064453125,-0.640869140625,-2.0751953125
2.8099999,-10.828974723815918,0.2585737705230713,0.2346317619085312,19.866943359375,-3.8604736328125,2.105712890625
2.8299999,-10.690110206604004,0.33758243918418884,0.15801730751991272,19.2108154296875,-6.28662109375,-1.3275146484375
2.8499999,-10.424354553222656,0.42377370595932007,0.1388636976480484,17.059326171875,-6.6986083984375,-4.852294921875
2.8699999,-10.20648193359375,0.4884171485900879,0.17956513166427612,14.068603515625,-7.4310302734375,-5.4473876953125
2.8899999,-10.036493301391602,0.4836287498474121,0.2777273952960968,10.1318359375,-8.880615234375,-4.3792724609375
2.9099999,-9.938331604003906,0.42856210470199585,0.4165911078453064,5.462646484375,-8.5296630859375,-3.2501220703125
2.9299999,-9.876082420349121,0.3519476354122162,0.5482721924781799,2.6092529296875,-6.6986083984375,-3.60107421875
2.9499999,-9.847352027893066,0.2777273952960968,0.6607996821403503,3.1585693359375,-6.04248046875,-4.3792724609375
2.9699999,-9.847352027893066,0.1843535304069519,0.7469909191131592,5.0811767578125,-6.439208984375,-4.0283203125
2.9899999,-9.873687744140625,0.12449848651885986,0.811634361743927,4.852294921875,-5.584716796875,-2.655029296875
3.0099999,-9.904812812805176,0.08619125932455063,0.8762778043746948,2.62451171875,-3.387451171875,-1.7852783203125
3.0299999,-9.921571731567383,0.0933738648891449,0.9576807022094727,-0.6561279296875,-1.3427734375,-2.0294189453125
3.0499999,-9.914389610290527,0.1628057211637497,1.0414776802062988,-5.6304931640625,0.6866455078125,-1.6021728515625
3.0699999,-9.890447616577148,0.24181437492370605,1.1037269830703735,-11.077880859375,3.60107421875,-1.861572265625
3.0899999,-9.861717224121094,0.2825157940387726,1.139639973640442,-15.167236328125,6.4544677734375,-3.0975341796875
3.1099999,-9.852140426635742,0.272938996553421,1.1827356815338135,-18.4478759765625,8.6669921875,-2.288818359375
3.1299999,-9.84256362915039,0.2346317619085312,1.216254472732544,-23.3612060546875,12.0391845703125,0.3204345703125
3.1499999,-9.854534149169922,0.15801730751991272,1.194706678390503,-27.435302734375,16.2200927734375,0.91552734375
3.1699999,-9.876082420349121,0.08379705995321274,1.0582371950149536,-26.6876220703125,17.6849365234375,-0.1373291015625
3.1899999,-9.914389610290527,0.019153613597154617,0.7757213711738586,-21.3775634765625,15.0146484375,0.091552734375
3.2099999,-9.976638793945312,-0.05985504388809204,0.395043283700943,-14.007568359375,10.528564453125,0.823974609375
3.2299999,-10.046070098876953,-0.12689268589019775,-0.014365210197865963,-6.5460205078125,5.92041015625,0.6103515625
3.2499999,-10.110713958740234,-0.19871874153614044,-0.3663128614425659,1.953125,0.7781982421875,0.5035400390625
3.2699999,-10.156203269958496,-0.22026655077934265,-0.6153098344802856,9.8419189453125,-5.7220458984375,1.3427734375
3.2899999,-10.1753568649292,-0.2298433631658554,-0.7350199222564697,15.9454345703125,-12.1612548828125,1.5869140625
3.3099999,-10.1753568649292,-0.19871874153614044,-0.7326257228851318,19.8211669921875,-17.0440673828125,1.1749267578125
3.3299999000000002,-10.153809547424316,-0.12449848651885986,-0.5913678407669067,22.8271484375,-20.7672119140625,1.0986328125
3.3499999,-10.103530883789062,0.011971008032560349,-0.31364041566848755,26.7486572265625,-23.590087890625,1.28173828125
3.3699999,-10.036493301391602,0.15562310814857483,0.047884032130241394,28.961181640625,-24.23095703125,-0.3814697265625
3.3899999,-9.96945571899414,0.23942017555236816,0.4381389021873474,28.350830078125,-22.5372314453125,-2.3345947265625
3.4099999,-9.890447616577148,0.26096799969673157,0.8523358106613159,26.9927978515625,-20.1873779296875,-0.701904296875
3.4299999,-9.823410034179688,0.2082955539226532,1.2665326595306396,25.8941650390625,-16.5863037109375,2.288818359375
3.4499999,-9.761159896850586,0.17717093229293823,1.6424223184585571,21.9268798828125,-9.8419189453125,2.838134765625
3.4699999,-9.694122314453125,0.18914192914962769,1.946485996246338,14.6636962890625,-1.708984375,1.6326904296875
3.4899999,-9.672574996948242,0.35434186458587646,2.126051187515259,7.0953369140625,3.662109375,1.953125
3.5099999,-9.674968719482422,0.5386953949928284,2.229001760482788,-1.4495849609375,10.1165771484375,2.1514892578125
3.5299999,-9.703699111938477,0.8092401623725891,2.2697031497955322,-13.0615234375,18.49365234375,-1.434326171875
3.5499999,-9.749189376831055,0.9864110946655273,2.1787235736846924,-20.355224609375,24.6734619140625,-7.8277587890625
3.5699999,-9.758766174316406,1.0558429956436157,2.0159177780151367,-21.3623046875,30.6549072265625,-12.4053955078125
3.5899999,-9.713275909423828,0.8978256583213806,1.6184803247451782,-21.17919921875,33.8287353515625,-14.7247314453125
3.6099999,-9.765948295593262,0.5434837937355042,1.0630255937576294,-21.3623046875,28.900146484375,-11.3677978515625
3.6299999,-9.897629737854004,0.047884032130241394,0.4165911078453064,-15.4876708984375,22.2930908203125,-6.5765380859375
3.6499999,-10.031704902648926,-0.47405192255973816,-0.2298433631658554,-0.762939453125,11.8408203125,-4.6234130859375
3.6699999,-10.244789123535156,-0.9050082564353943,-0.7948749661445618,15.4571533203125,3.753662109375,-0.518798828125
3.6899999,-10.27591323852539,-1.2042834758758545,-1.280897855758667,29.11376953125,-2.6702880859375,1.4495849609375
3.7099999,-10.247182846069336,-1.237802267074585,-1.4437036514282227,42.4041748046875,-14.892578125,5.1422119140625
3.7299999,-10.278307914733887,-1.115697979927063,-1.2737152576446533,46.0357666015625,-23.162841796875,11.871337890625
3.7499999,-10.134655952453613,-0.7445967197418213,-0.7709329724311829,37.8570556640625,-25.1617431640625,12.6953125
3.7699999,-10.093954086303711,-0.3208230137825012,-0.07422025501728058,23.0255126953125,-17.8070068359375,14.1143798828125
3.7899999,-9.883264541625977,0.10773907601833344,0.6775590777397156,6.28662109375,-7.38525390625,12.481689453125
3.8099999,-9.734824180603027,0.5171475410461426,1.213860273361206,-6.3629150390625,-8.2550048828125,14.6331787109375
3.8299999000000002,-9.715670585632324,0.7565677165985107,1.577778935432434,-12.3443603515625,-7.2174072265625,15.228271484375
3.8499999,-9.701305389404297,0.9097966551780701,1.6519991159439087,-10.9710693359375,-5.126953125,9.9639892578125
3.8699999,-9.816226959228516,0.9433154463768005,1.558625340461731,-5.584716796875,1.678466796875,6.103515625
3.8899999,-9.86650562286377,0.9169792532920837,1.2425906658172607,1.3427734375,1.861572265625,1.64794921875
3.9099999,-9.921571731567383,0.8523358106613159,1.0749965906143188,7.5836181640625,-5.8135986328125,1.2359619140625
3.9299999,-9.983820915222168,0.7422025203704834,0.7374141216278076,9.27734375,-5.828857421875,1.15966796875
3.9499999,-9.974244117736816,0.6272808313369751,0.751779317855835,9.70458984375,-6.9427490234375,-1.556396484375
3.9699999,-9.995792388916016,0.5003881454467773,0.6153098344802856,10.6353759765625,0.7476806640625,-2.288818359375
3.9899999,-9.873687744140625,0.42856210470199585,0.7541735172271729,9.8876953125,5.6915283203125,-3.814697265625
4.0099999,-9.945513725280762,0.395043283700943,0.811634361743927,6.3629150390625,-2.105712890625,-1.2664794921875
4.029999900000001,-9.909601211547852,0.45010992884635925,0.9768342971801758,0.30517578125,-1.373291015625,-0.335693359375
4.0499999,-9.979032516479492,0.48602294921875,1.039083480834961,-4.6844482421875,0.5035400390625,-1.1138916015625
4.069999900000001,-9.950302124023438,0.5195417404174805,1.0462661981582642,-6.89697265625,3.72314453125,-3.0517578125
4.0899999000000005,-9.90241813659668,0.5793967843055725,0.8690952062606812,-6.3323974609375,2.99072265625,-5.035400390625
4.1099999,-9.876082420349121,0.6224924325942993,0.8786720037460327,-6.8511962890625,1.03759765625,-3.875732421875
4.1299999000000005,-9.873687744140625,0.5913678407669067,0.7757213711738586,-18.85986328125,3.0059814453125,-1.6937255859375
4.1499999,-9.919178009033203,0.4812345504760742,0.8020575642585754,-19.683837890625,4.5166015625,-1.89208984375
4.1699999000000005,-9.947908401489258,0.22026655077934265,0.7661445140838623,-8.026123046875,1.861572265625,-1.678466796875
4.1899999,-9.976638793945312,-0.08140286058187485,0.6057330369949341,5.2947998046875,-1.40380859375,0.6256103515625
4.209999900000001,-9.998186111450195,-0.3256114423274994,0.4189853072166443,15.8538818359375,-5.523681640625,3.4332275390625
4.2299999,-10.019734382629395,-0.4165911078453064,0.26575639843940735,21.2249755859375,-9.82666015625,5.4473876953125
4.249999900000001,-10.014945983886719,-0.33518823981285095,0.2585737705230713,21.05712890625,-12.0086669921875,6.8817138671875
4.2699999,-9.998186111450195,-0.08379705995321274,0.4118026793003082,16.78466796875,-11.2152099609375,7.6904296875
4.289999900000001,-9.962273597717285,0.2513911724090576,0.7206547260284424,9.857177734375,-8.819580078125,7.476806640625
4.3099999,-9.909601211547852,0.5817909836769104,1.0223240852355957,-0.030517578125,-5.889892578125,6.6986083984375
4.329999900000001,-9.885659217834473,0.8259995579719543,1.3072341680526733,-9.2010498046875,-3.448486328125,5.8746337890625
4.3499999,-9.916783332824707,0.9720458984375,1.4867992401123047,-15.380859375,-1.1138916015625,6.134033203125
4.369999900000001,-10.11550235748291,1.072602391242981,1.6112977266311646,-19.866943359375,1.9683837890625,4.5623779296875
4.3899999,-10.498574256896973,1.1324573755264282,1.678335428237915,-24.261474609375,6.53076171875,-2.1209716796875
4.409999900000001,-11.010933876037598,1.161187767982483,1.7262194156646729,-27.4505615234375,7.843017578125,-12.63427734375
4.4299999,-11.552022933959961,1.1468225717544556,1.723825216293335,-28.8848876953125,6.0272216796875,-26.0162353515625
4.449999900000001,-11.96861457824707,1.0342950820922852,1.656787633895874,-28.167724609375,9.8114013671875,-40.802001953125
4.4699999,-12.145785331726074,0.8451532125473022,1.5298948287963867,-25.4974365234375,9.94873046875,-53.741455078125
4.489999900000001,-12.030863761901855,0.5746083855628967,1.3886369466781616,-23.98681640625,-1.64794921875,-61.676025390625
4.5099999,-11.595118522644043,0.2585737705230713,1.2545616626739502,-24.7344970703125,-8.2550048828125,-63.0950927734375
4.529999900000001,-10.888829231262207,-0.1364694982767105,1.158793568611145,-25.634765625,-5.126953125,-61.7523193359375
4.5499999,-10.06043529510498,-0.524330198764801,1.139639973640442,-25.360107421875,1.6326904296875,-56.9915771484375
4.569999900000001,-9.306262016296387,-0.871489405632019,1.1180921792984009,-25.3753662109375,10.772705078125,-50.3692626953125
4.5899999000000005,-8.722076416015625,-1.1492167711257935,1.115697979927063,-25.238037109375,14.70947265625,-44.9981689453125
4.609999900000001,-8.365341186523438,-1.3192051649093628,1.0989385843276978,-25.8636474609375,18.6920166015625,-39.5965576171875
4.6299999000000005,-8.197746276855469,-1.400607943534851,1.0773907899856567,-30.0445556640625,27.923583984375,-33.3251953125
4.6499999,-8.2312650680542,-1.3838485479354858,1.0271124839782715,-37.2467041015625,35.8123779296875,-26.4739990234375
4.6699999000000005,-8.453926086425781,-1.3192051649093628,0.9696516990661621,-36.2548828125,28.0914306640625,-20.5230712890625
4.6899999,-8.89445972442627,-1.2258312702178955,0.8595184087753296,-34.3017578125,3.143310546875,-18.24951171875
4.709999900000001,-9.397241592407227,-1.1324573755264282,0.7158663272857666,-44.647216796875,-32.53173828125,-21.7437744140625
4.7299999,-9.761159896850586,-1.0845733880996704,0.5961562395095825,-52.1087646484375,-66.1773681640625,-27.9693603515625
4.749999900000001,-9.909601211547852,-1.0773907899856567,0.5147533416748047,-54.9774169921875,-67.1539306640625,-36.6363525390625
4.7699999,-9.823410034179688,-1.1037269830703735,0.4812345504760742,-55.72509765625,-40.10009765625,-48.8739013671875
4.789999900000001,-9.533711433410645,-1.2401964664459229,0.47644615173339844,-52.0782470703125,-9.8876953125,-60.8978271484375
4.8099999,-9.246406555175781,-1.4891934394836426,0.40462008118629456,-45.257568359375,16.6015625,-67.291259765625
4.829999900000001,-9.038111686706543,-1.8483237028121948,0.26815059781074524,-39.6728515625,31.8145751953125,-68.5882568359375
4.8499999,-8.942343711853027,-2.255337953567505,0.047884032130241394,-36.773681640625,36.895751953125,-71.746826171875
4.869999900000001,-8.959102630615234,-2.6360161304473877,-0.14844051003456116,-36.224365234375,38.7420654296875,-78.0029296875
4.8899999,-9.028534889221191,-2.9664158821105957,-0.3016694188117981,-37.3077392578125,46.5850830078125,-81.390380859375
4.909999900000001,-9.033323287963867,-3.308786630630493,-0.40940847992897034,-37.6739501953125,61.676025390625,-77.606201171875
4.9299999,-8.987833023071289,-3.7205893993377686,-0.5171475410461426,-34.7900390625,73.5321044921875,-64.88037109375
4.949999900000001,-8.971074104309082,-4.177882194519043,-0.6919242739677429,-29.3121337890625,76.3397216796875,-46.6766357421875
4.9699999,-9.05247688293457,-4.6255974769592285,-0.933738648891449,-23.25439453125,72.1588134765625,-26.3671875
4.989999900000001,-9.210494041442871,-5.0014872550964355,-1.216254472732544,-17.6544189453125,60.1806640625,-3.0975341796875
5.0099999,-9.320627212524414,-5.276820659637451,-1.4772224426269531,-11.474609375,40.2679443359375,24.71923828125
5.029999900000001,-9.346963882446289,-5.384559631347656,-1.6855180263519287,-4.5623779296875,15.472412109375,54.2449951171875
5.0499999,-9.251194953918457,-5.252878665924072,-1.8076223134994507,2.899169921875,-12.5579833984375,76.812744140625
5.069999900000001,-9.174580574035645,-4.831499099731445,-1.7717092037200928,10.1165771484375,-41.595458984375,80.6884765625
5.0899999000000005,-9.160215377807617,-4.189853191375732,-1.601720929145813,14.2059326171875,-58.502197265625,65.9027099609375
5.109999900000001,-9.160215377807617,-3.490746021270752,-1.2282254695892334,15.0604248046875,-56.3507080078125,48.248291015625
5.1299999000000005,-9.124302864074707,-2.8993782997131348,-0.7398083209991455,12.8326416015625,-28.350830078125,35.46142578125
5.1499999,-9.105149269104004,-2.5067291259765625,-0.23702596127986908,7.843017578125,14.6484375,23.590087890625
5.1699999000000005,-9.069235801696777,-2.3558945655822754,0.11252748221158981,3.143310546875,44.3267822265625,12.87841796875
5.1899999,-9.165003776550293,-2.3702597618103027,0.23702596127986908,0.0457763671875,46.4935302734375,7.965087890625
5.209999900000001,-9.361329078674316,-2.497152328491211,0.1149216815829277,-2.685546875,34.1949462890625,3.72314453125
5.2299999,-9.550470352172852,-2.674323320388794,-0.181959331035614,-4.7454833984375,24.1546630859375,-3.7994384765625
5.249999900000001,-9.655815124511719,-2.8395233154296875,-0.4812345504760742,-4.7607421875,21.1639404296875,-7.6141357421875
5.2699999,-9.679757118225098,-2.9472622871398926,-0.7757213711738586,-5.828857421875,19.22607421875,-5.06591796875
5.289999900000001,-9.603142738342285,-3.0166940689086914,-0.9792284965515137,-7.7972412109375,-0.946044921875,0.9918212890625
5.3099999,-9.509769439697266,-3.00711727142334,-1.113303780555725,-11.627197265625,-32.6995849609375,9.6588134765625
5.329999900000001,-9.437943458557129,-2.9233202934265137,-1.0654197931289673,-17.3187255859375,-53.192138671875,16.632080078125
5.3499999,-9.370905876159668,-2.75812029838562,-0.9002198576927185,-23.8037109375,-48.309326171875,18.951416015625
5.369999900000001,-9.313444137573242,-2.5905263423919678,-0.5841852426528931,-28.80859375,-33.3099365234375,17.974853515625
5.3899999,-9.275136947631836,-2.4588451385498047,-0.27054479718208313,-33.0352783203125,-16.9677734375,17.3797607421875
5.409999900000001,-9.260771751403809,-2.4205379486083984,-0.07182604819536209,-36.1328125,-3.1280517578125,17.6239013671875
5.4299999,-9.351752281188965,-2.43011474609375,0,-37.3992919921875,5.6610107421875,19.3023681640625
5.449999900000001,-9.490615844726562,-2.499546527862549,-0.14365209639072418,-38.818359375,12.5732421875,20.721435546875
5.4699999,-9.643844604492188,-2.535459518432617,-0.3471592366695404,-38.6199951171875,-0.0152587890625,22.15576171875
5.489999900000001,-9.765948295593262,-2.5019407272338867,-0.5961562395095825,-34.3017578125,-6.744384765625,23.5137939453125
5.5099999,-9.856928825378418,-2.4827871322631836,-0.8858546018600464,-26.9317626953125,14.556884765625,14.58740234375
5.529999900000001,-9.885659217834473,-2.432508945465088,-1.1420341730117798,-16.387939453125,6.89697265625,8.148193359375
5.5499999,-9.859322547912598,-2.425326347351074,-1.3934253454208374,-3.6773681640625,-6.591796875,4.3487548828125
5.569999900000001,-9.761159896850586,-2.4588451385498047,-1.6041151285171509,10.406494140625,-9.27734375,3.35693359375
5.5899999000000005,-9.583989143371582,-2.5091233253479004,-1.7381904125213623,24.505615234375,-9.063720703125,9.674072265625
5.609999900000001,-9.354146003723145,-2.52109432220459,-1.7717092037200928,37.567138671875,-11.260986328125,19.4091796875
5.6299999000000005,-9.17936897277832,-2.4372973442077637,-1.678335428237915,47.9583740234375,-4.852294921875,24.200439453125
5.6499999,-9.126696586608887,-2.2601263523101807,-1.4915876388549805,56.2896728515625,13.9312744140625,23.5443115234375
5.6699999000000005,-9.229647636413574,-1.9728221893310547,-1.3287819623947144,63.201904296875,34.2864990234375,19.59228515625
5.6899999,-9.445125579833984,-1.6759412288665771,-1.2186486721038818,69.2901611328125,32.16552734375,16.05224609375
5.709999900000001,-9.782708168029785,-1.4484920501708984,-1.2761094570159912,74.8748779296875,8.2244873046875,18.890380859375
5.7299999,-10.005369186401367,-1.335964560508728,-1.3455413579940796,80.87158203125,-29.4647216796875,30.8074951171875
5.749999900000001,-10.096348762512207,-1.335964560508728,-1.2952631711959839,83.6181640625,-62.9425048828125,46.7987060546875
5.7699999,-9.782708168029785,-1.3982137441635132,-0.5554547905921936,77.972412109375,-65.91796875,58.868408203125
5.789999900000001,-9.50498104095459,-1.3623007535934448,0.023942016065120697,70.9075927734375,-56.396484375,53.1768798828125
5.8099999,-9.284713745117188,-1.1851298809051514,0.6129156351089478,57.7392578125,-40.0848388671875,43.5028076171875
5.829999900000001,-9.2033109664917,-0.8762778043746948,1.070208191871643,42.510986328125,-17.76123046875,27.923583984375
5.8499999,-9.287108421325684,-0.507570743560791,1.359906554222107,30.8074951171875,-0.6256103515625,6.2408447265625
5.869999900000001,-9.5624418258667,-0.18914192914962769,1.482010841369629,20.050048828125,8.209228515625,-16.3116455078125
5.8899999,-9.821015357971191,-0.06464344263076782,1.3862427473068237,8.9111328125,13.5040283203125,-32.3638916015625
5.909999900000001,-9.923966407775879,-0.23942017555236816,1.1827356815338135,1.9989013671875,12.6800537109375,-32.16552734375
5.9299999,-9.84256362915039,-0.646434485912323,0.9385270476341248,-1.4495849609375,6.866455078125,-16.5557861328125
5.949999900000001,-9.615114212036133,-1.1013327836990356,0.6967126727104187,-4.8370361328125,7.904052734375,4.8980712890625
5.9699999,-9.41639518737793,-1.4484920501708984,0.5530605912208557,-8.270263671875,14.3280029296875,25.6195068359375
5.989999900000001,-9.409213066101074,-1.4939818382263184,0.4812345504760742,-11.90185546875,16.7694091796875,42.7093505859375
6.0099999,-9.634267807006836,-1.2449848651885986,0.4908113479614258,-15.7470703125,0.5035400390625,50.0946044921875
6.029999900000001,-10.019734382629395,-0.7589619159698486,0.6057330369949341,-23.681640625,-24.505615234375,40.5426025390625
6.0499999,-10.369287490844727,-0.2585737705230713,0.7781155705451965,-35.4766845703125,-28.1982421875,21.6827392578125
6.069999900000001,-10.527304649353027,0.11013327538967133,1.0055646896362305,-46.08154296875,-9.3841552734375,7.1868896484375
6.0899999000000005,-10.505757331848145,0.2537853717803955,1.1252747774124146,-52.9937744140625,25.1312255859375,-4.21142578125
6.109999900000001,-10.338163375854492,0.15083470940589905,1.0295066833496094,-52.4139404296875,51.9256591796875,-12.0849609375
6.1299999000000005,-10.201693534851074,-0.11013327538967133,0.6751648783683777,-44.12841796875,49.1790771484375,-9.27734375
6.149999900000001,-10.170568466186523,-0.4596867263317108,0.14844051003456116,-31.7840576171875,30.94482421875,1.0223388671875
6.1699999000000005,-10.228029251098633,-0.7948749661445618,-0.42377370595932007,-18.2037353515625,20.6298828125,6.77490234375
6.1899999,-10.326191902160645,-1.0678139925003052,-0.8858546018600464,-3.631591796875,17.9443359375,4.7454833984375
6.209999900000001,-10.465055465698242,-1.1994950771331787,-1.173158884048462,10.1776123046875,10.92529296875,3.5552978515625
6.2299999,-10.56800651550293,-1.216254472732544,-1.2617442607879639,21.2554931640625,-3.1585693359375,3.84521484375
6.249999900000001,-10.627861022949219,-1.139639973640442,-1.1779472827911377,28.50341796875,-16.632080078125,3.509521484375
6.2699999,-10.582371711730957,-1.0055646896362305,-0.9385270476341248,32.1044921875,-26.1993408203125,3.60107421875
6.289999900000001,-10.469843864440918,-0.8307880163192749,-0.5937620401382446,31.6162109375,-30.76171875,4.69970703125
6.3099999,-10.323798179626465,-0.6440402865409851,-0.19632454216480255,28.01513671875,-23.5595703125,1.312255859375
6.329999900000001,-10.158597946166992,-0.47884035110473633,0.1843535304069519,22.5830078125,-11.5203857421875,-6.6986083984375
6.3499999,-10.022128105163574,-0.3519476354122162,0.5051765441894531,15.533447265625,-6.5765380859375,-9.674072265625
6.369999900000001,-9.904812812805176,-0.2753331959247589,0.7206547260284424,7.843017578125,-7.110595703125,-4.791259765625
6.3899999,-9.770736694335938,-0.26336219906806946,0.8379706144332886,1.068115234375,-7.8125,1.2359619140625
6.409999900000001,-9.648633003234863,-0.26336219906806946,0.8690952062606812,-5.0201416015625,-4.180908203125,4.913330078125
6.4299999,-9.545681953430176,-0.26336219906806946,0.8140285611152649,-10.2691650390625,2.9754638671875,4.94384765625
6.449999900000001,-9.433155059814453,-0.24181437492370605,0.7015010714530945,-13.1683349609375,6.7291259765625,3.9215087890625
6.4699999,-9.30386734008789,-0.1867477297782898,0.5434837937355042,-13.702392578125,9.27734375,5.2490234375
6.489999900000001,-9.078812599182129,-0.12449848651885986,0.3663128614425659,-13.214111328125,12.7105712890625,11.383056640625
6.5099999,-9.880870819091797,-0.0694318488240242,0.2537853717803955,-11.7950439453125,13.8092041015625,16.6778564453125
6.529999900000001,-10.125079154968262,-0.05985504388809204,0.090979665517807,-10.6658935546875,1.9989013671875,-11.77978515625
6.5499999,-11.02051067352295,-0.14604631066322327,-0.004788403399288654,-7.049560546875,4.1961669921875,2.685546875
6.569999900000001,-11.204863548278809,-0.24420857429504395,-0.14365209639072418,0.06103515625,1.0223388671875,6.40869140625
6.5899999000000005,-10.946290016174316,-0.3734954595565796,-0.24660277366638184,6.561279296875,-1.1749267578125,2.105712890625
6.609999900000001,-10.582371711730957,-0.4381389021873474,-0.28969839215278625,10.80322265625,-2.716064453125,0.42724609375
6.6299999000000005,-10.247182846069336,-0.4644751250743866,-0.26096799969673157,14.0838623046875,-5.31005859375,0.0457763671875
6.649999900000001,-10.038887977600098,-0.45489832758903503,-0.12210428714752197,14.801025390625,-6.8511962890625,0.9307861328125
6.6699999000000005,-9.919178009033203,-0.42377370595932007,0.06703764945268631,10.894775390625,-4.1656494140625,3.2196044921875
6.6899999,-9.837775230407715,-0.3711012601852417,0.31364041566848755,5.18798828125,-1.739501953125,3.7689208984375
6.709999900000001,-9.806650161743164,-0.31603461503982544,0.49799394607543945,-1.068115234375,-0.79345703125,4.058837890625
6.7299999,-9.821015357971191,-0.26815059781074524,0.6200982332229614,-7.568359375,0.8392333984375,5.9967041015625
6.749999900000001,-9.86889934539795,-0.23942017555236816,0.5913678407669067,-14.5416259765625,2.3956298828125,8.3160400390625
6.7699999,-9.931148529052734,-0.22266076505184174,0.4812345504760742,-19.8822021484375,1.220703125,8.9111328125
6.789999900000001,-9.988609313964844,-0.18914192914962769,0.30885201692581177,-21.9573974609375,-0.213623046875,9.307861328125
6.8099999,-10.022128105163574,-0.1388636976480484,0.11971008777618408,-20.6146240234375,-0.91552734375,8.819580078125
6.829999900000001,-10.046070098876953,-0.08379705995321274,-0.033518824726343155,-14.862060546875,-2.5482177734375,6.103515625
6.8499999,-10.055646896362305,-0.05027823522686958,-0.1364694982767105,-6.53076171875,-5.55419921875,3.9825439453125
6.869999900000001,-10.077195167541504,-0.016759412363171577,-0.22744916379451752,1.5411376953125,-8.209228515625,3.7841796875
6.8899999,-10.098742485046387,0.035913024097681046,-0.2801215946674347,10.9405517578125,-11.4898681640625,2.1514892578125
6.909999900000001,-10.110713958740234,0.12449848651885986,-0.2968810200691223,21.30126953125,-15.2130126953125,-2.62451171875
6.9299999,-10.096348762512207,0.24660277366638184,-0.23702596127986908,28.656005859375,-18.2647705078125,-7.598876953125
6.949999900000001,-10.053253173828125,0.33039984107017517,-0.08858546614646912,30.181884765625,-18.890380859375,-10.1165771484375
6.9699999,-10.012551307678223,0.3280056416988373,0.15083470940589905,28.564453125,-18.06640625,-10.9710693359375
6.989999900000001,-9.952696800231934,0.181959331035614,0.4596867263317108,24.4293212890625,-16.9525146484375,-9.7503662109375
7.0099999,-9.890447616577148,-0.035913024097681046,0.7924807667732239,17.76123046875,-14.190673828125,-5.5389404296875
7.029999900000001,-9.828198432922363,-0.26815059781074524,1.1252747774124146,12.20703125,-9.1552734375,-1.251220703125
7.0499999,-9.77791976928711,-0.4620809257030487,1.45806884765625,8.453369140625,-3.3416748046875,0.9002685546875
7.069999900000001,-9.737217903137207,-0.629675030708313,1.6735470294952393,2.44140625,3.1585693359375,3.9825439453125
7.0899999000000005,-9.720458984375,-0.8259995579719543,1.7693150043487549,-3.662109375,8.3465576171875,10.223388671875
7.109999900000001,-9.730035781860352,-1.0438719987869263,1.7190368175506592,-9.21630859375,11.4288330078125,20.0958251953125
7.1299999000000005,-9.734824180603027,-1.2234370708465576,1.5634137392044067,-15.2740478515625,13.946533203125,30.3192138671875
7.149999900000001,-9.75397777557373,-1.1803414821624756,1.3503297567367554,-19.22607421875,16.6473388671875,36.5447998046875
7.1699999000000005,-9.770736694335938,-0.993593692779541,1.0845733880996704,-17.578125,18.6920166015625,36.56005859375
7.1899999,-9.804255485534668,-0.6751648783683777,0.7972691655158997,-12.1612548828125,17.7764892578125,36.956787109375
7.209999900000001,-9.847352027893066,-0.31842881441116333,0.4596867263317108,-6.1798095703125,15.3656005859375,40.283203125
7.2299999,-9.909601211547852,0.031124621629714966,0.12210428714752197,2.25830078125,12.2528076171875,41.3360595703125
7.249999900000001,-9.947908401489258,0.3663128614425659,-0.15322890877723694,13.1683349609375,7.9345703125,37.9791259765625
7.2699999,-9.974244117736816,0.7158663272857666,-0.33997663855552673,20.843505859375,4.1046142578125,34.3780517578125
7.289999900000001,-9.974244117736816,1.113303780555725,-0.40462008118629456,23.7274169921875,1.8310546875,31.7230224609375
7.3099999,-9.964667320251465,1.5155296325683594,-0.3495534360408783,23.651123046875,0.2593994140625,26.9927978515625
7.329999900000001,-9.952696800231934,1.9321208000183105,-0.2106897532939911,19.561767578125,-1.068115234375,19.2108154296875
7.3499999,-9.943120002746582,2.3056161403656006,-0.002394201699644327,10.7574462890625,-1.220703125,12.908935546875
7.369999900000001,-9.923966407775879,2.5905263423919678,0.1843535304069519,-1.068115234375,0.0457763671875,8.3465576171875
7.3899999,-9.911994934082031,2.717418909072876,0.3232172429561615,-10.3759765625,0.6866455078125,2.3956298828125
7.409999900000001,-9.904812812805176,2.693476915359497,0.3687070608139038,-15.1519775390625,-0.152587890625,-4.0283203125
7.4299999,-9.911994934082031,2.516305923461914,0.30885201692581177,-18.280029296875,-1.708984375,-7.6751708984375
7.449999900000001,-9.93593692779541,2.2218191623687744,0.17717093229293823,-17.6544189453125,-4.0435791015625,-9.5367431640625
7.4699999,-9.959878921508789,1.8171991109848022,0.026336219161748886,-11.71875,-7.232666015625,-11.5966796875
7.489999900000001,-9.983820915222168,1.381454348564148,-0.09816227108240128,-4.9285888671875,-10.5133056640625,-12.054443359375
7.5099999,-9.986215591430664,0.9744400978088379,-0.1604115068912506,1.3275146484375,-13.1683349609375,-9.2620849609375
7.529999900000001,-9.976638793945312,0.6224924325942993,-0.11971008777618408,9.124755859375,-15.13671875,-6.378173828125
7.5499999,-9.952696800231934,0.37828385829925537,-0.011971008032560349,16.5863037109375,-16.3726806640625,-4.1351318359375
7.569999900000001,-9.914389610290527,0.2801215946674347,0.14604631066322327,21.8963623046875,-17.1661376953125,-1.3427734375
7.5899999000000005,-9.876082420349121,0.33279404044151306,0.35434186458587646,26.2603759765625,-17.1661376953125,0.8087158203125
7.609999900000001,-9.840168952941895,0.5171475410461426,0.6033388376235962,29.205322265625,-15.3656005859375,0.9765625
7.6299999000000005,-9.799467086791992,0.790086567401886,0.8667010068893433,28.6102294921875,-12.237548828125,0.06103515625
7.649999900000001,-9.768342971801758,1.1180921792984009,1.1228805780410767,23.5748291015625,-8.7127685546875,-1.0223388671875
7.6699999000000005,-9.749189376831055,1.4437036514282227,1.3120225667953491,16.8914794921875,-4.8828125,-2.9296875
7.6899999,-9.746794700622559,1.723825216293335,1.460463047027588,8.9569091796875,-1.8310546875,-6.34765625
7.709999900000001,-9.75637149810791,1.9081788063049316,1.4915876388549805,-3.7841796875,2.0904541015625,-8.8958740234375
7.7299999,-9.775525093078613,1.9632453918457031,1.436521053314209,-14.1754150390625,5.4779052734375,-10.5743408203125
7.749999900000001,-9.797073364257812,1.8626888990402222,1.278503656387329,-16.7999267578125,5.645751953125,-12.3138427734375
7.7699999,-9.830592155456543,1.5921441316604614,1.0797849893569946,-16.3726806640625,5.55419921875,-13.2598876953125
7.789999900000001,-9.873687744140625,1.1827356815338135,0.7350199222564697,-12.939453125,4.33349609375,-11.5966796875
7.8099999,-9.945513725280762,0.7134721279144287,0.40222588181495667,0.457763671875,-0.5950927734375,-9.185791015625
7.829999900000001,-9.986215591430664,0.31124621629714966,0.1149216815829277,16.815185546875,-6.3323974609375,-6.4849853515625
7.8499999,-10.02452278137207,0.0694318488240242,-0.026336219161748886,22.613525390625,-8.5906982421875,-2.593994140625
7.869999900000001,-9.998186111450195,0.028730420395731926,-0.031124621629714966,17.913818359375,-8.7432861328125,0.9002685546875
7.8899999,-9.99100399017334,0.16759411990642548,0.15562310814857483,15.1214599609375,-12.3748779296875,3.265380859375
7.909999900000001,-9.938331604003906,0.47165772318840027,0.38067805767059326,16.6015625,-13.5040283203125,2.166748046875
7.9299999,-9.93354320526123,0.7948749661445618,0.6248866319656372,14.251708984375,-13.5650634765625,-1.251220703125
7.949999900000001,-9.871294021606445,1.1659762859344482,0.9313444495201111,5.523681640625,-10.1470947265625,-4.241943359375
7.9699999,-9.84256362915039,1.482010841369629,1.2042834758758545,-3.2501220703125,-5.6304931640625,-6.6680908203125
7.989999900000001,-9.691728591918945,1.7477672100067139,1.5538369417190552,-11.016845703125,-1.007080078125,-9.918212890625
8.0099999,-9.737217903137207,1.824381709098816,1.678335428237915,-18.585205078125,4.791259765625,-9.9945068359375
8.0299999,-9.710882186889648,1.7717092037200928,1.7405846118927002,-15.9149169921875,3.7841796875,-11.1541748046875
8.049999900000001,-9.746794700622559,1.558625340461731,1.6160861253738403,-9.613037109375,5.584716796875,-17.7459716796875
8.069999900000001,-9.816226959228516,1.2473790645599365,1.5394717454910278,-7.293701171875,8.0413818359375,-22.3236083984375
8.0899999,-9.78989028930664,0.9074024558067322,1.381454348564148,-11.0931396484375,12.3291015625,-19.9432373046875
8.1099999,-9.768342971801758,0.646434485912323,1.4844050407409668,-13.48876953125,15.869140625,-18.2647705078125
8.129999900000001,-9.78989028930664,0.5051765441894531,1.436521053314209,-19.866943359375,18.2647705078125,-15.9149169921875
8.149999900000001,-9.780313491821289,0.4405331015586853,1.50355863571167,-29.1595458984375,23.284912109375,-15.655517578125
8.1699999,-9.730035781860352,0.5099649429321289,1.45806884765625,-41.1529541015625,29.815673828125,-20.0042724609375
8.1899999,-9.794678688049316,0.45010992884635925,1.1635819673538208,-45.71533203125,35.308837890625,-20.599365234375
8.2099999,-9.792284965515137,0.2944868206977844,0.7709329724311829,-33.7371826171875,28.411865234375,-19.195556640625
8.229999900000001,-9.95748519897461,-0.12928688526153564,0.05746084079146385,-11.322021484375,20.751953125,-17.242431640625
8.2499999,-10.122684478759766,-0.5339069962501526,-0.569819986820221,12.75634765625,8.270263671875,-12.6495361328125
8.2699999,-10.211270332336426,-0.9026140570640564,-0.9983820915222168,22.5067138671875,1.1444091796875,-6.561279296875
8.2899999,-10.213664054870605,-1.0031704902648926,-0.993593692779541,13.5498046875,1.40380859375,-2.777099609375
8.309999900000001,-10.170568466186523,-0.9074024558067322,-0.7852981686592102,2.7313232421875,2.4261474609375,-0.457763671875
8.3299999,-10.08198356628418,-0.6607996821403503,-0.45250412821769714,2.3956298828125,-0.9613037109375,-0.0762939453125
8.3499999,-10.122684478759766,-0.4836287498474121,-0.304063618183136,7.171630859375,-8.6822509765625,0.640869140625
8.3699999,-10.110713958740234,-0.17956513166427612,-0.24420857429504395,16.998291015625,-15.411376953125,2.410888671875
8.389999900000001,-10.141838073730469,-0.019153613597154617,-0.1867477297782898,18.310546875,-16.5557861328125,0.518798828125
8.4099999,-10.046070098876953,0.19153612852096558,-0.10534487664699554,9.4146728515625,-14.739990234375,-1.3427734375
8.4299999,-10.010157585144043,0.2753331959247589,0.05027823522686958,7.415771484375,-15.9912109375,-1.7852783203125
8.4499999,-9.971850395202637,0.23702596127986908,0.1628057211637497,16.8609619140625,-20.111083984375,-3.35693359375
8.469999900000001,-9.938331604003906,0.21547815203666687,0.3447650372982025,22.5677490234375,-22.5830078125,-5.3253173828125
8.4899999,-9.93593692779541,0.1604115068912506,0.7374141216278076,16.021728515625,-19.53125,-1.8157958984375
8.5099999,-9.84256362915039,0.2585737705230713,1.3431471586227417,-6.04248046875,-8.60595703125,2.716064453125
8.5299999,-9.734824180603027,0.3734954595565796,1.8842366933822632,-29.083251953125,3.84521484375,1.1138916015625
8.549999900000001,-9.737217903137207,0.3663128614425659,2.073378562927246,-35.3546142578125,12.1307373046875,-1.6937255859375
8.569999900000001,-9.751583099365234,0.272938996553421,1.8195933103561401,-20.172119140625,8.8348388671875,-2.9754638671875
8.5899999,-9.847352027893066,0.031124621629714966,1.2114660739898682,1.617431640625,-2.6397705078125,-5.1422119140625
8.6099999,-10.010157585144043,-0.17477671802043915,0.6512228846549988,17.242431640625,-7.232666015625,-6.3018798828125
8.629999900000001,-10.022128105163574,-0.31364041566848755,0.22266076505184174,20.5841064453125,-7.4615478515625,-3.6163330078125
8.649999900000001,-10.108319282531738,-0.3878606855869293,0.05506663769483566,22.369384765625,-8.8348388671875,-3.72314453125
8.6699999,-10.103530883789062,-0.3902548849582672,0.014365210197865963,27.03857421875,-13.4429931640625,-3.0517578125
8.6899999,-10.04846477508545,-0.29209262132644653,0.22266076505184174,23.9410400390625,-11.871337890625,-1.89208984375
8.709999900000001,-9.967061996459961,-0.18914192914962769,0.5770025849342346,10.2691650390625,-9.94873046875,-1.495361328125
8.729999900000001,-9.885659217834473,0,1.1420341730117798,-8.36181640625,-3.60107421875,1.708984375
8.7499999,-9.775525093078613,0.22505496442317963,1.5753847360610962,-22.7508544921875,4.0435791015625,3.4942626953125
8.7699999,-9.758766174316406,0.2944868206977844,1.8171991109848022,-27.3284912109375,10.6658935546875,-0.5035400390625
8.7899999,-9.86650562286377,0.2777273952960968,1.623268723487854,-15.838623046875,9.82666015625,-3.3416748046875
8.809999900000001,-9.861717224121094,0.14844051003456116,1.280897855758667,0.3814697265625,1.678466796875,-3.4027099609375
8.8299999,-10.031704902648926,-0.11013327538967133,0.6727706789970398,10.4827880859375,-5.18798828125,-4.5928955078125
8.8499999,-10.046070098876953,-0.35434186458587646,0.24420857429504395,24.8870849609375,-10.955810546875,-1.2054443359375
8.8699999,-10.077195167541504,-0.5746083855628967,-0.002394201699644327,34.8968505859375,-14.46533203125,0.152587890625
8.889999900000001,-9.998186111450195,-0.608127236366272,0.002394201699644327,34.393310546875,-17.8985595703125,1.1749267578125
8.9099999,-9.945513725280762,-0.45010992884635925,0.45250412821769714,23.681640625,-13.5040283203125,5.5999755859375
8.9299999,-9.835380554199219,-0.15801730751991272,0.9097966551780701,0.518798828125,-7.6446533203125,2.74658203125
8.9499999,-9.86889934539795,0.22744916379451752,1.6160861253738403,-15.19775390625,-5.0048828125,0.091552734375
8.969999900000001,-9.799467086791992,0.5578489899635315,2.094926595687866,-29.8614501953125,2.38037109375,3.1280517578125
8.9899999,-9.763554573059082,0.706289529800415,2.454056739807129,-41.748046875,11.77978515625,0.4730224609375
9.0099999,-9.737217903137207,0.6416460275650024,2.4468741416931152,-40.7562255859375,17.3187255859375,-3.2806396484375
9.0299999,-9.720458984375,0.42616790533065796,2.22660756111145,-31.2347412109375,16.937255859375,0.3814697265625
9.049999900000001,-9.658209800720215,0.19153612852096558,2.0039467811584473,-33.8592529296875,16.357421875,1.2054443359375
9.069999900000001,-9.806650161743164,-0.10534487664699554,1.5298948287963867,-46.417236328125,23.7274169921875,-0.8087158203125
9.0899999,-9.758766174316406,-0.2537853717803955,1.2042834758758545,-44.342041015625,24.505615234375,2.960205078125
9.1099999,-9.926360130310059,-0.49799394607543945,0.5937620401382446,-25.634765625,16.937255859375,3.753662109375
9.129999900000001,-10.091560363769531,-0.6009446382522583,-0.06703764945268631,4.8675537109375,6.28662109375,2.6702880859375
9.149999900000001,-10.192116737365723,-0.6871358752250671,-0.6153098344802856,28.961181640625,-4.5013427734375,5.1727294921875
9.1699999,-10.295066833496094,-0.5913678407669067,-0.8786720037460327,36.1785888671875,-9.1705322265625,-3.0364990234375
9.1899999,-10.261548042297363,-0.4213795065879822,-0.8930372595787048,37.04833984375,-15.625,-3.814697265625
9.209999900000001,-10.165780067443848,-0.2106897532939911,-0.5339069962501526,35.3546142578125,-17.913818359375,0.1068115234375
9.229999900000001,-10.065223693847656,0.028730420395731926,-0.10534487664699554,30.7769775390625,-21.2554931640625,-1.6937255859375
9.2499999,-9.928754806518555,0.20350714027881622,0.45250412821769714,25.054931640625,-17.059326171875,-0.396728515625
9.2699999,-9.823410034179688,0.4118026793003082,1.1180921792984009,12.3291015625,-9.979248046875,-4.5013427734375
9.2899999,-9.742006301879883,0.4908113479614258,1.6089035272598267,-8.087158203125,-1.8768310546875,-4.1961669921875
9.309999900000001,-9.703699111938477,0.49320554733276367,2.0254945755004883,-16.3421630859375,4.547119140625,-2.01416015625
9.3299999,-9.648633003234863,0.4429273009300232,2.293645143508911,-14.8468017578125,5.859375,-1.1138916015625
9.3499999,-9.682151794433594,0.33039984107017517,2.2409727573394775,-23.6663818359375,11.77978515625,1.739501953125
9.3699999,-9.682151794433594,0.2537853717803955,2.1045033931732178,-34.8052978515625,20.2178955078125,-1.7242431640625
9.389999900000001,-9.761159896850586,0.07422025501728058,1.6687586307525635,-34.7137451171875,23.1170654296875,-0.4119873046875
9.4099999,-9.885659217834473,-0.14365209639072418,1.1468225717544556,-24.1851806640625,18.5546875,0.732421875
9.4299999,-9.938331604003906,-0.3878606855869293,0.4812345504760742,-15.777587890625,11.1083984375,0.91552734375
9.4499999,-10.11550235748291,-0.5937620401382446,-0.08379705995321274,-1.8310546875,9.4451904296875,5.9661865234375
9.469999900000001,-10.165780067443848,-0.5913678407669067,-0.5339069962501526,9.94873046875,3.72314453125,2.2125244140625
9.4899999,-10.249577522277832,-0.5434837937355042,-0.8403648138046265,18.61572265625,-4.4097900390625,-1.708984375
9.5099999,-10.295066833496094,-0.40701428055763245,-0.7948749661445618,32.1502685546875,-13.5040283203125,-0.9613037109375
9.5299999,-10.168174743652344,-0.12689268589019775,-0.4572925269603729,32.6080322265625,-19.561767578125,-0.274658203125
9.549999900000001,-10.096348762512207,0.11252748221158981,0.19153612852096558,10.3607177734375,-11.444091796875,0.54931640625
9.569999900000001,-9.916783332824707,0.36152446269989014,0.9624691009521484,-16.815185546875,0.1678466796875,-1.0223388671875
9.5899999,-9.861717224121094,0.47165772318840027,1.5849615335464478,-23.1781005859375,5.3253173828125,-1.9378662109375
9.6099999,-9.749189376831055,0.31364041566848755,1.98958158493042,-14.0380859375,-0.5035400390625,-3.4942626953125
9.629999900000001,-9.813833236694336,-0.24420857429504395,1.5610195398330688,5.37109375,0.4119873046875,1.9378662109375
9.649999900000001,-9.849745750427246,-0.47884035110473633,1.0534487962722778,14.3280029296875,-3.35693359375,1.434326171875
9.6699999,-9.955090522766113,-0.5123591423034668,0.7589619159698486,20.5841064453125,-5.0201416015625,-0.1068115234375
9.6899999,-9.916783332824707,-0.3663128614425659,0.7015010714530945,17.88330078125,-6.988525390625,0.701904296875
9.709999900000001,-9.95748519897461,-0.0933738648891449,0.8475474119186401,0.9765625,0.91552734375,-1.495361328125
9.729999900000001,-9.909601211547852,0.2346317619085312,1.158793568611145,-16.3116455078125,6.9732666015625,-0.213623046875
9.7499999,-9.86889934539795,0.4118026793003082,1.2521674633026123,-30.94482421875,13.5345458984375,-0.0152587890625
9.7699999,-9.9000244140625,0.3519476354122162,1.237802267074585,-23.895263671875,11.8865966796875,-2.2735595703125
9.7899999,-9.895236015319824,0.038307227194309235,0.9481038451194763,-6.7901611328125,1.0528564453125,-3.3111572265625
9.809999900000001,-10.022128105163574,-0.31842881441116333,0.5123591423034668,5.7220458984375,-2.3956298828125,-0.9002685546875
9.8299999,-10.038887977600098,-0.5913678407669067,0.17956513166427612,20.9808349609375,-8.1329345703125,3.143310546875
9.8499999,-10.06043529510498,-0.7230489253997803,-0.038307227194309235,29.1900634765625,-14.5416259765625,1.5106201171875
9.8699999,-10.062829971313477,-0.5602431893348694,0.1604115068912506,29.7393798828125,-14.09912109375,0.9918212890625
9.889999900000001,-9.926360130310059,-0.304063618183136,0.5650315880775452,15.869140625,-12.02392578125,1.220703125
9.9099999,-9.916783332824707,0.031124621629714966,1.1492167711257935,-1.220703125,-2.960205078125,0.3509521484375
9.9299999,-9.825803756713867,0.3423708379268646,1.6376339197158813,-13.24462890625,2.716064453125,1.0223388671875
9.9499999,-9.792284965515137,0.4620809257030487,1.886630892753601,-21.05712890625,4.8980712890625,-0.7781982421875
9.969999900000001,-9.770736694335938,0.42856210470199585,1.8579005002975464,-20.0958251953125,4.4097900390625,-1.495361328125
9.9899999,-9.804255485534668,0.19632454216480255,1.577778935432434,-20.3857421875,4.2877197265625,-1.007080078125
10.0099999,-9.861717224121094,-0.0933738648891449,1.170764684677124,-14.739990234375,7.6446533203125,-1.3427734375
10.0299999,-9.931148529052734,-0.363918662071228,0.7469909191131592,-0.6561279296875,2.410888671875,1.77001953125
10.049999900000001,-10.012551307678223,-0.45250412821769714,0.5051765441894531,9.429931640625,-1.8463134765625,0.3509521484375
10.069999900000001,-10.007762908935547,-0.42856210470199585,0.5195417404174805,6.9580078125,-2.3040771484375,0.42724609375
10.0899999,-9.974244117736816,-0.23942017555236816,0.6392518281936646,-4.547119140625,1.4495849609375,-1.220703125
10.1099999,-9.921571731567383,-0.09576806426048279,0.9193734526634216,-6.5155029296875,3.0364990234375,0.6256103515625
10.129999900000001,-9.888052940368652,0.031124621629714966,0.8906430602073669,-3.4942626953125,1.495361328125,0.9002685546875
10.149999900000001,-9.914389610290527,0.009576806798577309,0.828393816947937,5.3253173828125,-2.349853515625,-0.9765625
10.1699999,-9.962273597717285,-0.047884032130241394,0.7374141216278076,9.979248046875,-8.148193359375,1.1444091796875
10.1899999,-10.007762908935547,-0.1412578970193863,0.6440402865409851,1.8157958984375,-6.6680908203125,-0.274658203125
10.209999900000001,-10.029311180114746,-0.19632454216480255,0.6320692300796509,-2.9296875,-4.08935546875,1.068115234375
10.229999900000001,-9.998186111450195,-0.2082955539226532,0.6488286852836609,4.638671875,-7.4920654296875,1.3427734375
10.2499999,-9.950302124023438,-0.1604115068912506,0.7182605266571045,11.8865966796875,-7.9193115234375,0.457763671875
10.2699999,-9.938331604003906,-0.13407529890537262,0.7661445140838623,10.162353515625,-8.8043212890625,3.4637451171875
10.2899999,-9.892841339111328,-0.09576806426048279,1.0103530883789062,7.5836181640625,-10.0250244140625,2.0904541015625
10.309999900000001,-9.873687744140625,-0.043095629662275314,1.194706678390503,3.2806396484375,-5.0201416015625,2.5482177734375
10.3299999,-9.828198432922363,-0.023942016065120697,1.3192051649093628,2.7923583984375,-4.8065185546875,2.349853515625
10.3499999,-9.78989028930664,0.10295066982507706,1.599326729774475,0.8544921875,-2.166748046875,2.6702880859375
10.3699999,-9.749189376831055,0.23942017555236816,1.8148049116134644,-16.6168212890625,1.5869140625,3.631591796875
10.389999900000001,-9.730035781860352,0.4644751250743866,2.1811177730560303,-38.87939453125,11.3677978515625,1.5869140625
10.4099999,-9.737217903137207,0.6272808313369751,2.360682964324951,-60.0128173828125,22.1710205078125,1.52587890625
10.4299999,-9.744400978088379,0.7086837291717529,2.2242133617401123,-63.0035400390625,23.3306884765625,-0.1220703125
10.4499999,-9.720458984375,0.6344634294509888,1.9776105880737305,-40.9088134765625,21.9879150390625,-5.4168701171875
10.469999900000001,-9.780313491821289,0.3208230137825012,1.6136919260025024,-31.7535400390625,24.9481201171875,-5.4473876953125
10.4899999,-9.739612579345703,0.08619125932455063,1.4269442558288574,-33.5693359375,29.388427734375,-3.173828125
10.5099999,-9.782708168029785,-0.16519992053508759,1.3192051649093628,-43.45703125,37.2314453125,2.3651123046875
10.5299999,-9.849745750427246,-0.3974374830722809,0.8978256583213806,-42.724609375,38.4674072265625,0.4730224609375
10.549999900000001,-10.074800491333008,-0.49799394607543945,0.12449848651885986,-11.8865966796875,23.5137939453125,-3.326416015625
10.569999900000001,-10.139444351196289,-0.5889736413955688,-0.667982280254364,23.6053466796875,1.5869140625,-5.5084228515625
10.5899999,-10.333374977111816,-0.5746083855628967,-1.3718775510787964,34.149169921875,-6.8511962890625,-6.561279296875
10.6099999,-10.299856185913086,-0.4165911078453064,-1.4389152526855469,23.681640625,-8.6669921875,-4.1351318359375
10.629999900000001,-10.24000072479248,-0.2801215946674347,-1.1540051698684692,12.725830078125,-11.3372802734375,-5.43212890625
10.649999900000001,-10.158597946166992,-0.21787235140800476,-0.6512228846549988,17.852783203125,-15.4266357421875,-8.1787109375
10.6699999,-10.04846477508545,-0.19153612852096558,-0.019153613597154617,26.1383056640625,-18.73779296875,-4.8675537109375
10.6899999,-9.967061996459961,-0.31364041566848755,0.5793967843055725,14.8468017578125,-10.7574462890625,0.4425048828125
10.709999900000001,-9.856928825378418,-0.363918662071228,1.1779472827911377,-0.8392333984375,-3.2806396484375,3.3416748046875
10.729999900000001,-9.782708168029785,-0.4572925269603729,1.5394717454910278,-8.9111328125,1.678466796875,7.0037841796875
10.7499999,-9.794678688049316,-0.4644751250743866,1.623268723487854,-3.2806396484375,1.5869140625,5.9356689453125
10.7699999,-9.818621635437012,-0.40940847992897034,1.3551181554794312,3.204345703125,-2.3193359375,4.8675537109375
10.7899999,-9.99339771270752,-0.26336219906806946,0.8786720037460327,5.615234375,-2.9449462890625,4.5928955078125
10.809999900000001,-10.034099578857422,-0.035913024097681046,0.4213795065879822,11.1236572265625,-12.237548828125,0.457763671875
10.8299999,-10.120290756225586,0.038307227194309235,0.011971008032560349,14.8773193359375,-14.739990234375,-4.33349609375
10.8499999,-10.096348762512207,0.05506663769483566,-0.0694318488240242,20.294189453125,-16.3421630859375,-2.44140625
10.8699999,-10.012551307678223,-0.014365210197865963,0.17956513166427612,13.0157470703125,-15.9454345703125,4.2724609375
10.889999900000001,-9.945513725280762,-0.11013327538967133,0.7158663272857666,-0.30517578125,-10.68115234375,4.0435791015625
10.9099999,-9.86650562286377,-0.12689268589019775,1.290474772453308,-11.23046875,-1.678466796875,4.5928955078125
10.9299999,-9.775525093078613,-0.12210428714752197,1.656787633895874,-11.2152099609375,3.5552978515625,3.9825439453125
10.9499999,-9.804255485534668,-0.05027823522686958,1.8052281141281128,0.67138671875,-0.244140625,3.2501220703125
10.969999900000001,-9.797073364257812,0.035913024097681046,1.647210717201233,-0.274658203125,1.2054443359375,0.48828125
10.9899999,-9.859322547912598,0.22026655077934265,1.4915876388549805,-3.96728515625,6.0272216796875,-3.84521484375
11.0099999,-9.909601211547852,0.3208230137825012,1.2521674633026123,-7.1258544921875,6.561279296875,-5.035400390625
11.0299999,-9.945513725280762,0.3902548849582672,1.0223240852355957,-5.37109375,5.43212890625,-5.3863525390625
11.049999900000001,-9.955090522766113,0.3256114423274994,0.9409212470054626,2.3956298828125,0.732421875,-8.2855224609375
11.069999900000001,-9.974244117736816,0.16519992053508759,0.8619126081466675,0.3509521484375,1.6632080078125,-8.087158203125
11.0899999,-9.871294021606445,0.004788403399288654,1.0534487962722778,-11.0626220703125,8.453369140625,-3.662109375
11.1099999,-9.854534149169922,-0.24420857429504395,1.0965443849563599,-24.2462158203125,14.8162841796875,-1.068115234375
11.129999900000001,-9.907206535339355,-0.5339069962501526,0.9289502501487732,-17.1356201171875,14.8773193359375,1.190185546875
11.149999900000001,-9.981427192687988,-0.7709329724311829,0.569819986820221,8.453369140625,-2.38037109375,0.42724609375
11.1699999,-10.146626472473145,-0.9217676520347595,0.023942016065120697,27.984619140625,-10.101318359375,0
11.1899999,-10.199298858642578,-0.8379706144332886,-0.27054479718208313,36.407470703125,-17.425537109375,1.3275146484375
11.209999900000001,-10.189722061157227,-0.6057330369949341,-0.30885201692581177,29.84619140625,-20.99609375,-0.244140625
11.229999900000001,-10.110713958740234,-0.26815059781074524,0.07900865375995636,22.2930908203125,-17.9595947265625,-2.960205078125
11.2499999,-9.923966407775879,0.12210428714752197,0.9911994934082031,10.9100341796875,-18.1121826171875,-0.42724609375
11.2699999,-9.739612579345703,0.4381389021873474,2.032677173614502,-24.2767333984375,-0.6256103515625,-0.30517578125
11.2899999,-9.47146224975586,0.7015010714530945,3.028665065765381,-61.1724853515625,22.8424072265625,-1.739501953125
11.309999900000001,-9.44752025604248,0.6033388376235962,3.265691041946411,-75.4241943359375,37.261962890625,0.5950927734375
11.3299999,-9.47146224975586,0.28969839215278625,2.655169725418091,-45.2880859375,26.9775390625,3.96728515625
11.3499999,-9.792284965515137,-0.2513911724090576,1.259350061416626,4.2877197265625,3.60107421875,0.335693359375
11.3699999,-10.105925559997559,-0.7589619159698486,-0.23942017555236816,38.7420654296875,-9.8114013671875,-2.716064453125
11.389999900000001,-10.347740173339844,-0.9361328482627869,-1.2449848651885986,54.3975830078125,-21.820068359375,-2.716064453125
11.4099999,-10.398017883300781,-0.8571242094039917,-1.5729905366897583,56.4727783203125,-27.8167724609375,-4.974365234375
11.4299999,-10.292673110961914,-0.48602294921875,-1.0223240852355957,51.6204833984375,-28.106689453125,-6.4849853515625
11.4499999,-10.014945983886719,0.019153613597154617,0.2537853717803955,30.2886962890625,-22.15576171875,-5.1727294921875
11.469999900000001,-9.63187313079834,0.5099649429321289,1.9297266006469727,-17.730712890625,1.2969970703125,-3.5247802734375
11.4899999,-9.437943458557129,0.7661445140838623,3.313575267791748,-71.8994140625,33.9508056640625,-1.9683837890625
11.5099999,-9.354146003723145,0.7015010714530945,3.643975019454956,-82.550048828125,46.0662841796875,1.7852783203125
11.5299999,-9.533711433410645,0.21787235140800476,2.806004285812378,-38.970947265625,25.1617431640625,2.197265625
11.549999900000001,-9.911994934082031,-0.3926490843296051,1.0031704902648926,11.993408203125,0.457763671875,-0.732421875
11.569999900000001,-10.199298858642578,-0.871489405632019,-0.7469909191131592,47.1649169921875,-15.6402587890625,-1.5716552734375
11.5899999,-10.366893768310547,-1.072602391242981,-1.7286136150360107,61.5386962890625,-27.2979736328125,-2.01416015625
11.6099999,-10.319009780883789,-0.8762778043746948,-1.5658079385757446,55.4046630859375,-28.8543701171875,-4.547119140625
11.629999900000001,-10.098742485046387,-0.4884171485900879,-0.42856210470199585,30.9600830078125,-19.4549560546875,-1.068115234375
11.649999900000001,-9.799467086791992,0.047884032130241394,1.2713210582733154,-6.7901611328125,-2.471923828125,-0.1068115234375
11.6699999,-9.543288230895996,0.4836287498474121,2.7700912952423096,-48.2330322265625,24.200439453125,-0.9765625
11.6899999,-9.457097053527832,0.6272808313369751,3.4332852363586426,-63.1256103515625,35.1409912109375,-0.7171630859375
11.709999900000001,-9.548076629638672,0.42856210470199585,2.9879636764526367,-44.952392578125,27.2064208984375,0.42724609375
11.729999900000001,-9.825803756713867,-0.05267243832349777,1.6855180263519287,-9.94873046875,9.46044921875,1.2054443359375
11.7499999,-10.11789608001709,-0.5722141861915588,0.026336219161748886,25.909423828125,-6.4849853515625,-1.861572265625
11.7699999,-10.290278434753418,-0.8738836050033569,-1.1109095811843872,54.5196533203125,-25.0396728515625,-3.1890869140625
11.7899999,-10.249577522277832,-0.8858546018600464,-1.3192051649093628,58.10546875,-31.9671630859375,-4.7607421875
11.809999900000001,-10.110713958740234,-0.6560112833976746,-0.6440402865409851,31.6619873046875,-18.7835693359375,-0.701904296875
11.8299999,-9.888052940368652,-0.31124621629714966,0.6823474764823914,-1.4190673828125,-2.899169921875,1.861572265625
11.8499999,-9.6989107131958,0.014365210197865963,2.0374655723571777,-24.0478515625,8.6517333984375,2.1820068359375
11.8699999,-9.591172218322754,0.181959331035614,2.875436305999756,-40.771484375,20.5230712890625,3.5858154296875
11.889999900000001,-9.586383819580078,0.19153612852096558,2.999934673309326,-48.2330322265625,28.7017822265625,5.43212890625
11.9099999,-9.670180320739746,-0.043095629662275314,2.2625205516815186,-38.2080078125,21.97265625,7.7667236328125
11.9299999,-9.928754806518555,-0.2513911724090576,1.0031704902648926,-9.7503662109375,5.340576171875,7.9803466796875
11.9499999,-10.103530883789062,-0.4572925269603729,-0.23702596127986908,21.8353271484375,-17.4102783203125,4.0130615234375
11.969999900000001,-10.237606048583984,-0.5770025849342346,-0.9097966551780701,36.865234375,-27.374267578125,-2.838134765625
11.9899999,-10.199298858642578,-0.5195417404174805,-0.7015010714530945,28.656005859375,-20.050048828125,-0.213623046875
12.0099999,-10.02452278137207,-0.43335050344467163,0.22026655077934265,9.3841552734375,-10.0555419921875,6.805419921875
12.0299999,-9.832986831665039,-0.22505496442317963,1.3646949529647827,-10.9405517578125,2.5482177734375,7.4615478515625
12.049999900000001,-9.643844604492188,-0.06224924325942993,2.2649147510528564,-26.7486572265625,13.0157470703125,7.7362060546875
12.069999900000001,-9.57441234588623,0.11252748221158981,2.6623523235321045,-31.982421875,19.4854736328125,7.0953369140625
12.0899999,-9.552865028381348,0.14604631066322327,2.564189910888672,-26.824951171875,18.951416015625,8.026123046875
12.1099999,-9.658209800720215,0.15801730751991272,2.1475989818573,-25.5889892578125,18.8446044921875,8.3160400390625
12.129999900000001,-9.828198432922363,0.1867477297782898,1.50355863571167,-33.4625244140625,22.857666015625,8.11767578125
12.149999900000001,-9.914389610290527,0.3878606855869293,1.0965443849563599,-33.4625244140625,15.869140625,5.0506591796875
12.1699999,-10.055646896362305,0.5363011956214905,0.689530074596405,-32.2418212890625,17.27294921875,-1.7852783203125
12.1899999,-9.981427192687988,0.5530605912208557,0.6584054827690125,-27.191162109375,15.9912109375,-11.322021484375
12.209999900000001,-9.952696800231934,0.37828385829925537,0.6727706789970398,-26.3519287109375,21.5606689453125,-8.7738037109375
12.229999900000001,-9.926360130310059,-0.047884032130241394,0.42616790533065796,-32.0892333984375,29.96826171875,3.4027099609375
12.2499999,-10.086771965026855,-0.30885201692581177,-0.07182604819536209,-20.9197998046875,22.2015380859375,7.8887939453125
12.2699999,-10.168174743652344,-0.5099649429321289,-0.706289529800415,-2.6702880859375,-1.3427734375,5.157470703125
12.289999900000002,-10.304644584655762,-0.5339069962501526,-1.3623007535934448,10.5133056640625,-14.617919921875,-11.1541748046875
12.309999900000001,-10.374075889587402,-0.629675030708313,-1.5418659448623657,23.4222412109375,-12.20703125,-7.9193115234375
12.3299999,-10.247182846069336,-0.7134721279144287,-1.237802267074585,34.393310546875,-20.6298828125,4.6844482421875
12.3499999,-10.165780067443848,-0.6177040338516235,-0.33758243918418884,31.3720703125,-21.1639404296875,6.1187744140625
12.3699999,-9.909601211547852,-0.2825157940387726,0.8259995579719543,5.2642822265625,-4.241943359375,5.157470703125
12.389999900000001,-9.641449928283691,0.24899697303771973,2.0901381969451904,-34.1339111328125,20.7977294921875,-2.44140625
12.4099999,-9.485827445983887,0.6512228846549988,2.7078421115875244,-54.718017578125,35.0341796875,-4.852294921875
12.4299999,-9.57201862335205,0.7589619159698486,2.2146365642547607,-49.7894287109375,34.9273681640625,-0.274658203125
12.4499999,-9.785101890563965,0.646434485912323,1.0869675874710083,-20.355224609375,8.6822509765625,-1.434326171875
12.469999900000001,-9.998186111450195,0.36152446269989014,-0.24899697303771973,6.16455078125,-16.29638671875,-11.1541748046875
12.4899999,-10.153809547424316,-0.021547814831137657,-1.094150185585022,10.6964111328125,-15.8538818359375,-20.20263671875
12.5099999,-10.070012092590332,-0.3687070608139038,-1.0031704902648926,-1.373291015625,-5.2490234375,-5.523681640625
12.5299999,-9.569623947143555,-0.6871358752250671,-0.4692635238170624,-17.547607421875,-6.9732666015625,8.270263671875
12.549999900000001,-8.492233276367188,-0.9888052940368652,0.4884171485900879,-25.726318359375,-2.44140625,16.9830322265625
12.569999900000001,-7.817068576812744,-1.216254472732544,0.9600749015808105,-29.2816162109375,17.02880859375,17.913818359375
12.5899999,-7.46033239364624,-1.1324573755264282,1.0821791887283325,-8.6517333984375,15.411376953125,16.1285400390625
12.6099999,-8.322244644165039,-0.6129156351089478,0.9672574996948242,8.4991455078125,1.8157958984375,19.6533203125
12.629999900000001,-9.775525093078613,0.3758896589279175,1.0271124839782715,-6.6070556640625,-4.8065185546875,6.7138671875
12.649999900000001,-11.154585838317871,1.216254472732544,0.9959878921508789,-47.882080078125,23.5595703125,-16.6778564453125
12.6699999,-11.889605522155762,1.6112977266311646,0.7445967197418213,-55.1300048828125,38.5894775390625,-17.4407958984375
12.6899999,-11.959037780761719,1.1563993692398071,0.08140286058187485,-15.68603515625,5.7830810546875,0.6256103515625
12.709999900000001,-11.662156105041504,-0.12449848651885986,-1.0869675874710083,30.5938720703125,-29.5867919921875,-2.3956298828125
12.729999900000001,-10.876858711242676,-1.278503656387329,-1.6184803247451782,68.9697265625,-46.966552734375,-4.974365234375
12.7499999,-10.512939453125,-1.8387469053268433,-1.1994950771331787,73.089599609375,-30.120849609375,16.7388916015625
12.7699999,-9.931148529052734,-1.601720929145813,-0.0454898327589035,36.2091064453125,-3.143310546875,21.3775634765625
12.789999900000002,-9.66299819946289,-0.5554547905921936,1.1300631761550903,-4.058837890625,14.2974853515625,10.162353515625
12.809999900000001,-9.646238327026367,0.6224924325942993,1.7549498081207275,-16.4031982421875,15.533447265625,0.1983642578125
12.8299999,-9.619902610778809,1.434126853942871,1.644816517829895,-11.04736328125,8.392333984375,-13.2598876953125
12.8499999,-9.880870819091797,1.6927006244659424,1.1324573755264282,-7.1563720703125,7.659912109375,-16.41845703125
12.8699999,-9.943120002746582,1.158793568611145,0.5650315880775452,-9.246826171875,0.5340576171875,-13.61083984375
12.889999900000001,-10.077195167541504,0.22505496442317963,0.07182604819536209,-1.1138916015625,0.8544921875,-5.55419921875
12.9099999,-9.8784761428833,-0.8427590131759644,-0.3064578175544739,27.7557373046875,-4.2724609375,6.89697265625
12.9299999,-10.007762908935547,-1.5418659448623657,-0.4692635238170624,57.55615234375,-18.5394287109375,12.237548828125
12.9499999,-10.038887977600098,-1.4772224426269531,-0.20111294090747833,60.6536865234375,-24.017333984375,6.77490234375
12.969999900000001,-10.232817649841309,-0.6775590777397156,0.43095630407333374,32.77587890625,-1.5411376953125,3.173828125
12.9899999,-10.340557098388672,0.40701428055763245,1.1300631761550903,-1.3427734375,16.7388916015625,-4.8370361328125
13.0099999,-10.204087257385254,1.256955862045288,1.5729905366897583,-15.899658203125,18.4173583984375,-11.9476318359375
13.0299999,-10.041281700134277,1.6208745241165161,1.4987702369689941,-22.6898193359375,13.6260986328125,-16.4337158203125
13.049999900000001,-9.938331604003906,1.3910311460494995,1.094150185585022,-28.1829833984375,9.2926025390625,-16.815185546875
13.069999900000001,-9.931148529052734,0.6488286852836609,0.507570743560791,-25.2532958984375,6.4239501953125,-13.092041015625
13.0899999,-9.986215591430664,-0.2849099934101105,0.033518824726343155,-6.378173828125,-0.3662109375,-3.2196044921875
13.1099999,-10.055646896362305,-1.113303780555725,-0.304063618183136,17.0135498046875,-6.53076171875,7.62939453125
13.129999900000001,-10.072406768798828,-1.5634137392044067,-0.4213795065879822,29.47998046875,-8.9111328125,10.6201171875
13.149999900000001,-10.04846477508545,-1.4748282432556152,-0.2753331959247589,33.233642578125,-8.97216796875,8.5296630859375
13.1699999,-9.988609313964844,-0.9911994934082031,0.05985504388809204,31.92138671875,-7.14111328125,5.462646484375
13.1899999,-9.945513725280762,-0.3926490843296051,0.5506663918495178,25.726318359375,-1.9683837890625,1.7547607421875
13.209999900000001,-9.921571731567383,0.2968810200691223,0.8044517636299133,16.11328125,3.1280517578125,-1.2969970703125
13.229999900000001,-9.904812812805176,0.8092401623725891,1.0271124839782715,10.1165771484375,1.190185546875,-8.148193359375
13.2499999,-9.895236015319824,1.1540051698684692,0.9576807022094727,5.706787109375,2.86865234375,-18.9666748046875
13.2699999,-9.890447616577148,1.0869675874710083,0.7805097699165344,3.7994384765625,3.509521484375,-23.1170654296875
13.289999900000002,-9.945513725280762,0.6272808313369751,0.5219359993934631,7.843017578125,2.74658203125,-19.195556640625
13.309999900000001,-9.995792388916016,-0.1604115068912506,0.24420857429504395,18.524169921875,-3.7994384765625,-8.7432861328125
13.3299999,-10.08198356628418,-0.8690952062606812,0.031124621629714966,26.824951171875,-11.749267578125,1.495361328125
13.3499999,-10.089165687561035,-1.290474772453308,0.014365210197865963,24.7039794921875,-12.87841796875,6.9732666015625
13.3699999,-10.055646896362305,-1.2737152576446533,0.23942017555236816,11.3677978515625,-8.087158203125,8.880615234375
13.389999900000001,-10.074800491333008,-0.9241618514060974,0.5961562395095825,-4.4403076171875,-0.5340576171875,10.8642578125
13.4099999,-9.986215591430664,-0.6607996821403503,0.8068459630012512,-12.481689453125,1.9683837890625,14.617919921875
13.4299999,-9.907206535339355,-0.05027823522686958,0.7852981686592102,-8.7890625,-7.8582763671875,9.735107421875
13.4499999,-9.849745750427246,0.22505496442317963,0.7374141216278076,-11.4288330078125,-3.662109375,5.8746337890625
13.469999900000001,-9.792284965515137,0.4357447028160095,0.8355764150619507,-13.031005859375,2.8076171875,1.77001953125
13.4899999,-9.782708168029785,0.4812345504760742,0.9433154463768005,-8.97216796875,7.6141357421875,-2.1209716796875
13.5099999,-9.804255485534668,0.35673606395721436,0.9959878921508789,0.579833984375,7.843017578125,-2.1514892578125
13.5299999,-9.84495735168457,0.0933738648891449,0.9433154463768005,9.8724365234375,6.5460205078125,0.1068115234375
13.549999900000001,-9.914389610290527,-0.19153612852096558,0.828393816947937,15.0909423828125,6.500244140625,1.9073486328125
13.569999900000001,-9.983820915222168,-0.3734954595565796,0.7374141216278076,16.66259765625,7.781982421875,3.3416748046875
13.5899999,-10.08198356628418,-0.4141969084739685,0.6823474764823914,16.204833984375,9.7198486328125,4.058837890625
13.6099999,-10.194510459899902,-0.3447650372982025,0.6200982332229614,14.190673828125,10.345458984375,4.669189453125
13.629999900000001,-10.302249908447266,-0.2059013396501541,0.5315127968788147,11.383056640625,8.1634521484375,5.9814453125
13.649999900000001,-10.429142951965332,-0.028730420395731926,0.4141969084739685,8.97216796875,6.34765625,6.0577392578125
13.6699999,-10.54645824432373,0.13407529890537262,0.26336219906806946,7.720947265625,4.6844482421875,2.3956298828125
13.6899999,-10.438719749450684,0.272938996553421,0.12689268589019775,8.48388671875,1.4190673828125,-0.8697509765625
13.709999900000001,-10.17296314239502,0.3423708379268646,0.06224924325942993,8.4991455078125,-2.3193359375,2.01416015625
13.729999900000001,-9.75637149810791,0.33997663855552673,0.08379705995321274,6.072998046875,-3.753662109375,2.3040771484375
13.7499999,-9.397241592407227,0.2753331959247589,0.21787235140800476,3.021240234375,-0.48828125,-0.4119873046875
13.7699999,-9.287108421325684,0.18914192914962769,0.40462008118629456,0.6103515625,3.570556640625,0.823974609375
13.789999900000002,-9.404424667358398,0.12210428714752197,0.5793967843055725,-0.2593994140625,3.1890869140625,2.6092529296875
13.809999900000001,-9.624691009521484,0.08858546614646912,0.6344634294509888,-1.251220703125,3.387451171875,2.5177001953125
13.8299999,-9.835380554199219,0.10773907601833344,0.5722141861915588,0.5645751953125,4.5013427734375,1.007080078125
13.8499999,-9.988609313964844,0.1628057211637497,0.49559974670410156,5.4779052734375,1.28173828125,-0.701904296875
13.8699999,-10.06043529510498,0.20111294090747833,0.395043283700943,6.3934326171875,-0.732421875,-1.617431640625
13.889999900000001,-10.08198356628418,0.22744916379451752,0.363918662071228,3.9215087890625,1.5716552734375,-1.5869140625
13.9099999,-10.070012092590332,0.2346317619085312,0.36152446269989014,2.6702880859375,3.021240234375,-2.227783203125
13.9299999,-10.031704902648926,0.24420857429504395,0.3734954595565796,3.72314453125,1.9073486328125,-3.8604736328125
13.9499999,-9.986215591430664,0.27054479718208313,0.395043283700943,4.6539306640625,0.6256103515625,-5.0048828125
13.969999900000001,-9.96945571899414,0.2561795711517334,0.4118026793003082,2.1820068359375,2.105712890625,-5.5999755859375
13.9899999,-9.964667320251465,0.2059013396501541,0.43335050344467163,-2.227783203125,3.8909912109375,-4.150390625
14.0099999,-9.95748519897461,0.1149216815829277,0.4165911078453064,-4.39453125,2.716064453125,-1.739501953125
14.0299999,-9.976638793945312,0.0071826050989329815,0.40701428055763245,-4.0283203125,0.4119873046875,-1.64794921875
14.049999900000001,-9.979032516479492,-0.08619125932455063,0.38067805767059326,-4.0740966796875,2.2125244140625,-0.7781982421875
14.069999900000001,-9.986215591430664,-0.12928688526153564,0.3519476354122162,-3.387451171875,3.8604736328125,0.91552734375
14.0899999,-9.983820915222168,-0.11971008777618408,0.3280056416988373,-0.2899169921875,0.732421875,1.46484375
14.1099999,-9.976638793945312,-0.07900865375995636,0.304063618183136,1.4801025390625,-1.220703125,0.5035400390625
14.129999900000001,-9.99339771270752,-0.028730420395731926,0.2777273952960968,-0.244140625,0.9918212890625,-0.0152587890625
14.149999900000001,-10.007762908935547,0.011971008032560349,0.30885201692581177,-1.0528564453125,0.6866455078125,1.129150390625
14.1699999,-9.99100399017334,0.004788403399288654,0.3519476354122162,-1.373291015625,-0.4425048828125,2.777099609375
14.1899999,-9.986215591430664,0.004788403399288654,0.38307225704193115,-4.1046142578125,1.617431640625,3.9215087890625
14.209999900000001,-9.979032516479492,0.016759412363171577,0.3663128614425659,-5.67626953125,2.62451171875,4.2877197265625
14.229999900000001,-9.955090522766113,0.08858546614646912,0.3447650372982025,-2.7618408203125,-0.9002685546875,3.23486328125
14.2499999,-9.95748519897461,0.16998831927776337,0.2825157940387726,0.4119873046875,-2.3651123046875,0.2899169921875
14.2699999,-9.983820915222168,0.24660277366638184,0.26815059781074524,3.3416748046875,-1.2359619140625,-3.2196044921875
14.289999900000002,-9.99339771270752,0.26815059781074524,0.2992752194404602,6.622314453125,-1.251220703125,-4.0435791015625
14.309999900000001,-9.99339771270752,0.22505496442317963,0.33279404044151306,9.3994140625,-1.190185546875,-2.9754638671875
14.3299999,-9.988609313964844,0.1388636976480484,0.3711012601852417,11.7950439453125,-1.6937255859375,-2.2125244140625
14.3499999,-9.955090522766113,0.06224924325942993,0.33518823981285095,13.12255859375,-2.0751953125,-2.2430419921875
14.3699999,-9.971850395202637,0.047884032130241394,0.3447650372982025,13.36669921875,-5.096435546875,-4.7149658203125
14.389999900000001,-9.96945571899414,0.05027823522686958,0.31842881441116333,13.427734375,-5.4931640625,-5.8441162109375
14.4099999,-9.99100399017334,0.07661445438861847,0.3519476354122162,13.2598876953125,-4.2266845703125,-4.6844482421875
14.4299999,-9.983820915222168,0.08140286058187485,0.40701428055763245,12.5579833984375,-3.4027099609375,-3.84521484375
14.4499999,-9.964667320251465,0.05267243832349777,0.47165772318840027,10.345458984375,-2.6397705078125,-4.5013427734375
14.469999900000001,-9.940725326538086,0.05985504388809204,0.5386953949928284,6.04248046875,-1.007080078125,-5.767822265625
14.4899999,-9.943120002746582,0.06224924325942993,0.5937620401382446,1.7852783203125,0.3814697265625,-4.0283203125
14.5099999,-9.943120002746582,0.10055647045373917,0.6153098344802856,-0.6866455078125,0.6103515625,-3.1890869140625
14.5299999,-9.95748519897461,0.11013327538967133,0.6057330369949341,-1.0528564453125,0.274658203125,-3.9520263671875
14.549999900000001,-9.959878921508789,0.07422025501728058,0.5722141861915588,-1.251220703125,-0.457763671875,-3.5552978515625
14.569999900000001,-9.96945571899414,0,0.5339069962501526,-2.4261474609375,-0.2288818359375,-2.01416015625
14.5899999,-9.971850395202637,-0.1149216815829277,0.5147533416748047,-3.60107421875,0.48828125,-0.1220703125
14.6099999,-9.986215591430664,-0.22266076505184174,0.47644615173339844,-4.669189453125,0.48828125,1.9683837890625
14.629999900000001,-9.986215591430664,-0.2992752194404602,0.45250412821769714,-4.1351318359375,-0.7171630859375,4.0435791015625
14.649999900000001,-9.99339771270752,-0.2944868206977844,0.3974374830722809,-1.6937255859375,-1.40380859375,4.8980712890625
14.6699999,-9.995792388916016,-0.2106897532939911,0.35913026332855225,1.373291015625,-2.8076171875,3.6773681640625
14.6899999,-9.998186111450195,-0.07900865375995636,0.33518823981285095,2.899169921875,-4.5013427734375,1.6632080078125
14.709999900000001,-10.002974510192871,0.05506663769483566,0.33758243918418884,3.0059814453125,-5.5084228515625,-0.0152587890625
14.729999900000001,-9.983820915222168,0.16519992053508759,0.4165911078453064,1.678466796875,-5.79833984375,-0.8392333984375
14.7499999,-9.955090522766113,0.24899697303771973,0.5770025849342346,-0.6866455078125,-3.35693359375,-2.0751953125
14.7699999,-9.911994934082031,0.2801215946674347,0.768538773059845,-2.410888671875,1.4801025390625,-4.1656494140625
14.789999900000002,-9.892841339111328,0.24420857429504395,0.912190854549408,-1.678466796875,5.0811767578125,-5.1727294921875
14.809999900000001,-9.9000244140625,0.09576806426048279,0.9193734526634216,1.1444091796875,4.7760009765625,-3.6773681640625
14.8299999,-9.931148529052734,-0.10773907601833344,0.7996633648872375,2.1514892578125,2.197265625,0.3509521484375
14.8499999,-9.967061996459961,-0.28969839215278625,0.6057330369949341,0.6256103515625,0.1678466796875,4.39453125
14.8699999,-9.995792388916016,-0.35913026332855225,0.4429273009300232,-0.640869140625,-1.220703125,5.1727294921875
14.889999900000001,-10.007762908935547,-0.26575639843940735,0.3687070608139038,-1.861572265625,-2.410888671875,4.0740966796875
14.9099999,-10.002974510192871,-0.06224924325942993,0.3974374830722809,-4.7760009765625,-2.471923828125,2.105712890625
14.9299999,-9.981427192687988,0.1604115068912506,0.49559974670410156,-8.056640625,-0.518798828125,-0.18310546875
14.9499999,-9.976638793945312,0.31364041566848755,0.5722141861915588,-9.94873046875,1.800537109375,-2.5177001953125
14.969999900000001,-9.964667320251465,0.3280056416988373,0.5937620401382446,-8.8958740234375,-0.457763671875,-3.0975341796875
14.9899999,-9.955090522766113,0.24420857429504395,0.6105214357376099,-9.8876953125,-3.5858154296875,-1.068115234375
15.0099999,-9.940725326538086,0.11971008777618408,0.6727706789970398,-14.892578125,-1.0986328125,0.7171630859375
15.0299999,-9.904812812805176,-0.019153613597154617,0.8212111592292786,-19.6685791015625,5.5084228515625,1.068115234375
15.049999900000001,-9.919178009033203,-0.22505496442317963,0.8092401623725891,-17.1966552734375,12.3748779296875,1.953125
15.069999900000001,-9.974244117736816,-0.33518823981285095,0.7182605266571045,7.8277587890625,7.904052734375,4.852294921875
15.0899999,-10.055646896362305,-0.43335050344467163,0.5171475410461426,28.3966064453125,-0.4119873046875,3.173828125
15.1099999,-10.093954086303711,-0.395043283700943,0.3016694188117981,31.2347412109375,-2.3040771484375,-1.89208984375
15.129999900000001,-10.127472877502441,-0.3687070608139038,0.19153612852096558,30.5938720703125,-4.1656494140625,-2.777099609375
15.149999900000001,-10.072406768798828,-0.2322375625371933,0.15562310814857483,36.468505859375,-3.5858154296875,-2.655029296875
15.1699999,-10.007762908935547,-0.10295066982507706,0.3711012601852417,42.0684814453125,-9.33837890625,-3.41796875
15.1899999,-9.952696800231934,0.090979665517807,0.6057330369949341,22.369384765625,5.5389404296875,-3.3111572265625
15.209999900000001,-9.921571731567383,0.2585737705230713,0.8690952062606812,0.3662109375,14.4805908203125,-3.7384033203125
15.229999900000001,-9.847352027893066,0.33518823981285095,0.9313444495201111,-5.1727294921875,9.307861328125,-6.805419921875
15.2499999,-9.9000244140625,0.2322375625371933,0.7972691655158997,0.06103515625,2.471923828125,-2.288818359375
15.2699999,-9.947908401489258,0.1173158809542656,0.5099649429321289,-3.2806396484375,7.2174072265625,0.1983642578125
15.289999900000002,-10.036493301391602,-0.07422025501728058,0.2825157940387726,-3.5400390625,7.537841796875,-1.312255859375
15.309999900000001,-10.160991668701172,-0.10773907601833344,0.2322375625371933,2.2125244140625,-2.7923583984375,-0.7171630859375
15.3299999,-10.20887565612793,-0.22505496442317963,0.1628057211637497,6.34765625,-4.669189453125,0.4119873046875
15.3499999,-10.196905136108398,-0.21547815203666687,0.1604115068912506,6.2255859375,-2.1514892578125,0.1220703125
15.3699999,-10.098742485046387,-0.2537853717803955,0.19393034279346466,7.8582763671875,-2.410888671875,2.8228759765625
15.389999900000001,-10.08198356628418,-0.2513911724090576,0.22266076505184174,13.427734375,-6.7596435546875,2.9754638671875
15.4099999,-9.926360130310059,-0.2082955539226532,0.44771572947502136,17.8680419921875,-5.828857421875,2.6702880859375
15.4299999,-9.967061996459961,-0.14365209639072418,0.6248866319656372,13.702392578125,0.67138671875,3.875732421875
15.4499999,-9.90241813659668,-0.06224924325942993,0.7110779285430908,12.2833251953125,0.6561279296875,-0.396728515625
15.469999900000001,-9.943120002746582,0.090979665517807,0.790086567401886,18.524169921875,-0.42724609375,-0.3814697265625
15.4899999,-9.849745750427246,0.17477671802043915,0.6560112833976746,20.782470703125,-1.8310546875,-3.1280517578125
15.5099999,-9.952696800231934,0.2753331959247589,0.5961562395095825,15.9454345703125,2.4261474609375,-0.579833984375
15.5299999,-9.856928825378418,0.28969839215278625,0.49799394607543945,10.1776123046875,-2.5787353515625,-3.143310546875
15.549999900000001,-10.041281700134277,0.2801215946674347,0.5099649429321289,10.5438232421875,-2.288818359375,-1.190185546875
15.569999900000001,-10.017339706420898,0.26096799969673157,0.5961562395095825,5.7220458984375,-1.9683837890625,-3.7384033203125
15.5899999,-10.110713958740234,0.2513911724090576,0.7086837291717529,-7.4462890625,7.080078125,-1.739501953125
15.6099999,-9.974244117736816,0.1843535304069519,0.7924807667732239,-11.9781494140625,6.2408447265625,-2.9754638671875
15.629999900000001,-10.079588890075684,0.1628057211637497,0.7757213711738586,-7.01904296875,3.0059814453125,-1.7547607421875
15.649999900000001,-10.019734382629395,0.014365210197865963,0.6967126727104187,-3.7994384765625,3.9520263671875,-2.349853515625
15.6699999,-10.158597946166992,-0.035913024097681046,0.545877993106842,-5.67626953125,7.171630859375,0.0457763671875
15.6899999,-10.103530883789062,-0.15322890877723694,0.4141969084739685,-2.5482177734375,1.861572265625,-0.091552734375
15.709999900000001,-10.261548042297363,-0.15322890877723694,0.2777273952960968,6.591796875,0.1068115234375,0.0457763671875
15.729999900000001,-10.180145263671875,-0.19153612852096558,0.12928688526153564,13.48876953125,-7.4920654296875,-6.77490234375
15.7499999,-10.362105369567871,-0.15801730751991272,0.06464344263076782,15.0604248046875,-4.486083984375,0.3204345703125
15.7699999,-10.036493301391602,-0.13168109953403473,0.1364694982767105,14.6331787109375,-6.805419921875,0.2288818359375
15.789999900000002,-9.911994934082031,-0.07661445438861847,0.2992752194404602,15.2130126953125,-6.4239501953125,1.9073486328125
15.809999900000001,-9.481039047241211,0.002394201699644327,0.7158663272857666,12.786865234375,-2.01416015625,-2.410888671875
15.8299999,-9.428366661071777,0.09816227108240128,1.0079588890075684,-0.30517578125,8.11767578125,-2.13623046875
15.8499999,-9.41639518737793,0.21787235140800476,1.2976573705673218,-9.27734375,13.8702392578125,-1.64794921875
15.869999900000002,-9.859322547912598,0.2849099934101105,1.235408067703247,-8.7432861328125,10.101318359375,-2.655029296875
15.889999900000001,-10.139444351196289,0.26575639843940735,0.9840168952941895,-6.04248046875,6.134033203125,-7.50732421875
15.9099999,-10.481815338134766,0.22266076505184174,0.5482721924781799,-5.645751953125,5.67626953125,-6.5155029296875
15.9299999,-10.591948509216309,0.033518824726343155,0.1388636976480484,-2.8076171875,4.9896240234375,0.091552734375
15.9499999,-10.500968933105469,-0.10295066982507706,-0.19153612852096558,3.2196044921875,-3.7689208984375,-2.13623046875
15.969999900000001,-10.268731117248535,-0.26336219906806946,-0.3998316824436188,8.697509765625,-9.4146728515625,-5.3558349609375
15.9899999,-10.235212326049805,-0.3232172429561615,-0.3734954595565796,12.603759765625,-9.1705322265625,-3.173828125
16.0099999,-10.194510459899902,-0.28969839215278625,-0.16998831927776337,15.289306640625,-13.9312744140625,-2.471923828125
16.0299999,-10.254365921020508,-0.24899697303771973,0.181959331035614,12.0697021484375,-11.6729736328125,-4.730224609375
16.0499999,-10.38844108581543,-0.1388636976480484,0.5650315880775452,7.38525390625,-7.2021484375,-1.617431640625
16.0699999,-10.359710693359375,-0.08619125932455063,0.9289502501487732,3.9215087890625,-3.4637451171875,-4.45556640625
16.089999900000002,-10.390835762023926,0.014365210197865963,1.1683704853057861,0.30517578125,0.732421875,-7.3699951171875
16.109999900000002,-10.453084945678711,0.05985504388809204,1.2832920551300049,-3.96728515625,0.732421875,-6.28662109375
16.1299999,-10.469843864440918,0.12449848651885986,1.3000515699386597,-8.758544921875,-1.28173828125,-10.8184814453125
16.1499999,-10.556035041809082,0.10773907601833344,1.1803414821624756,-13.763427734375,-1.89208984375,-12.3748779296875
16.1699999,-10.498574256896973,0.040701430290937424,1.0223240852355957,-15.8843994140625,6.2103271484375,-17.364501953125
16.1899999,-10.374075889587402,-0.10534487664699554,0.8212111592292786,-15.0146484375,10.8489990234375,-24.2919921875
16.2099999,-10.125079154968262,-0.2968810200691223,0.6320692300796509,-15.1519775390625,5.92041015625,-21.3623046875
16.2299999,-9.799467086791992,-0.5746083855628967,0.4596867263317108,-16.3116455078125,4.33349609375,-14.068603515625
16.249999900000002,-9.490615844726562,-0.6775590777397156,0.35913026332855225,-15.5792236328125,8.2855224609375,-10.162353515625
16.269999900000002,-9.181763648986816,-0.8307880163192749,0.5171475410461426,-18.9208984375,15.899658203125,-9.8724365234375
16.2899999,-9.009381294250488,-0.8044517636299133,0.6105214357376099,-38.848876953125,21.78955078125,-10.0250244140625
16.3099999,-8.925583839416504,-0.8786720037460327,0.768538773059845,-46.8292236328125,15.228271484375,-6.866455078125
16.3299999,-8.96389102935791,-0.9816226959228516,0.6871358752250671,-37.53662109375,5.6915283203125,0.5340576171875
16.3499999,-9.033323287963867,-1.2042834758758545,0.40940847992897034,-22.0947265625,-2.8839111328125,9.0179443359375
16.3699999,-9.205705642700195,-1.3718775510787964,0.05267243832349777,-6.8817138671875,-8.3465576171875,17.0745849609375
16.3899999,-9.409213066101074,-1.482010841369629,-0.22026655077934265,7.0037841796875,-10.2996826171875,16.021728515625
16.4099999,-9.68933391571045,-1.4532804489135742,-0.3447650372982025,17.27294921875,-10.2386474609375,7.6141357421875
16.429999900000002,-9.99100399017334,-1.3096283674240112,-0.28969839215278625,23.3612060546875,-13.4735107421875,-2.25830078125
16.4499999,-10.223240852355957,-1.115697979927063,-0.10773907601833344,25.08544921875,-17.9901123046875,-12.0849609375
16.4699999,-10.285490036010742,-0.9313444495201111,0.14844051003456116,22.430419921875,-17.9290771484375,-18.5546875
16.4899999,-10.17296314239502,-0.7733271718025208,0.4141969084739685,18.12744140625,-13.18359375,-18.06640625
16.5099999,-9.904812812805176,-0.6607996821403503,0.6488286852836609,13.9007568359375,-11.29150390625,-12.5732421875
16.5299999,-9.622296333312988,-0.5674257874488831,0.8188169598579407,9.0484619140625,-14.0533447265625,-6.0272216796875
16.5499999,-9.428366661071777,-0.4644751250743866,0.9313444495201111,3.8909912109375,-19.53125,-3.1890869140625
16.5699999,-9.363722801208496,-0.33518823981285095,1.0223240852355957,-1.556396484375,-25.8636474609375,-4.0283203125
16.589999900000002,-9.224859237670898,-0.181959331035614,1.1851298809051514,-6.988525390625,-25.6195068359375,-4.150390625
16.609999900000002,-9.26795482635498,-0.10773907601833344,1.2186486721038818,-9.796142578125,8.6212158203125,0.30517578125
16.6299999,-9.351752281188965,-0.014365210197865963,1.2976573705673218,-7.5225830078125,16.571044921875,4.0435791015625
16.6499999,-9.569623947143555,-0.023942016065120697,1.256955862045288,-9.5672607421875,-8.1329345703125,-1.4495849609375
16.6699999,-9.828198432922363,-0.0454898327589035,1.2258312702178955,-13.18359375,-19.6075439453125,-7.1563720703125
16.6899999,-9.955090522766113,-0.11013327538967133,1.235408067703247,-16.66259765625,-8.7127685546875,-5.5694580078125
16.7099999,-9.897629737854004,-0.2059013396501541,1.259350061416626,-19.3939208984375,5.706787109375,-1.556396484375
16.7299999,-9.706093788146973,-0.3495534360408783,1.256955862045288,-19.6990966796875,8.9874267578125,-1.556396484375
16.749999900000002,-9.493009567260742,-0.4908113479614258,1.2066776752471924,-17.364501953125,6.34765625,0.579833984375
16.769999900000002,-9.318233489990234,-0.6224924325942993,1.1037269830703735,-13.24462890625,8.026123046875,6.378173828125
16.7899999,-9.186552047729492,-0.7038952708244324,0.9816226959228516,-8.2855224609375,9.1400146484375,11.2152099609375
16.8099999,-9.133879661560059,-0.7350199222564697,0.8738836050033569,-3.6468505859375,5.92041015625,14.3585205078125
16.8299999,-9.253589630126953,-0.6799532771110535,0.7972691655158997,-0.5645751953125,6.5155029296875,17.08984375
16.8499999,-9.485827445983887,-0.5793967843055725,0.7709329724311829,-0.2288818359375,8.0718994140625,13.7786865234375
16.8699999,-9.816226959228516,-0.45489832758903503,0.7805097699165344,-2.5177001953125,8.331298828125,5.950927734375
16.8899999,-10.129867553710938,-0.36152446269989014,0.8164227604866028,-5.06591796875,6.0577392578125,2.899169921875
16.9099999,-10.350133895874023,-0.3208230137825012,0.8403648138046265,-7.049560546875,2.593994140625,7.781982421875
16.929999900000002,-10.445901870727539,-0.33518823981285095,0.8212111592292786,-7.87353515625,1.6326904296875,13.4124755859375
16.9499999,-10.395624160766602,-0.3902548849582672,0.7757213711738586,-7.0037841796875,0.274658203125,13.85498046875
16.9699999,-10.278307914733887,-0.43335050344467163,0.6919242739677429,-6.1492919921875,3.265380859375,11.077880859375
16.9899999,-10.453084945678711,-0.47405192255973816,0.6177040338516235,-6.256103515625,9.7198486328125,5.096435546875
17.0099999,-10.436325073242188,-0.4908113479614258,0.5937620401382446,-6.5765380859375,5.0506591796875,-12.6953125
17.0299999,-10.76193618774414,-0.6033388376235962,0.586579442024231,-7.4462890625,0.48828125,-11.1083984375
17.0499999,-10.735600471496582,-0.6129156351089478,0.5889736413955688,-4.9285888671875,5.3253173828125,2.3956298828125
17.0699999,-10.673351287841797,-0.7086837291717529,0.6009446382522583,-0.1068115234375,4.7607421875,0.9307861328125
17.089999900000002,-10.393229484558105,-0.7134721279144287,0.6344634294509888,6.072998046875,1.861572265625,-3.84521484375
17.109999900000002,-10.134655952453613,-0.7182605266571045,0.7613561153411865,10.4827880859375,3.662109375,-4.425048828125
17.1299999,-9.9000244140625,-0.7829039692878723,1.0031704902648926,9.7503662109375,7.6904296875,-1.52587890625
17.1499999,-9.72285270690918,-0.8619126081466675,1.3335703611373901,0.0457763671875,14.434814453125,4.9896240234375
17.1699999,-9.617507934570312,-0.9265560507774353,1.6304513216018677,-15.838623046875,23.101806640625,12.8173828125
17.1899999,-9.583989143371582,-0.9409212470054626,1.8148049116134644,-31.5704345703125,29.1900634765625,16.998291015625
17.2099999,-9.583989143371582,-0.8427590131759644,1.800439715385437,-45.135498046875,34.0423583984375,20.355224609375
17.2299999,-9.744400978088379,-0.48602294921875,1.072602391242981,-54.443359375,38.7725830078125,23.8189697265625
17.249999900000002,-9.864110946655273,-0.31603461503982544,0.44532153010368347,-46.478271484375,34.3780517578125,22.8729248046875
17.269999900000002,-10.02691650390625,-0.10055647045373917,-0.2825157940387726,-33.3709716796875,27.587890625,21.026611328125
17.2899999,-10.160991668701172,0.09576806426048279,-1.0007762908935547,-13.3056640625,19.3023681640625,15.899658203125
17.3099999,-10.290278434753418,0.30885201692581177,-1.5849615335464478,8.3465576171875,9.3994140625,7.293701171875
17.3299999,-10.35252857208252,0.5099649429321289,-1.946485996246338,17.1661376953125,-0.6866455078125,2.197265625
17.3499999,-10.357316970825195,0.6416460275650024,-2.0231003761291504,12.481689453125,-7.9803466796875,0.3204345703125
17.3699999,-10.326191902160645,0.6655880808830261,-1.8483237028121948,3.72314453125,-12.8631591796875,-1.3275146484375
17.3899999,-10.254365921020508,0.5793967843055725,-1.5203180313110352,-5.55419921875,-16.9830322265625,-0.9307861328125
17.409999900000003,-10.187328338623047,0.3926490843296051,-1.192312479019165,-13.24462890625,-21.392822265625,1.1749267578125
17.429999900000002,-10.103530883789062,0.1604115068912506,-0.9481038451194763,-14.495849609375,-26.4434814453125,3.1890869140625
17.4499999,-10.065223693847656,-0.043095629662275314,-0.7996633648872375,-7.62939453125,-31.6925048828125,2.1209716796875
17.4699999,-10.065223693847656,-0.2106897532939911,-0.7565677165985107,3.6773681640625,-37.5213623046875,1.800537109375
17.4899999,-10.050858497619629,-0.2513911724090576,-0.7182605266571045,16.66259765625,-44.61669921875,2.2430419921875
17.5099999,-10.050858497619629,-0.22505496442317963,-0.5889736413955688,28.1829833984375,-50.2777099609375,0.7781982421875
17.5299999,-9.998186111450195,-0.18914192914962769,-0.33279404044151306,33.5540771484375,-51.2847900390625,-1.068115234375
17.5499999,-9.890447616577148,-0.12210428714752197,0.0933738648891449,33.203125,-50.4608154296875,0.2593994140625
17.5699999,-9.765948295593262,-0.0454898327589035,0.7374141216278076,30.120849609375,-47.8973388671875,4.1656494140625
17.589999900000002,-9.627084732055664,0.043095629662275314,1.5059528350830078,20.3094482421875,-39.642333984375,7.0648193359375
17.609999900000002,-9.516951560974121,0.20350714027881622,2.3104045391082764,3.8299560546875,-26.885986328125,7.4920654296875
17.6299999,-9.437943458557129,0.38307225704193115,2.9927520751953125,-12.2833251953125,-14.6026611328125,7.6141357421875
17.6499999,-9.418789863586426,0.569819986820221,3.3901896476745605,-21.54541015625,-4.0435791015625,7.1258544921875
17.6699999,-9.464279174804688,0.6751648783683777,3.3949780464172363,-23.468017578125,3.41796875,4.2877197265625
17.6899999,-9.564835548400879,0.6991068720817566,3.0550012588500977,-18.00537109375,6.8206787109375,1.0223388671875
17.7099999,-9.679757118225098,0.6512228846549988,2.5067291259765625,-5.9356689453125,6.561279296875,-0.762939453125
17.7299999,-9.787496566772461,0.5889736413955688,2.049436569213867,4.7149658203125,5.645751953125,-2.3651123046875
17.749999900000002,-9.825803756713867,0.5123591423034668,1.7764976024627686,1.9073486328125,9.9639892578125,-4.4097900390625
17.769999900000002,-9.821015357971191,0.45489832758903503,1.6879122257232666,-9.521484375,17.791748046875,-5.3558349609375
17.7899999,-9.801861763000488,0.40222588181495667,1.6855180263519287,-15.9912109375,21.3623046875,-4.6539306640625
17.8099999,-9.794678688049316,0.3471592366695404,1.6136919260025024,-16.54052734375,20.81298828125,-3.2806396484375
17.8299999,-9.84256362915039,0.26575639843940735,1.3479355573654175,-15.3045654296875,19.6380615234375,-4.33349609375
17.8499999,-9.931148529052734,0.12689268589019775,0.9169792532920837,-8.1024169921875,15.7318115234375,-5.9051513671875
17.8699999,-10.014945983886719,-0.026336219161748886,0.47644615173339844,6.683349609375,7.1258544921875,-4.6234130859375
17.8899999,-10.077195167541504,-0.16998831927776337,0.17956513166427612,16.204833984375,0,-2.777099609375
17.909999900000003,-10.093954086303711,-0.2346317619085312,0.12689268589019775,11.199951171875,-0.762939453125,-2.105712890625
17.929999900000002,-10.043676376342773,-0.21547815203666687,0.3495534360408783,0.6103515625,0.9765625,-0.5645751953125
17.9499999,-9.926360130310059,-0.07422025501728058,0.7661445140838623,-5.7525634765625,2.5634765625,0.823974609375
17.9699999,-9.80904483795166,0.1173158809542656,1.2737152576446533,-11.3067626953125,6.28662109375,0.5950927734375
17.9899999,-9.6989107131958,0.3495534360408783,1.7741034030914307,-24.566650390625,15.869140625,-1.2969970703125
18.0099999,-9.651026725769043,0.586579442024231,2.011129379272461,-35.675048828125,23.895263671875,-2.8533935546875
18.0299999,-9.672574996948242,0.6177040338516235,2.013523578643799,-35.003662109375,24.871826171875,-3.4027099609375
18.0499999,-9.751583099365234,0.545877993106842,1.5897499322891235,-27.130126953125,22.8424072265625,-4.8828125
18.0699999,-9.916783332824707,0.16759411990642548,0.9145850539207458,-17.9595947265625,18.1427001953125,-5.401611328125
18.089999900000002,-10.062829971313477,-0.23702596127986908,0.16998831927776337,-4.82177734375,10.498046875,-2.838134765625
18.109999900000002,-10.225635528564453,-0.6703764796257019,-0.5746083855628967,15.167236328125,0.762939453125,2.01416015625
18.1299999,-10.278307914733887,-0.9169792532920837,-1.048660397529602,33.7677001953125,-13.0157470703125,4.6844482421875
18.1499999,-10.273519515991211,-0.8834604024887085,-1.0821791887283325,36.895751953125,-17.730712890625,2.9449462890625
18.1699999,-10.14902114868164,-0.5770025849342346,-0.7158663272857666,20.6146240234375,-14.862060546875,3.9520263671875
18.1899999,-10.055646896362305,-0.08619125932455063,-0.004788403399288654,0.4730224609375,-9.368896484375,3.6468505859375
18.2099999,-9.897629737854004,0.3711012601852417,0.7805097699165344,-8.9263916015625,-5.55419921875,-0.579833984375
18.2299999,-9.840168952941895,0.6751648783683777,1.3503297567367554,-13.0767822265625,-2.044677734375,-1.4190673828125
18.249999900000002,-9.77791976928711,0.7805097699165344,1.6879122257232666,-15.5487060546875,-0.0762939453125,-2.716064453125
18.269999900000002,-9.794678688049316,0.6655880808830261,1.766920804977417,-17.3187255859375,4.058837890625,-2.532958984375
18.2899999,-9.806650161743164,0.5027823448181152,1.6376339197158813,-18.9666748046875,8.8958740234375,-2.5482177734375
18.3099999,-9.852140426635742,0.1867477297782898,1.3192051649093628,-14.4195556640625,9.2926025390625,-2.0904541015625
18.3299999,-9.931148529052734,-0.14844051003456116,0.871489405632019,-2.227783203125,3.1280517578125,-2.50244140625
18.3499999,-10.005369186401367,-0.4213795065879822,0.395043283700943,15.1519775390625,-6.89697265625,-3.1280517578125
18.3699999,-10.079588890075684,-0.5817909836769104,0.09816227108240128,26.2451171875,-12.0697021484375,0.3204345703125
18.3899999,-10.101137161254883,-0.5650315880775452,-0.011971008032560349,21.30126953125,-10.284423828125,2.166748046875
18.409999900000003,-10.062829971313477,-0.30885201692581177,0.18914192914962769,12.451171875,-7.01904296875,1.3885498046875
18.429999900000002,-9.959878921508789,-0.011971008032560349,0.5363011956214905,4.241943359375,-5.6304931640625,0.0762939453125
18.4499999,-9.916783332824707,0.35913026332855225,1.0582371950149536,-5.2947998046875,-5.2337646484375,-3.41796875
18.4699999,-9.727641105651855,0.6799532771110535,1.6735470294952393,-22.8729248046875,1.6937255859375,-1.953125
18.4899999,-9.710882186889648,0.8188169598579407,2.123656988143921,-46.2799072265625,17.1661376953125,-1.739501953125
18.5099999,-9.651026725769043,0.8020575642585754,2.2194249629974365,-51.300048828125,23.162841796875,-2.5787353515625
18.5299999,-9.737217903137207,0.5123591423034668,1.9488801956176758,-37.7197265625,20.263671875,-1.9989013671875
18.5499999,-9.86650562286377,0.08858546614646912,1.2521674633026123,-18.707275390625,11.29150390625,-8.0413818359375
18.5699999,-10.031704902648926,-0.3711012601852417,0.5291185975074768,-0.5950927734375,6.28662109375,-4.8980712890625
18.589999900000002,-10.046070098876953,-0.6991068720817566,-0.0454898327589035,9.8114013671875,1.8463134765625,0.2288818359375
18.609999900000002,-10.103530883789062,-0.790086567401886,-0.2849099934101105,14.739990234375,-1.77001953125,0.42724609375
18.6299999,-10.046070098876953,-0.7254431247711182,-0.2561795711517334,6.3934326171875,-3.875732421875,2.0599365234375
18.6499999,-10.010157585144043,-0.4692635238170624,0.011971008032560349,-5.8135986328125,-2.9449462890625,3.0059814453125
18.6699999,-9.938331604003906,-0.23942017555236816,0.3471592366695404,-6.7291259765625,-3.5400390625,3.662109375
18.6899999,-9.897629737854004,0.019153613597154617,0.7134721279144287,-6.134033203125,-2.9144287109375,2.9296875
18.7099999,-9.821015357971191,0.16519992053508759,0.9217676520347595,-18.035888671875,-1.739501953125,2.5482177734375
18.7299999,-9.835380554199219,0.2513911724090576,1.139639973640442,-28.9154052734375,1.922607421875,2.13623046875
18.749999900000002,-9.821015357971191,0.26336219906806946,1.256955862045288,-31.18896484375,6.072998046875,0.823974609375
18.769999900000002,-9.9000244140625,0.11013327538967133,1.115697979927063,-27.8472900390625,7.1563720703125,0.2899169921875
18.7899999,-9.988609313964844,-0.047884032130241394,0.9145850539207458,-11.8408203125,0.8087158203125,2.74658203125
18.8099999,-10.062829971313477,-0.29209262132644653,0.5626373887062073,3.021240234375,-2.9449462890625,2.44140625
18.8299999,-10.127472877502441,-0.4381389021873474,0.19871874153614044,13.702392578125,-8.85009765625,2.5634765625
18.8499999,-10.18493366241455,-0.5339069962501526,-0.12689268589019775,22.3236083984375,-12.2833251953125,3.47900390625
18.8699999,-10.137049674987793,-0.4668693244457245,-0.26336219906806946,35.8428955078125,-22.0947265625,1.8310546875
18.8899999,-10.139444351196289,-0.3016694188117981,-0.12928688526153564,39.886474609375,-23.956298828125,-0.579833984375
18.909999900000003,-10.019734382629395,0.014365210197865963,0.26575639843940735,27.130126953125,-18.524169921875,-0.5645751953125
18.929999900000002,-9.8784761428833,0.3878606855869293,0.9097966551780701,9.2315673828125,-10.0860595703125,-1.03759765625
18.9499999,-9.75397777557373,0.751779317855835,1.702277421951294,-9.70458984375,-2.8533935546875,-3.2501220703125
18.9699999,-9.619902610778809,0.9792284965515137,2.250549554824829,-30.5023193359375,7.38525390625,-5.5389404296875
18.9899999,-9.648633003234863,0.933738648891449,2.540247917175293,-40.2374267578125,13.7786865234375,-4.7607421875
19.0099999,-9.610325813293457,0.6967126727104187,2.406172752380371,-35.0341796875,13.641357421875,-5.767822265625
19.0299999,-9.758766174316406,0.17238251864910126,1.8387469053268433,-22.6287841796875,10.5743408203125,-6.7596435546875
19.0499999,-9.854534149169922,-0.3495534360408783,1.0749965906143188,-1.373291015625,7.0343017578125,-5.5389404296875
19.0699999,-10.053253173828125,-0.8140285611152649,0.2825157940387726,19.4091796875,-1.89208984375,-1.6937255859375
19.089999900000002,-10.170568466186523,-1.0127472877502441,-0.26336219906806946,31.768798828125,-9.185791015625,0.518798828125
19.109999900000002,-10.232817649841309,-0.9313444495201111,-0.3998316824436188,30.487060546875,-13.24462890625,0.42724609375
19.1299999,-10.129867553710938,-0.49799394607543945,-0.038307227194309235,14.7552490234375,-10.9710693359375,1.8768310546875
19.1499999,-10.010157585144043,-0.009576806798577309,0.6248866319656372,-9.4146728515625,-3.448486328125,1.7852783203125
19.1699999,-9.873687744140625,0.45250412821769714,1.2952631711959839,-26.42822265625,1.0833740234375,-3.3721923828125
19.1899999,-9.823410034179688,0.6512228846549988,1.7717092037200928,-31.524658203125,6.011962890625,-4.3487548828125
19.2099999,-9.746794700622559,0.6248866319656372,1.9273324012756348,-28.01513671875,7.6141357421875,-5.4931640625
19.2299999,-9.780313491821289,0.3447650372982025,1.7836803197860718,-22.979736328125,9.7808837890625,-5.0048828125
19.249999900000002,-9.765948295593262,-0.028730420395731926,1.5083470344543457,-12.664794921875,9.09423828125,-4.852294921875
19.269999900000002,-9.859322547912598,-0.3208230137825012,1.1971008777618408,-4.4097900390625,6.6070556640625,-3.4637451171875
19.2899999,-9.883264541625977,-0.5793967843055725,0.9074024558067322,-0.701904296875,6.6070556640625,-2.5177001953125
19.3099999,-10.029311180114746,-0.608127236366272,0.6488286852836609,2.5177001953125,5.126953125,-1.7852783203125
19.3299999,-10.010157585144043,-0.6129156351089478,0.5027823448181152,7.5836181640625,-1.8463134765625,-1.03759765625
19.3499999,-10.046070098876953,-0.43335050344467163,0.44771572947502136,4.1961669921875,-2.0904541015625,-1.9378662109375
19.3699999,-9.986215591430664,-0.35434186458587646,0.4357447028160095,-7.080078125,-1.3885498046875,-2.593994140625
19.3899999,-9.880870819091797,-0.21787235140800476,0.6488286852836609,-14.7247314453125,1.6632080078125,1.007080078125
19.409999900000003,-9.832986831665039,-0.14844051003456116,0.8355764150619507,-18.24951171875,-0.9765625,2.838134765625
19.429999900000002,-9.856928825378418,-0.1388636976480484,1.0319008827209473,-24.8260498046875,-0.4119873046875,1.434326171875
19.4499999,-9.852140426635742,-0.19393034279346466,1.115697979927063,-27.374267578125,2.86865234375,2.5482177734375
19.4699999,-9.962273597717285,-0.33518823981285095,1.0079588890075684,-17.4560546875,1.89208984375,2.8533935546875
19.4899999,-9.983820915222168,-0.4884171485900879,0.8379706144332886,0.67138671875,-3.84521484375,4.4097900390625
19.5099999,-9.99339771270752,-0.5913678407669067,0.7015010714530945,8.36181640625,-6.317138671875,4.39453125
19.5299999,-10.017339706420898,-0.608127236366272,0.5578489899635315,6.2408447265625,-5.7220458984375,5.06591796875
19.5499999,-10.0580415725708,-0.47884035110473633,0.5386953949928284,10.5743408203125,-6.77490234375,4.21142578125
19.5699999,-10.031704902648926,-0.2346317619085312,0.6392518281936646,17.3797607421875,-10.2081298828125,2.166748046875
19.589999900000002,-10.005369186401367,0.07182604819536209,0.950498104095459,5.92041015625,-6.1492919921875,-0.3204345703125
19.609999900000002,-9.895236015319824,0.35434186458587646,1.3096283674240112,-16.571044921875,3.8604736328125,-1.0986328125
19.6299999,-9.854534149169922,0.4596867263317108,1.601720929145813,-24.200439453125,9.0484619140625,-3.143310546875
19.6499999,-9.81143856048584,0.4213795065879822,1.5682021379470825,-8.11767578125,3.997802734375,-7.720947265625
19.6699999,-9.871294021606445,0.1388636976480484,1.2234370708465576,9.27734375,1.922607421875,-7.7362060546875
19.6899999,-9.921571731567383,-0.15322890877723694,0.7589619159698486,18.585205078125,-1.9989013671875,-7.3699951171875
19.7099999,-10.010157585144043,-0.38307225704193115,0.5195417404174805,25.2838134765625,-5.92041015625,-7.598876953125
19.7299999,-9.981427192687988,-0.47884035110473633,0.5889736413955688,23.4222412109375,-6.1187744140625,-5.67626953125
19.749999900000002,-9.9000244140625,-0.4165911078453064,0.9672574996948242,4.638671875,2.197265625,-3.265380859375
19.769999900000002,-9.859322547912598,-0.3423708379268646,1.4173674583435059,-17.2271728515625,11.0321044921875,-0.2288818359375
19.7899999,-9.782708168029785,-0.21308395266532898,1.7190368175506592,-26.947021484375,12.6800537109375,1.7242431640625
19.8099999,-9.794678688049316,-0.19632454216480255,1.6711528301239014,-27.9998779296875,12.481689453125,-0.8392333984375
19.8299999,-9.911994934082031,-0.21308395266532898,1.290474772453308,-20.172119140625,11.53564453125,-1.3427734375
19.8499999,-9.976638793945312,-0.2992752194404602,0.7589619159698486,-7.6141357421875,2.9449462890625,-1.861572265625
19.8699999,-10.0580415725708,-0.49559974670410156,0.272938996553421,8.1634521484375,-4.2877197265625,-1.9073486328125
19.8899999,-10.086771965026855,-0.6248866319656372,-0.043095629662275314,17.913818359375,-7.87353515625,0.9307861328125
19.909999900000003,-10.086771965026855,-0.7469909191131592,-0.011971008032560349,18.5546875,-9.2620849609375,3.4637451171875
19.929999900000002,-10.02452278137207,-0.7015010714530945,0.17956513166427612,14.6942138671875,-9.6588134765625,2.9449462890625
