# Time (seconds),Accel_X,Accel_Y,Accel_Z,Gyro_X,Gyro_Y,Gyro_Z
0.0099999,-1.1875240802764893,-10.077195167541504,0.3016694188117981,-8.1939697265625,63.7359619140625,67.81005859375
0.029999900000000003,-1.3335703611373901,-9.818621635437012,0.1867477297782898,-7.110595703125,74.737548828125,75.3021240234375
0.0499999,-1.6855180263519287,-9.643844604492188,-0.021547814831137657,-1.0528564453125,68.3135986328125,80.902099609375
0.0699999,-2.1978771686553955,-9.478644371032715,-0.27054479718208313,5.218505859375,50.323486328125,83.9385986328125
0.08999990000000001,-2.7317841053009033,-9.330204010009766,-0.45250412821769714,8.8043212890625,38.26904296875,79.04052734375
0.10999990000000001,-3.1268274784088135,-9.157821655273438,-0.4836287498474121,8.5906982421875,43.060302734375,73.211669921875
0.1299999,-3.3255462646484375,-8.973467826843262,-0.3878606855869293,5.8746337890625,58.1512451171875,72.0062255859375
0.14999990000000002,-3.359065055847168,-8.820239067077637,-0.23702596127986908,4.180908203125,69.27490234375,70.4345703125
0.1699999,-3.3854012489318848,-8.71728801727295,-0.15083470940589905,4.8828125,71.22802734375,68.7713623046875
0.1899999,-3.488351821899414,-8.645462036132812,-0.15801730751991272,7.1868896484375,63.140869140625,70.6329345703125
0.20999990000000002,-3.663128614425659,-8.583212852478027,-0.22026655077934265,9.765625,50.6744384765625,70.9228515625
0.2299999,-3.869029998779297,-8.513781547546387,-0.2849099934101105,12.2528076171875,44.5404052734375,66.558837890625
0.2499999,-4.02465295791626,-8.418013572692871,-0.28730419278144836,13.6871337890625,47.9736328125,62.56103515625
0.2699999,-4.173093795776367,-8.315062522888184,-0.2585737705230713,13.8397216796875,55.450439453125,63.2781982421875
0.28999990000000003,-4.347870349884033,-8.2312650680542,-0.19871874153614044,14.190673828125,56.6864013671875,63.41552734375
0.3099999,-4.623203277587891,-8.178592681884766,-0.15083470940589905,15.3656005859375,54.1839599609375,56.427001953125
0.3299999,-4.946420669555664,-8.128314971923828,-0.12928688526153564,17.730712890625,51.5594482421875,45.7763671875
0.34999990000000003,-5.188235282897949,-8.097189903259277,-0.090979665517807,20.3094482421875,47.8363037109375,39.6575927734375
0.3699999,-5.293580055236816,-8.037335395812988,-0.05027823522686958,21.514892578125,47.760009765625,43.2281494140625
0.3899999,-5.284003257751465,-7.95832633972168,0.002394201699644327,21.7132568359375,51.3916015625,49.102783203125
0.40999990000000003,-5.2696380615234375,-7.8314337730407715,0.038307227194309235,22.979736328125,53.0242919921875,51.1474609375
0.4299999,-5.315127849578857,-7.649474620819092,0.040701430290937424,25.0091552734375,47.66845703125,52.6580810546875
0.4499999,-5.394136428833008,-7.424419403076172,0.028730420395731926,25.7568359375,38.8641357421875,56.9610595703125
0.4699999,-5.458779811859131,-7.196970462799072,0.026336219161748886,23.92578125,38.39111328125,64.0411376953125
0.4899999,-5.51624059677124,-7.005434036254883,0.033518824726343155,21.6217041015625,46.6461181640625,71.533203125
0.5099999,-5.657498836517334,-6.873753070831299,0.035913024097681046,20.6146240234375,48.8128662109375,79.742431640625
0.5299999,-5.980715751647949,-6.7277069091796875,-0.009576806798577309,19.7601318359375,38.8336181640625,86.1968994140625
0.5499999,-6.421248912811279,-6.552929878234863,-0.07900865375995636,18.8140869140625,25.5126953125,82.5653076171875
0.5699999,-6.845022678375244,-6.315904140472412,-0.15083470940589905,17.608642578125,21.42333984375,74.554443359375
0.5899998999999999,-7.184999465942383,-6.110002517700195,-0.2059013396501541,15.1519775390625,22.27783203125,76.47705078125
0.6099998999999999,-7.3885064125061035,-5.858611583709717,-0.22266076505184174,10.894775390625,19.6075439453125,86.3189697265625
0.6299999,-7.529764175415039,-5.647922039031982,-0.2849099934101105,8.3465576171875,23.0560302734375,84.7320556640625
0.6499999,-7.613561630249023,-5.39174222946167,-0.3663128614425659,8.575439453125,27.4810791015625,77.9266357421875
0.6699999,-7.666234016418457,-5.147533416748047,-0.5099649429321289,9.21630859375,26.3214111328125,83.2366943359375
0.6899999,-7.694964408874512,-4.891354084014893,-0.6272808313369751,8.697509765625,16.41845703125,100.341796875
0.7099999,-7.752425193786621,-4.623203277587891,-0.667982280254364,6.2103271484375,13.031005859375,111.4044189453125
0.7299998999999999,-7.931990146636963,-4.3191399574279785,-0.6560112833976746,3.4027099609375,24.7802734375,110.3057861328125
0.7499998999999999,-8.209717750549316,-3.9911341667175293,-0.6105214357376099,0.5950927734375,28.9459228515625,108.4747314453125
0.7699999,-8.542511940002441,-3.663128614425659,-0.6105214357376099,-1.8463134765625,17.08984375,108.58154296875
0.7899999,-8.808267593383789,-3.4165258407592773,-0.6607996821403503,-2.6397705078125,8.4381103515625,101.5167236328125
0.8099999,-9.002198219299316,-3.272873640060425,-0.7613561153411865,-0.701904296875,14.95361328125,90.118408203125
0.8299999,-9.174580574035645,-3.2321722507476807,-0.8810662031173706,2.6397705078125,17.1356201171875,85.906982421875
0.8499998999999999,-9.39245319366455,-3.2321722507476807,-0.9911994934082031,6.134033203125,5.0811767578125,84.89990234375
0.8699998999999999,-9.696516990661621,-3.2992098331451416,-1.0893617868423462,10.1776123046875,-3.4027099609375,75.01220703125
0.8899999,-10.055646896362305,-3.354276657104492,-1.1492167711257935,14.2822265625,-2.50244140625,62.3016357421875
0.9099999,-10.342951774597168,-3.406949043273926,-1.1420341730117798,17.2271728515625,-5.06591796875,56.4117431640625
0.9299999,-10.496180534362793,-3.4404678344726562,-1.0965443849563599,18.9361572265625,-9.8419189453125,54.8248291015625
0.9499999,-10.508151054382324,-3.442862033843994,-1.01753568649292,20.599365234375,-11.8865966796875,51.4984130859375
0.9699998999999999,-10.453084945678711,-3.3877954483032227,-0.9193734526634216,22.552490234375,-12.6800537109375,47.2412109375
0.9899998999999999,-10.407594680786133,-3.28963303565979,-0.7948749661445618,23.9105224609375,-15.960693359375,42.8619384765625
1.0099999,-10.426748275756836,-3.138798475265503,-0.6416460275650024,24.017333984375,-19.2108154296875,33.538818359375
1.0299999,-10.467450141906738,-3.021482467651367,-0.4572925269603729,23.13232421875,-19.22607421875,18.768310546875
1.0499999,-10.517727851867676,-2.913743495941162,-0.26336219906806946,21.1944580078125,-19.10400390625,9.735107421875
1.0699999,-10.465055465698242,-2.8610711097717285,-0.07661445438861847,17.88330078125,-23.3917236328125,11.2762451171875
1.0899999,-10.283096313476562,-2.851494312286377,0.08858546614646912,13.427734375,-29.0985107421875,20.5841064453125
1.1099999,-10.000580787658691,-2.801215887069702,0.2298433631658554,8.026123046875,-29.876708984375,32.40966796875
1.1299999,-9.682151794433594,-2.6862943172454834,0.3447650372982025,2.2125244140625,-25.543212890625,42.8314208984375
1.1499999,-9.433155059814453,-2.4372973442077637,0.42616790533065796,-3.8909912109375,-22.64404296875,50.445556640625
1.1699998999999999,-9.272743225097656,-2.0901381969451904,0.4644751250743866,-10.4217529296875,-21.4080810546875,51.544189453125
1.1899998999999999,-9.232041358947754,-1.6950948238372803,0.44532153010368347,-15.960693359375,-15.899658203125,48.0804443359375
1.2099999,-9.260771751403809,-1.290474772453308,0.3926490843296051,-19.10400390625,-10.5133056640625,44.8455810546875
1.2299999,-9.32541561126709,-0.933738648891449,0.31364041566848755,-19.6685791015625,-3.0975341796875,37.9638671875
1.2499999,-9.41400146484375,-0.6847416758537292,0.2106897532939911,-17.4713134765625,6.28662109375,29.632568359375
1.2699999,-9.548076629638672,-0.5363011956214905,0.07900865375995636,-14.6026611328125,7.62939453125,27.4200439453125
1.2899999,-9.706093788146973,-0.49320554733276367,-0.05746084079146385,-9.94873046875,2.8839111328125,27.6947021484375
1.3099999,-9.861717224121094,-0.545877993106842,-0.20350714027881622,-3.8909912109375,3.5400390625,24.810791015625
1.3299999,-10.02452278137207,-0.6440402865409851,-0.31603461503982544,1.7547607421875,4.425048828125,21.5301513671875
1.3499999,-10.187328338623047,-0.7254431247711182,-0.36152446269989014,6.1187744140625,3.387451171875,17.76123046875
1.3699999,-10.345345497131348,-0.7805097699165344,-0.3519476354122162,9.0789794921875,5.1422119140625,9.3994140625
1.3899999,-10.508151054382324,-0.7924807667732239,-0.3016694188117981,11.505126953125,8.1024169921875,0.30517578125
1.4099999,-10.63743782043457,-0.7661445140838623,-0.22505496442317963,14.1448974609375,1.89208984375,-3.936767578125
1.4299998999999999,-10.702081680297852,-0.7086837291717529,-0.1364694982767105,16.2353515625,-9.8114013671875,-5.462646484375
1.4499999,-10.599130630493164,-0.6775590777397156,-0.028730420395731926,17.242431640625,-15.350341796875,-7.720947265625
1.4699999,-10.366893768310547,-0.6392518281936646,0.09816227108240128,17.669677734375,-11.3067626953125,-4.8675537109375
1.4899999,-10.041281700134277,-0.5937620401382446,0.21787235140800476,17.27294921875,-3.753662109375,3.6163330078125
1.5099999,-9.761159896850586,-0.5171475410461426,0.31842881441116333,14.678955078125,-0.335693359375,10.6658935546875
1.5299999,-9.641449928283691,-0.3974374830722809,0.3758896589279175,10.406494140625,1.1444091796875,10.43701171875
1.5499999,-9.68933391571045,-0.2585737705230713,0.4189853072166443,6.195068359375,1.6021728515625,4.9285888671875
1.5699999,-9.864110946655273,-0.12689268589019775,0.4429273009300232,1.800537109375,2.4261474609375,1.495361328125
1.5899999,-10.02691650390625,-0.05506663769483566,0.45489832758903503,-2.655029296875,1.5716552734375,0.79345703125
1.6099999,-10.125079154968262,-0.043095629662275314,0.4405331015586853,-5.9051513671875,-0.6256103515625,2.532958984375
1.6299999,-10.204087257385254,-0.06703764945268631,0.40462008118629456,-6.8817138671875,-1.3885498046875,7.9498291015625
1.6499999,-10.536881446838379,-0.10055647045373917,0.3423708379268646,-6.9732666015625,-1.861572265625,6.4697265625
1.6699999,-10.654197692871094,-0.17956513166427612,0.24181437492370605,-7.3699951171875,-2.7008056640625,-4.3182373046875
1.6899998999999999,-10.886435508728027,-0.1843535304069519,0.17238251864910126,-6.34765625,-4.180908203125,3.3721923828125
1.7099999,-10.769119262695312,-0.19632454216480255,0.090979665517807,-2.7923583984375,-5.5694580078125,2.0294189453125
1.7299999,-10.503362655639648,-0.19393034279346466,0.05267243832349777,-2.0904541015625,-6.8359375,-0.5645751953125
1.7499999,-10.228029251098633,-0.2059013396501541,0.038307227194309235,-0.0762939453125,-8.3465576171875,0.244140625
1.7699999,-10.038887977600098,-0.2801215946674347,0.040701430290937424,4.3487548828125,-10.2996826171875,2.044677734375
1.7899999,-9.864110946655273,-0.395043283700943,0.05746084079146385,7.87353515625,-10.7879638671875,6.65283203125
1.8099999,-9.892841339111328,-0.4692635238170624,0.0933738648891449,8.514404296875,-11.138916015625,11.9781494140625
1.8299999,-9.840168952941895,-0.5195417404174805,0.15801730751991272,9.002685546875,-11.962890625,8.6517333984375
1.8499999,-9.926360130310059,-0.49320554733276367,0.26575639843940735,7.9345703125,-11.8408203125,8.2244873046875
1.8699999,-9.979032516479492,-0.3974374830722809,0.4213795065879822,6.378173828125,-9.124755859375,11.962890625
1.8899999,-9.983820915222168,-0.24899697303771973,0.6248866319656372,3.9215087890625,-6.04248046875,12.8631591796875
1.9099999,-9.938331604003906,-0.05506663769483566,0.8259995579719543,1.1749267578125,-2.960205078125,12.9852294921875
1.9299998999999999,-9.90241813659668,0.13168109953403473,0.9744400978088379,-1.0986328125,-0.885009765625,12.8173828125
1.9499999,-9.856928825378418,0.28730419278144836,1.0295066833496094,-3.570556640625,0.7781982421875,12.9241943359375
1.9699999,-9.864110946655273,0.40462008118629456,0.9720458984375,-5.31005859375,2.227783203125,12.1917724609375
1.9899999,-9.897629737854004,0.5003881454467773,0.828393816947937,-4.8828125,1.3885498046875,10.19287109375
2.0099999,-9.931148529052734,0.5770025849342346,0.6560112833976746,-3.11279296875,0.1068115234375,8.0718994140625
2.0299999,-9.952696800231934,0.6153098344802856,0.49799394607543945,-0.5645751953125,-0.030517578125,6.195068359375
2.0499999,-9.964667320251465,0.6512228846549988,0.40222588181495667,3.11279296875,-0.1373291015625,4.7149658203125
2.0699999,-9.964667320251465,0.6631938815116882,0.38307225704193115,7.4615478515625,-0.7781982421875,2.3651123046875
2.0899999,-9.952696800231934,0.6607996821403503,0.42616790533065796,10.19287109375,-0.1220703125,-0.1373291015625
2.1099999,-9.945513725280762,0.6440402865409851,0.5147533416748047,9.7503662109375,1.708984375,-1.1138916015625
2.1299999,-9.923966407775879,0.6033388376235962,0.6584054827690125,7.26318359375,3.3416748046875,-1.0528564453125
2.1499999,-9.876082420349121,0.5434837937355042,0.8403648138046265,2.7618408203125,6.3934326171875,-0.2899169921875
2.1699999,-9.847352027893066,0.45489832758903503,0.9744400978088379,-3.5247802734375,10.7421875,0.79345703125
2.1899999,-9.832986831665039,0.33039984107017517,1.0342950820922852,-9.1094970703125,13.824462890625,2.5177001953125
2.2099999,-9.8784761428833,0.23702596127986908,0.9696516990661621,-13.5498046875,14.9383544921875,6.011962890625
2.2299999,-9.8784761428833,0.1604115068912506,0.7733271718025208,-15.07568359375,14.862060546875,6.866455078125
2.2499999,-9.926360130310059,0.14365209639072418,0.47405192255973816,-12.9241943359375,13.5650634765625,7.7972412109375
2.2699999,-9.964667320251465,0.17238251864910126,0.12449848651885986,-6.4849853515625,9.8724365234375,7.2174072265625
2.2899999,-10.012551307678223,0.2513911724090576,-0.2082955539226532,0.5035400390625,3.8909912109375,7.8887939453125
2.3099999,-10.105925559997559,0.3208230137825012,-0.49799394607543945,4.3182373046875,-1.8157958984375,8.3160400390625
2.3299999,-10.168174743652344,0.4141969084739685,-0.7015010714530945,7.354736328125,-6.988525390625,7.7667236328125
2.3499999,-10.201693534851074,0.5147533416748047,-0.7637503147125244,12.3291015625,-12.664794921875,5.9814453125
2.3699999,-10.168174743652344,0.6320692300796509,-0.6943184733390808,15.5792236328125,-17.4560546875,4.486083984375
2.3899999,-10.101137161254883,0.7015010714530945,-0.5363011956214905,12.664794921875,-20.0042724609375,3.7689208984375
2.4099999,-9.99339771270752,0.7805097699165344,-0.19393034279346466,7.3089599609375,-19.927978515625,3.4637451171875
2.4299999,-9.931148529052734,0.8259995579719543,0.2537853717803955,0.79345703125,-17.608642578125,4.730224609375
2.4499999,-9.847352027893066,0.8475474119186401,0.6799532771110535,-8.270263671875,-12.2528076171875,6.4849853515625
2.4699999,-9.840168952941895,0.8834604024887085,1.0103530883789062,-12.298583984375,-8.97216796875,3.7078857421875
2.4899999,-9.847352027893066,0.8595184087753296,1.1755530834197998,-9.1552734375,-9.8114013671875,1.6937255859375
2.5099999,-9.837775230407715,0.8140285611152649,1.1803414821624756,-2.7923583984375,-9.4146728515625,2.62451171875
2.5299999,-9.847352027893066,0.7709329724311829,1.1492167711257935,4.6234130859375,-5.462646484375,2.593994140625
2.5499999,-9.821015357971191,0.6655880808830261,1.0821791887283325,12.1917724609375,-3.0364990234375,-0.0152587890625
2.5699999,-9.837775230407715,0.6823474764823914,1.0797849893569946,17.02880859375,-3.1890869140625,-1.2054443359375
2.5899999,-9.832986831665039,0.7182605266571045,1.2449848651885986,15.380859375,-0.8697509765625,0.030517578125
2.6099999,-9.763554573059082,0.9457096457481384,1.4891934394836426,1.0528564453125,10.0555419921875,-1.251220703125
2.6299999,-9.713275909423828,1.173158884048462,1.7573440074920654,-15.6402587890625,21.2860107421875,-6.317138671875
2.6499999,-9.648633003234863,1.3670891523361206,1.7860745191574097,-23.5443115234375,26.7791748046875,-8.6517333984375
2.6699999,-9.68694019317627,1.3215993642807007,1.5203180313110352,-20.0958251953125,26.85546875,-6.6070556640625
2.6899999,-9.797073364257812,1.1276689767837524,0.8738836050033569,-10.1165771484375,20.8282470703125,-5.615234375
2.7099999,-9.955090522766113,0.7182605266571045,0.2059013396501541,2.44140625,12.8021240234375,-7.0037841796875
2.7299999,-10.105925559997559,0.36152446269989014,-0.3471592366695404,12.725830078125,5.4779052734375,-8.148193359375
2.7499999,-10.165780067443848,0.0694318488240242,-0.5722141861915588,13.031005859375,1.7547607421875,-2.471923828125
2.7699999,-10.146626472473145,-0.09576806426048279,-0.4836287498474121,4.364013671875,4.974365234375,2.1209716796875
2.7899999,-10.11789608001709,-0.10055647045373917,-0.31124621629714966,-1.6632080078125,7.3089599609375,3.96728515625
2.8099999,-10.043676376342773,-0.011971008032560349,-0.08140286058187485,-0.48828125,2.3193359375,6.2255859375
2.8299999,-10.041281700134277,0.21787235140800476,-0.004788403399288654,-0.06103515625,-1.0528564453125,6.4239501953125
2.8499999,-10.012551307678223,0.49320554733276367,0.014365210197865963,-5.3253173828125,-1.4190673828125,5.1727294921875
2.8699999,-10.02452278137207,0.7254431247711182,-0.07661445438861847,-9.2315673828125,-2.2735595703125,2.4261474609375
2.8899999,-10.014945983886719,0.9145850539207458,-0.17238251864910126,-3.9825439453125,-8.1634521484375,0.5950927734375
2.9099999,-10.029311180114746,0.9409212470054626,-0.2561795711517334,3.41796875,-15.3656005859375,3.326416015625
2.9299999,-10.02452278137207,0.8954314589500427,-0.26096799969673157,9.063720703125,-16.6168212890625,0.5950927734375
2.9499999,-10.074800491333008,0.6991068720817566,-0.1628057211637497,13.5955810546875,-17.63916015625,-3.2958984375
2.9699999,-9.988609313964844,0.569819986820221,0.08379705995321274,13.9312744140625,-17.8070068359375,1.3885498046875
2.9899999,-9.93354320526123,0.4572925269603729,0.48602294921875,8.880615234375,-14.923095703125,4.8980712890625
3.0099999,-9.821015357971191,0.5147533416748047,0.9289502501487732,1.9683837890625,-7.6141357421875,2.74658203125
3.0299999,-9.746794700622559,0.7565677165985107,1.3670891523361206,-6.04248046875,0.732421875,1.9378662109375
3.0499999,-9.68694019317627,1.0271124839782715,1.6663644313812256,-11.7645263671875,6.072998046875,0.274658203125
3.0699999,-9.651026725769043,1.2952631711959839,1.8602946996688843,-17.0135498046875,10.2996826171875,-3.173828125
3.0899999,-9.639056205749512,1.3287819623947144,1.702277421951294,-24.932861328125,19.378662109375,-5.0506591796875
3.1099999,-9.742006301879883,1.2210428714752197,1.5131354331970215,-25.20751953125,22.2930908203125,-4.150390625
3.1299999,-9.758766174316406,0.9552865028381348,1.1468225717544556,-22.6593017578125,16.66259765625,-3.2501220703125
3.1499999,-9.950302124023438,0.6584054827690125,0.5913678407669067,-22.0184326171875,14.2822265625,-3.2806396484375
3.1699999,-10.017339706420898,0.3878606855869293,0.06224924325942993,-11.8560791015625,8.575439453125,-1.617431640625
3.1899999,-10.15141487121582,0.1604115068912506,-0.5770025849342346,2.7313232421875,1.4801025390625,-0.885009765625
3.2099999,-10.259154319763184,0.019153613597154617,-1.0893617868423462,19.989013671875,-12.20703125,0.2899169921875
3.2299999,-10.299856185913086,0.004788403399288654,-1.3838485479354858,32.3944091796875,-22.8729248046875,1.617431640625
3.2499999,-10.292673110961914,0.1867477297782898,-1.1635819673538208,32.1197509765625,-27.008056640625,0.9307861328125
3.2699999,-10.137049674987793,0.45250412821769714,-0.5602431893348694,17.9443359375,-23.040771484375,1.5106201171875
3.2899999,-9.914389610290527,0.8092401623725891,0.38546648621559143,-3.72314453125,-11.16943359375,1.6326904296875
3.3099999,-9.799467086791992,1.0271124839782715,1.314416766166687,-14.739990234375,-2.9144287109375,1.190185546875
3.3299999000000002,-9.658209800720215,0.9864110946655273,2.123656988143921,-18.1732177734375,7.7056884765625,1.007080078125
3.3499999,-9.646238327026367,0.8643068075180054,1.9488801956176758,-13.3514404296875,9.9029541015625,1.708984375
3.3699999,-9.75397777557373,0.7852981686592102,1.5394717454910278,-6.6375732421875,12.0697021484375,0.67138671875
3.3899999,-9.785101890563965,0.7493851184844971,1.0869675874710083,-1.4801025390625,11.688232421875,-1.129150390625
3.4099999,-9.8784761428833,0.7757213711738586,0.7422025203704834,-5.645751953125,10.25390625,-3.8604736328125
3.4299999,-9.904812812805176,0.8475474119186401,0.43335050344467163,-14.5111083984375,9.8114013671875,-2.5634765625
3.4499999,-9.940725326538086,0.811634361743927,0.272938996553421,-18.00537109375,10.55908203125,-3.570556640625
3.4699999,-10.065223693847656,0.7134721279144287,0.08858546614646912,-9.033203125,6.5765380859375,-2.5787353515625
3.4899999,-10.113107681274414,0.5003881454467773,-0.16519992053508759,4.8675537109375,0.3509521484375,-4.33349609375
3.5099999,-10.189722061157227,0.2992752194404602,-0.3471592366695404,20.5841064453125,-8.636474609375,-4.9896240234375
3.5299999,-10.192116737365723,0.08858546614646912,-0.5626373887062073,32.5927734375,-16.0675048828125,-1.1138916015625
3.5499999,-10.091560363769531,0.1364694982767105,-0.4668693244457245,35.33935546875,-18.9208984375,0.7476806640625
3.5699999,-9.964667320251465,0.3016694188117981,-0.05027823522686958,22.5372314453125,-16.3421630859375,2.3193359375
3.5899999,-9.837775230407715,0.6416460275650024,0.5817909836769104,-2.3193359375,-8.880615234375,2.99072265625
3.6099999,-9.720458984375,0.950498104095459,1.290474772453308,-23.590087890625,4.5318603515625,0.6561279296875
3.6299999,-9.6989107131958,1.216254472732544,1.8411411046981812,-28.4271240234375,10.772705078125,-1.8463134765625
3.6499999,-9.68694019317627,1.1971008777618408,1.968033790588379,-29.3426513671875,12.02392578125,0.946044921875
3.6699999,-9.751583099365234,0.993593692779541,1.745373010635376,-29.1748046875,15.1214599609375,-0.0762939453125
3.6899999,-9.840168952941895,0.6871358752250671,1.2521674633026123,-16.4642333984375,13.18359375,-1.007080078125
3.7099999,-9.95748519897461,0.31842881441116333,0.545877993106842,1.708984375,8.1939697265625,1.190185546875
3.7299999,-10.06043529510498,0.1628057211637497,0.028730420395731926,15.869140625,-0.9002685546875,4.57763671875
3.7499999,-10.101137161254883,0.16519992053508759,-0.3495534360408783,14.9993896484375,-7.2021484375,2.8076171875
3.7699999,-10.11789608001709,0.31603461503982544,-0.2944868206977844,8.23974609375,-7.965087890625,-0.6866455078125
3.7899999,-10.029311180114746,0.5027823448181152,-0.1149216815829277,0.7781982421875,-5.9051513671875,1.0986328125
3.8099999,-10.010157585144043,0.6943184733390808,0.22026655077934265,0.9765625,-5.2642822265625,3.90625
3.8299999000000002,-9.86889934539795,0.8738836050033569,0.6344634294509888,0.7171630859375,-7.9803466796875,1.9073486328125
3.8499999,-9.818621635437012,1.0031704902648926,1.0031704902648926,-12.02392578125,-0.1373291015625,-2.7008056640625
3.8699999,-9.744400978088379,1.1755530834197998,1.3886369466781616,-30.792236328125,10.5743408203125,-3.753662109375
3.8899999,-9.6989107131958,1.1635819673538208,1.6065093278884888,-37.200927734375,16.1285400390625,-3.0059814453125
3.9099999,-9.749189376831055,1.0654197931289673,1.5418659448623657,-26.4129638671875,17.730712890625,-1.9683837890625
3.9299999,-9.765948295593262,0.8044517636299133,1.2952631711959839,-14.16015625,15.777587890625,-3.753662109375
3.9499999,-9.830592155456543,0.6153098344802856,0.9816226959228516,-12.3748779296875,13.24462890625,-2.8533935546875
3.9699999,-9.864110946655273,0.33758243918418884,0.5147533416748047,-19.500732421875,16.54052734375,-0.640869140625
3.9899999,-9.952696800231934,0.21547815203666687,0.13407529890537262,-10.43701171875,12.054443359375,-1.1444091796875
4.0099999,-10.113107681274414,0.12689268589019775,-0.31603461503982544,7.1563720703125,3.326416015625,1.52587890625
4.029999900000001,-10.192116737365723,0.181959331035614,-0.5793967843055725,12.51220703125,-3.0059814453125,-1.556396484375
4.0499999,-10.266336441040039,0.3280056416988373,-0.7086837291717529,8.2244873046875,-7.2784423828125,-2.9144287109375
4.069999900000001,-10.223240852355957,0.45250412821769714,-0.6488286852836609,10.345458984375,-8.0108642578125,-3.2501220703125
4.0899999000000005,-10.055646896362305,0.6703764796257019,-0.33039984107017517,21.1639404296875,-15.80810546875,-3.082275390625
4.1099999,-10.014945983886719,0.7948749661445618,0.019153613597154617,9.0179443359375,-12.847900390625,0.42724609375
4.1299999000000005,-9.86650562286377,0.8451532125473022,0.524330198764801,-12.1002197265625,-3.143310546875,-2.62451171875
4.1499999,-9.880870819091797,0.7541735172271729,0.7637503147125244,-14.2059326171875,-0.8087158203125,-2.5634765625
4.1699999000000005,-9.96945571899414,0.4812345504760742,0.7374141216278076,-0.213623046875,-5.9051513671875,1.1749267578125
4.1899999,-9.976638793945312,0.18914192914962769,0.3878606855869293,21.026611328125,-14.5111083984375,3.47900390625
4.209999900000001,-10.093954086303711,0.10773907601833344,0.12689268589019775,34.5611572265625,-21.5911865234375,4.6539306640625
4.2299999,-10.041281700134277,0.15083470940589905,-0.035913024097681046,29.0374755859375,-23.162841796875,-0.5950927734375
4.249999900000001,-9.995792388916016,0.42856210470199585,0.19393034279346466,19.04296875,-17.63916015625,0.1983642578125
4.2699999,-9.904812812805176,0.6967126727104187,0.5650315880775452,12.054443359375,-13.0615234375,2.3651123046875
4.289999900000001,-9.849745750427246,0.9433154463768005,1.039083480834961,5.7220458984375,-10.589599609375,2.105712890625
4.3099999,-9.816226959228516,1.1204863786697388,1.4628572463989258,-3.23486328125,-7.2021484375,-2.227783203125
4.329999900000001,-9.773131370544434,1.0845733880996704,1.6400281190872192,-14.9383544921875,2.7923583984375,-4.4097900390625
4.3499999,-9.765948295593262,0.9720458984375,1.7262194156646729,-11.6729736328125,6.5155029296875,-0.9918212890625
4.369999900000001,-9.782708168029785,0.7541735172271729,1.522712230682373,-9.0179443359375,5.5999755859375,2.9296875
4.3899999,-9.751583099365234,0.6368576288223267,1.4652514457702637,-14.862060546875,7.75146484375,0.335693359375
4.409999900000001,-9.806650161743164,0.6200982332229614,1.3862427473068237,-27.0843505859375,16.8609619140625,1.922607421875
4.4299999,-9.75637149810791,0.6200982332229614,1.3000515699386597,-38.51318359375,22.3846435546875,1.739501953125
4.449999900000001,-9.797073364257812,0.7038952708244324,1.170764684677124,-29.5562744140625,21.4996337890625,-0.4119873046875
4.4699999,-9.923966407775879,0.6009446382522583,0.7469909191131592,-16.204833984375,15.472412109375,-0.79345703125
4.489999900000001,-9.926360130310059,0.7589619159698486,0.6919242739677429,-9.796142578125,11.627197265625,-3.570556640625
4.5099999,-9.928754806518555,0.8355764150619507,0.5722141861915588,-28.62548828125,17.3492431640625,-2.25830078125
4.529999900000001,-9.895236015319824,0.8762778043746948,0.5123591423034668,-45.4559326171875,27.923583984375,-5.9051513671875
4.5499999,-9.873687744140625,0.7086837291717529,0.21787235140800476,-25.1007080078125,18.2952880859375,-6.7596435546875
4.569999900000001,-10.046070098876953,0.3471592366695404,-0.4596867263317108,12.176513671875,-1.3885498046875,-3.5247802734375
4.5899999000000005,-10.204087257385254,0.05985504388809204,-1.0103530883789062,35.614013671875,-14.984130859375,-0.54931640625
4.609999900000001,-10.307038307189941,-0.040701430290937424,-1.173158884048462,26.824951171875,-18.1427001953125,-0.4730224609375
4.6299999000000005,-10.285490036010742,0.0454898327589035,-0.9528923034667969,9.8114013671875,-12.4969482421875,-3.1585693359375
4.6499999,-10.204087257385254,0.21308395266532898,-0.4357447028160095,14.617919921875,-15.0604248046875,-0.732421875
4.6699999000000005,-10.017339706420898,0.272938996553421,0.24660277366638184,22.430419921875,-21.3775634765625,3.1280517578125
4.6899999,-9.938331604003906,0.40462008118629456,0.8259995579719543,7.62939453125,-9.6435546875,3.2501220703125
4.709999900000001,-9.730035781860352,0.6009446382522583,1.5610195398330688,-16.41845703125,3.0517578125,5.5694580078125
4.7299999,-9.703699111938477,0.8044517636299133,1.7693150043487549,-35.94970703125,13.9617919921875,3.3416748046875
4.749999900000001,-9.780313491821289,0.8403648138046265,1.625662922859192,-25.2838134765625,7.14111328125,1.2664794921875
4.7699999,-9.911994934082031,0.6320692300796509,0.8475474119186401,0.5645751953125,-7.6904296875,0.9918212890625
4.789999900000001,-10.158597946166992,0.35913026332855225,-0.035913024097681046,21.7132568359375,-14.923095703125,3.9520263671875
4.8099999,-10.18493366241455,0.2298433631658554,-0.569819986820221,33.447265625,-26.1993408203125,7.049560546875
4.829999900000001,-10.165780067443848,0.31842881441116333,-0.5554547905921936,23.74267578125,-25.665283203125,1.9073486328125
4.8499999,-10.022128105163574,0.6129156351089478,0.10534487664699554,12.939453125,-17.333984375,-2.99072265625
4.869999900000001,-9.816226959228516,0.9241618514060974,1.0797849893569946,-4.425048828125,-7.5531005859375,-3.021240234375
4.8899999,-9.660603523254395,1.1252747774124146,2.0374655723571777,-28.4576416015625,11.962890625,0.396728515625
4.909999900000001,-9.579200744628906,1.139639973640442,2.4420857429504395,-31.463623046875,20.904541015625,1.953125
4.9299999,-9.610325813293457,0.8930372595787048,2.279279947280884,-15.5487060546875,16.845703125,-0.152587890625
4.949999900000001,-9.75397777557373,0.5961562395095825,1.5394717454910278,12.6190185546875,1.4801025390625,-2.3040771484375
4.9699999,-9.923966407775879,0.2968810200691223,0.6823474764823914,28.564453125,-6.866455078125,-4.1046142578125
4.989999900000001,-10.074800491333008,0.23702596127986908,-0.0071826050989329815,33.4014892578125,-10.43701171875,-3.692626953125
5.0099999,-10.098742485046387,0.33518823981285095,-0.2944868206977844,29.8614501953125,-15.472412109375,-3.2196044921875
5.029999900000001,-10.065223693847656,0.5985504388809204,-0.05985504388809204,18.5699462890625,-15.4571533203125,-6.53076171875
5.0499999,-9.943120002746582,0.7781155705451965,0.5530605912208557,3.4942626953125,-8.575439453125,-6.65283203125
5.069999900000001,-9.799467086791992,0.8212111592292786,1.3455413579940796,-16.7388916015625,3.7994384765625,-4.669189453125
5.0899999000000005,-9.744400978088379,0.730231523513794,1.8722656965255737,-27.83203125,17.0745849609375,0.79345703125
5.109999900000001,-9.730035781860352,0.4812345504760742,1.941697597503662,-18.6767578125,15.4571533203125,5.9051513671875
5.1299999000000005,-9.77791976928711,0.3016694188117981,1.6615760326385498,-2.7313232421875,4.852294921875,6.1187744140625
5.1499999,-9.919178009033203,0.17956513166427612,0.9911994934082031,7.1563720703125,0.06103515625,2.74658203125
5.1699999000000005,-10.038887977600098,0.22744916379451752,0.42616790533065796,15.44189453125,-1.251220703125,-1.40380859375
5.1899999,-10.127472877502441,0.5003881454467773,0.023942016065120697,25.1617431640625,-11.5203857421875,-0.5950927734375
5.209999900000001,-10.08437728881836,0.7158663272857666,0.033518824726343155,18.2647705078125,-14.404296875,-3.7384033203125
5.2299999,-9.995792388916016,0.950498104095459,0.3926490843296051,-0.06103515625,-7.8887939453125,-5.9967041015625
5.249999900000001,-9.847352027893066,0.9433154463768005,1.015141487121582,-18.890380859375,3.3721923828125,-3.9215087890625
5.2699999,-9.758766174316406,0.6799532771110535,1.403002142906189,-20.9503173828125,10.25390625,2.7313232421875
5.289999900000001,-9.816226959228516,0.3687070608139038,1.4915876388549805,-4.1351318359375,5.31005859375,6.16455078125
5.3099999,-9.871294021606445,0.1388636976480484,1.213860273361206,11.688232421875,-2.899169921875,5.7525634765625
5.329999900000001,-9.955090522766113,0.0454898327589035,0.7876923680305481,17.4407958984375,-6.744384765625,3.9825439453125
5.3499999,-9.998186111450195,0.2849099934101105,0.5650315880775452,17.913818359375,-7.598876953125,1.9378662109375
5.369999900000001,-9.907206535339355,0.5722141861915588,0.586579442024231,10.1165771484375,-6.9732666015625,1.77001953125
5.3899999,-9.876082420349121,0.8667010068893433,0.8523358106613159,-7.7972412109375,1.9989013671875,-2.8076171875
5.409999900000001,-9.785101890563965,1.0414776802062988,1.2713210582733154,-19.1802978515625,8.544921875,-2.3651123046875
5.4299999,-9.744400978088379,0.993593692779541,1.6376339197158813,-21.3623046875,11.7340087890625,0.9002685546875
5.449999900000001,-9.72285270690918,0.8595184087753296,1.7549498081207275,-21.1334228515625,16.0675048828125,3.2196044921875
5.4699999,-9.720458984375,0.6320692300796509,1.6160861253738403,-15.0909423828125,17.6544189453125,2.38037109375
5.489999900000001,-9.773131370544434,0.42856210470199585,1.2761094570159912,-4.8828125,13.36669921875,1.708984375
5.5099999,-9.859322547912598,0.4118026793003082,0.8164227604866028,-2.74658203125,9.5672607421875,4.9285888671875
5.529999900000001,-10.000580787658691,0.5003881454467773,0.3663128614425659,-10.0860595703125,7.8887939453125,4.2572021484375
5.5499999,-10.070012092590332,0.6584054827690125,0.06224924325942993,-15.625,0.762939453125,-0.946044921875
5.569999900000001,-10.065223693847656,0.8379706144332886,0.019153613597154617,-9.6893310546875,-4.08935546875,-4.8675537109375
5.5899999000000005,-9.986215591430664,0.8595184087753296,0.4213795065879822,-5.767822265625,-0.79345703125,-4.33349609375
5.609999900000001,-9.998186111450195,0.8068459630012512,0.7996633648872375,-14.312744140625,8.453369140625,-1.4190673828125
5.6299999000000005,-9.8784761428833,0.6847416758537292,1.2425906658172607,-15.228271484375,13.458251953125,-1.678466796875
5.6499999,-9.995792388916016,0.569819986820221,1.2042834758758545,-9.6435546875,12.6800537109375,-1.708984375
5.6699999000000005,-9.943120002746582,0.4884171485900879,0.9074024558067322,3.47900390625,2.3345947265625,-3.326416015625
5.6899999,-10.012551307678223,0.3663128614425659,0.3471592366695404,11.2762451171875,0.1678466796875,-3.0670166015625
5.709999900000001,-10.096348762512207,0.33997663855552673,-0.20111294090747833,21.8963623046875,-7.8887939453125,-2.44140625
5.7299999,-10.096348762512207,0.3711012601852417,-0.45250412821769714,35.614013671875,-22.369384765625,-5.157470703125
5.749999900000001,-10.070012092590332,0.5195417404174805,-0.2753331959247589,36.92626953125,-24.3377685546875,-4.3792724609375
5.7699999,-9.971850395202637,0.6967126727104187,0.3758896589279175,13.7939453125,-10.8489990234375,-6.1187744140625
5.789999900000001,-9.782708168029785,0.790086567401886,1.3503297567367554,-16.17431640625,4.638671875,-4.5623779296875
5.8099999,-9.66539192199707,0.7206547260284424,2.0446481704711914,-30.8685302734375,15.56396484375,0.7781982421875
5.829999900000001,-9.727641105651855,0.47405192255973816,2.0638017654418945,-28.7322998046875,20.751953125,7.965087890625
5.8499999,-9.758766174316406,0.2346317619085312,1.53707754611969,-5.1116943359375,2.6092529296875,7.87353515625
5.869999900000001,-10.036493301391602,0.12689268589019775,0.5267243981361389,17.0745849609375,-8.4228515625,4.150390625
5.8899999,-10.098742485046387,0.20350714027881622,-0.26575639843940735,31.5704345703125,-20.9197998046875,0.42724609375
5.909999900000001,-10.182539939880371,0.4908113479614258,-0.42856210470199585,34.881591796875,-25.6805419921875,-3.0059814453125
5.9299999,-9.976638793945312,0.8690952062606812,0.22266076505184174,14.007568359375,-17.1661376953125,-1.1138916015625
5.949999900000001,-9.818621635437012,1.1875240802764893,1.1635819673538208,-25.0244140625,11.871337890625,-4.8980712890625
5.9699999,-9.619902610778809,1.2952631711959839,2.1739351749420166,-38.2080078125,20.660400390625,-6.072998046875
5.989999900000001,-9.548076629638672,1.1109095811843872,2.5450363159179688,-33.0963134765625,25.08544921875,-2.685546875
6.0099999,-9.624691009521484,0.7565677165985107,2.2361843585968018,-21.0723876953125,24.322509765625,1.953125
6.029999900000001,-9.854534149169922,0.3016694188117981,1.1851298809051514,-5.2642822265625,15.7623291015625,1.5106201171875
6.0499999,-10.129867553710938,0.023942016065120697,-0.15083470940589905,18.4783935546875,-4.791259765625,1.3580322265625
6.069999900000001,-10.247182846069336,-0.023942016065120697,-1.1468225717544556,46.7529296875,-36.1175537109375,-0.6103515625
6.0899999000000005,-10.304644584655762,0.14604631066322327,-1.2665326595306396,48.03466796875,-36.346435546875,-7.99560546875
6.109999900000001,-10.165780067443848,0.43095630407333374,-0.4405331015586853,14.6942138671875,-14.5111083984375,-4.608154296875
6.1299999000000005,-9.9000244140625,0.730231523513794,1.1037269830703735,-21.3775634765625,5.79833984375,4.241943359375
6.149999900000001,-9.696516990661621,0.9097966551780701,2.3535003662109375,-40.0238037109375,18.12744140625,2.8076171875
6.1699999000000005,-9.622296333312988,0.9265560507774353,2.8802247047424316,-43.9910888671875,29.388427734375,0.5950927734375
6.1899999,-9.557653427124023,0.7589619159698486,2.499546527862549,-36.9110107421875,26.18408203125,2.349853515625
6.209999900000001,-9.797073364257812,0.524330198764801,1.3934253454208374,-18.096923828125,12.75634765625,4.852294921875
6.2299999,-9.971850395202637,0.27054479718208313,0.033518824726343155,16.143798828125,-9.6435546875,4.0130615234375
6.249999900000001,-10.110713958740234,0.12928688526153564,-0.8978256583213806,47.2564697265625,-28.4576416015625,-1.983642578125
6.2699999,-10.165780067443848,0.21547815203666687,-0.9624691009521484,48.370361328125,-28.62548828125,-3.3416748046875
6.289999900000001,-9.926360130310059,0.4692635238170624,0.011971008032560349,12.14599609375,-9.002685546875,-0.8544921875
6.3099999,-9.854534149169922,0.751779317855835,1.2306196689605713,-33.7371826171875,18.5546875,1.15966796875
6.329999900000001,-9.634267807006836,0.9600749015808105,2.1739351749420166,-47.3175048828125,29.11376953125,3.143310546875
6.3499999,-9.72285270690918,1.0319008827209473,2.2457611560821533,-28.6712646484375,18.9056396484375,-0.5645751953125
6.369999900000001,-9.75397777557373,0.8690952062606812,1.5442601442337036,-6.256103515625,7.4615478515625,-2.74658203125
6.3899999,-9.967061996459961,0.730231523513794,0.6703764796257019,12.75634765625,-4.8675537109375,-2.7923583984375
6.409999900000001,-9.940725326538086,0.5267243981361389,0.17956513166427612,16.9525146484375,-11.4593505859375,-5.0201416015625
6.4299999,-10.014945983886719,0.42377370595932007,0.2561795711517334,-2.3651123046875,-0.06103515625,-2.9144287109375
6.449999900000001,-9.928754806518555,0.3208230137825012,0.5482721924781799,-31.5093994140625,15.289306640625,2.6092529296875
6.4699999,-9.988609313964844,0.2537853717803955,0.8068459630012512,-35.125732421875,16.3726806640625,6.7596435546875
6.489999900000001,-9.998186111450195,0.21547815203666687,0.689530074596405,-13.031005859375,3.0975341796875,4.5318603515625
6.5099999,-10.103530883789062,0.21547815203666687,0.2513911724090576,3.753662109375,-5.5084228515625,2.3345947265625
6.529999900000001,-10.098742485046387,0.3711012601852417,0.040701430290937424,12.0849609375,-11.749267578125,1.46484375
6.5499999,-10.010157585144043,0.5889736413955688,0.3208230137825012,8.8653564453125,-11.8255615234375,1.861572265625
6.569999900000001,-9.849745750427246,0.7422025203704834,0.9433154463768005,-14.34326171875,5.859375,-0.0152587890625
6.5899999000000005,-9.75397777557373,0.8355764150619507,1.577778935432434,-38.421630859375,26.1383056640625,2.99072265625
6.609999900000001,-9.78989028930664,0.8020575642585754,1.5610195398330688,-36.7889404296875,27.2979736328125,6.7291259765625
6.6299999000000005,-9.799467086791992,0.6607996821403503,1.0749965906143188,-7.32421875,4.1351318359375,-0.3814697265625
6.649999900000001,-10.031704902648926,0.49799394607543945,0.1388636976480484,20.9503173828125,-8.48388671875,-4.94384765625
6.6699999000000005,-10.053253173828125,0.45489832758903503,-0.4908113479614258,37.6739501953125,-16.0064697265625,-1.4495849609375
6.6899999,-10.04846477508545,0.4596867263317108,-0.3878606855869293,38.5284423828125,-20.050048828125,-3.90625
6.709999900000001,-9.952696800231934,0.6009446382522583,0.24660277366638184,12.1917724609375,-5.279541015625,-7.62939453125
6.7299999,-9.828198432922363,0.6751648783683777,1.1276689767837524,-18.951416015625,16.11328125,-1.40380859375
6.749999900000001,-9.794678688049316,0.7829039692878723,1.644816517829895,-33.5540771484375,25.08544921875,4.9285888671875
6.7699999,-9.75397777557373,0.7445967197418213,1.558625340461731,-22.979736328125,13.7786865234375,1.983642578125
6.789999900000001,-9.873687744140625,0.667982280254364,0.9696516990661621,-6.1492919921875,4.94384765625,-3.8909912109375
6.8099999,-10.050858497619629,0.5315127968788147,0.06703764945268631,9.521484375,-3.0670166015625,-2.01416015625
6.829999900000001,-10.04846477508545,0.33518823981285095,-0.3064578175544739,26.4434814453125,-18.951416015625,-1.15966796875
6.8499999,-10.14902114868164,0.1604115068912506,-0.35913026332855225,21.636962890625,-17.8680419921875,-3.204345703125
6.869999900000001,-10.065223693847656,0.0454898327589035,0.1412578970193863,2.5787353515625,-2.13623046875,4.8065185546875
6.8899999,-9.995792388916016,0.11252748221158981,0.7541735172271729,-13.48876953125,5.7373046875,10.8184814453125
6.909999900000001,-9.938331604003906,0.40462008118629456,1.1635819673538208,-18.707275390625,6.5155029296875,11.2152099609375
6.9299999,-9.895236015319824,0.751779317855835,1.192312479019165,-17.974853515625,4.6234130859375,1.5106201171875
6.949999900000001,-9.840168952941895,1.0845733880996704,0.9768342971801758,-11.688232421875,2.197265625,-3.509521484375
6.9699999,-9.847352027893066,1.237802267074585,0.7661445140838623,-0.1068115234375,-2.349853515625,-3.4637451171875
6.989999900000001,-9.734824180603027,1.0869675874710083,0.8738836050033569,0.0457763671875,-1.617431640625,-6.7596435546875
7.0099999,-9.691728591918945,0.8403648138046265,1.137245774269104,-13.2293701171875,12.664794921875,-4.425048828125
7.029999900000001,-9.516951560974121,0.7326257228851318,1.4676456451416016,-29.6173095703125,26.4434814453125,4.3792724609375
7.0499999,-8.949525833129883,0.912190854549408,1.1252747774124146,-49.31640625,22.064208984375,-11.0321044921875
7.069999900000001,-8.820239067077637,0.6272808313369751,0.28730419278144836,-24.4903564453125,16.357421875,-16.754150390625
7.0899999000000005,-8.746018409729004,-0.09576806426048279,-0.7445967197418213,25.665283203125,-5.8746337890625,0.79345703125
7.109999900000001,-8.583212852478027,-0.9744400978088379,-1.3431471586227417,71.22802734375,-29.296875,19.9432373046875
7.1299999000000005,-8.473079681396484,-1.4221558570861816,-1.1180921792984009,84.197998046875,-31.18896484375,21.9268798828125
7.149999900000001,-9.114726066589355,-0.811634361743927,-0.3256114423274994,53.7567138671875,-2.166748046875,17.486572265625
7.1699999000000005,-9.983820915222168,0.608127236366272,0.6416460275650024,9.2315673828125,21.697998046875,7.4920654296875
7.1899999,-11.295844078063965,2.3487119674682617,1.292868971824646,-19.4244384765625,11.6424560546875,-12.1612548828125
7.209999900000001,-12.054805755615234,3.141192674636841,1.4437036514282227,-38.055419921875,3.7078857421875,-29.388427734375
7.2299999,-12.172121047973633,2.6216509342193604,0.8188169598579407,-43.060302734375,21.17919921875,-26.5045166015625
7.249999900000001,-11.686098098754883,1.1516109704971313,0.05746084079146385,-10.43701171875,-0.67138671875,5.859375
7.2699999,-11.111490249633789,-0.5793967843055725,-0.3423708379268646,32.5164794921875,-40.58837890625,34.820556640625
7.289999900000001,-10.584765434265137,-1.290474772453308,-0.2801215946674347,33.355712890625,-27.679443359375,32.89794921875
7.3099999,-10.007762908935547,-1.0797849893569946,0.3232172429561615,11.3525390625,7.7056884765625,15.106201171875
7.329999900000001,-9.66299819946289,-0.10534487664699554,1.0821791887283325,10.07080078125,20.263671875,7.232666015625
7.3499999,-9.461885452270508,0.9193734526634216,1.2090718746185303,20.7672119140625,5.8135986328125,0.5035400390625
7.369999900000001,-9.536105155944824,1.6400281190872192,0.9026140570640564,21.392822265625,-2.6397705078125,-5.3558349609375
7.3899999,-9.720458984375,1.944091796875,0.47644615173339844,16.7694091796875,-3.2196044921875,-8.7890625
7.409999900000001,-9.84495735168457,1.8124107122421265,0.2561795711517334,10.955810546875,-1.373291015625,-8.7432861328125
7.4299999,-9.931148529052734,1.414973258972168,0.2753331959247589,4.2877197265625,1.3427734375,-4.608154296875
7.449999900000001,-9.943120002746582,1.0199298858642578,0.40940847992897034,-3.35693359375,10.07080078125,-2.44140625
7.4699999,-10.012551307678223,0.7206547260284424,0.44532153010368347,-5.6610107421875,8.5906982421875,2.044677734375
7.489999900000001,-9.964667320251465,0.6009446382522583,0.5434837937355042,3.082275390625,-0.701904296875,0.152587890625
7.5099999,-9.981427192687988,0.5530605912208557,0.4908113479614258,6.103515625,0.1220703125,-3.11279296875
7.529999900000001,-9.988609313964844,0.545877993106842,0.4405331015586853,5.3863525390625,5.218505859375,-1.0833740234375
7.5499999,-9.979032516479492,0.5937620401382446,0.3926490843296051,7.568359375,1.678466796875,1.4801025390625
7.569999900000001,-9.974244117736816,0.7134721279144287,0.3423708379268646,6.1187744140625,-2.6397705078125,0.213623046875
7.5899999000000005,-9.952696800231934,0.8475474119186401,0.29209262132644653,0.396728515625,-0.8392333984375,-3.173828125
7.609999900000001,-9.959878921508789,0.9648633003234863,0.27054479718208313,-1.312255859375,0.732421875,-4.669189453125
7.6299999000000005,-9.940725326538086,0.9552865028381348,0.3208230137825012,2.288818359375,-3.6163330078125,-3.90625
7.649999900000001,-9.931148529052734,0.8427590131759644,0.3902548849582672,3.96728515625,-3.41796875,-3.1280517578125
7.6699999000000005,-9.931148529052734,0.7038952708244324,0.5171475410461426,2.899169921875,2.4871826171875,-1.7547607421875
7.6899999,-9.919178009033203,0.6129156351089478,0.6153098344802856,4.2724609375,5.9356689453125,0.30517578125
7.709999900000001,-9.904812812805176,0.629675030708313,0.608127236366272,9.3841552734375,3.1280517578125,-0.06103515625
7.7299999,-9.926360130310059,0.7374141216278076,0.47644615173339844,10.7269287109375,-1.312255859375,-3.4942626953125
7.749999900000001,-9.943120002746582,0.8619126081466675,0.3519476354122162,6.4544677734375,-3.5247802734375,-7.6751708984375
7.7699999,-9.955090522766113,0.9289502501487732,0.28969839215278625,1.4190673828125,-1.953125,-8.453369140625
7.789999900000001,-9.967061996459961,0.8619126081466675,0.28730419278144836,-0.885009765625,-0.701904296875,-6.9580078125
7.8099999,-9.947908401489258,0.7134721279144287,0.3495534360408783,0.030517578125,-1.8310546875,-4.058837890625
7.829999900000001,-9.93354320526123,0.5746083855628967,0.4405331015586853,0.8544921875,-1.64794921875,-1.03759765625
7.8499999,-9.914389610290527,0.5027823448181152,0.5123591423034668,-0.7781982421875,1.9378662109375,-0.7171630859375
7.869999900000001,-9.928754806518555,0.5123591423034668,0.5123591423034668,-0.8544921875,3.509521484375,-2.7923583984375
7.8899999,-9.931148529052734,0.5889736413955688,0.5051765441894531,1.6326904296875,-0.7781982421875,-4.364013671875
7.909999900000001,-9.947908401489258,0.6871358752250671,0.4213795065879822,-1.6632080078125,-3.7689208984375,-5.1116943359375
7.9299999,-9.967061996459961,0.7398083209991455,0.3758896589279175,-11.4288330078125,-1.9683837890625,-4.669189453125
7.949999900000001,-9.971850395202637,0.7206547260284424,0.33039984107017517,-19.6075439453125,0.0457763671875,-1.6326904296875
7.9699999,-9.986215591430664,0.5674257874488831,0.3758896589279175,-17.8375244140625,-2.3956298828125,1.1749267578125
7.989999900000001,-9.99339771270752,0.3974374830722809,0.4620809257030487,-9.9334716796875,-1.0833740234375,5.31005859375
8.0099999,-9.952696800231934,0.2298433631658554,0.5746083855628967,2.532958984375,3.509521484375,4.8065185546875
8.0299999,-9.919178009033203,0.12449848651885986,0.6799532771110535,15.869140625,5.1727294921875,3.0364990234375
8.049999900000001,-9.883264541625977,0.12210428714752197,0.4644751250743866,25.4974365234375,1.495361328125,2.716064453125
8.069999900000001,-9.921571731567383,0.22505496442317963,0.42856210470199585,33.8897705078125,-10.4217529296875,3.8909912109375
8.0899999,-9.93354320526123,0.3974374830722809,0.33279404044151306,29.1595458984375,-7.4920654296875,3.7841796875
8.1099999,-9.962273597717285,0.7541735172271729,0.5171475410461426,16.754150390625,3.11279296875,3.6163330078125
8.129999900000001,-9.907206535339355,1.1061211824417114,0.7445967197418213,6.2408447265625,9.3994140625,-2.62451171875
8.149999900000001,-9.907206535339355,1.3455413579940796,0.751779317855835,5.828857421875,7.50732421875,-10.0555419921875
8.1699999,-9.938331604003906,1.381454348564148,0.4381389021873474,11.6729736328125,-1.28173828125,-13.24462890625
8.1899999,-10.010157585144043,1.2186486721038818,0.08858546614646912,17.791748046875,-14.495849609375,-11.5814208984375
8.2099999,-10.074800491333008,0.9169792532920837,-0.12210428714752197,14.95361328125,-19.3023681640625,-10.3302001953125
8.229999900000001,-10.06043529510498,0.545877993106842,0.040701430290937424,5.7373046875,-11.9171142578125,-7.1258544921875
8.2499999,-10.000580787658691,0.23942017555236816,0.4596867263317108,-3.173828125,-2.1820068359375,0.885009765625
8.2699999,-9.849745750427246,-0.023942016065120697,0.9265560507774353,-7.4462890625,5.06591796875,7.99560546875
8.2899999,-9.861717224121094,-0.05506663769483566,1.1444283723831177,-5.950927734375,8.3465576171875,10.6048583984375
8.309999900000001,-9.801861763000488,0.05985504388809204,1.0127472877502441,1.678466796875,4.9591064453125,7.2021484375
8.3299999,-9.90241813659668,0.40462008118629456,0.6799532771110535,14.6331787109375,-4.0283203125,1.3275146484375
8.3499999,-9.943120002746582,0.768538773059845,0.4429273009300232,19.6075439453125,-10.2081298828125,-5.1727294921875
8.3699999,-9.95748519897461,1.0462661981582642,0.38307225704193115,8.6212158203125,-3.7841796875,-8.30078125
8.389999900000001,-9.947908401489258,1.1444283723831177,0.45010992884635925,-4.3182373046875,5.2032470703125,-7.6446533203125
8.4099999,-9.940725326538086,1.0606313943862915,0.5626373887062073,-5.5694580078125,1.495361328125,-6.011962890625
8.4299999,-9.93593692779541,0.7374141216278076,0.5937620401382446,-0.1220703125,-4.6539306640625,-5.0506591796875
8.4499999,-9.974244117736816,0.4357447028160095,0.5961562395095825,3.5400390625,-2.44140625,0.3814697265625
8.469999900000001,-9.979032516479492,0.14604631066322327,0.7422025203704834,4.0283203125,2.0294189453125,5.5084228515625
8.4899999,-9.974244117736816,0.009576806798577309,0.8810662031173706,3.204345703125,7.4462890625,7.4615478515625
8.5099999,-9.938331604003906,0.021547814831137657,0.8834604024887085,4.1961669921875,8.7127685546875,8.514404296875
8.5299999,-9.943120002746582,0.1364694982767105,0.7733271718025208,10.101318359375,4.0740966796875,7.354736328125
8.549999900000001,-9.950302124023438,0.23942017555236816,0.5315127968788147,15.411376953125,-0.91552734375,7.8887939453125
8.569999900000001,-9.976638793945312,0.3878606855869293,0.3711012601852417,14.129638671875,-3.509521484375,11.7340087890625
8.5899999,-10.005369186401367,0.5434837937355042,0.3016694188117981,8.9263916015625,-1.5106201171875,13.763427734375
8.6099999,-10.067618370056152,0.646434485912323,0.24899697303771973,10.9710693359375,0.79345703125,10.3302001953125
8.629999900000001,-10.053253173828125,0.8619126081466675,0.23702596127986908,27.7252197265625,-2.0294189453125,4.94384765625
8.649999900000001,-10.053253173828125,0.9217676520347595,0.2106897532939911,43.2586669921875,-14.007568359375,7.4920654296875
8.6699999,-10.014945983886719,1.0462661981582642,0.363918662071228,43.5943603515625,-13.5498046875,1.7242431640625
8.6899999,-9.99100399017334,1.094150185585022,0.21787235140800476,39.947509765625,-1.3580322265625,-3.0517578125
8.709999900000001,-9.93593692779541,1.0989385843276978,0.43335050344467163,56.0150146484375,-16.4794921875,-6.8817138671875
8.729999900000001,-9.959878921508789,1.1324573755264282,0.5937620401382446,54.9468994140625,-20.3094482421875,-6.9122314453125
8.7499999,-9.840168952941895,1.0678139925003052,1.0773907899856567,39.0625,-0.9307861328125,-3.4942626953125
8.7699999,-9.823410034179688,1.0630255937576294,1.6496049165725708,19.012451171875,19.71435546875,-2.227783203125
8.7899999,-9.6989107131958,1.0079588890075684,1.920149803161621,2.685546875,28.9154052734375,0.762939453125
8.809999900000001,-9.883264541625977,0.8547300100326538,1.1635819673538208,4.7454833984375,26.30615234375,1.0528564453125
8.8299999,-10.04846477508545,0.727837324142456,0.05506663769483566,40.618896484375,-11.932373046875,-4.2572021484375
8.8499999,-10.187328338623047,0.6009446382522583,-0.8020575642585754,64.1937255859375,-49.163818359375,-0.4119873046875
8.8699999,-10.108319282531738,0.7110779285430908,-0.7613561153411865,45.5169677734375,-27.4200439453125,1.220703125
8.889999900000001,-9.916783332824707,0.9600749015808105,0.14365209639072418,14.5111083984375,5.9814453125,1.77001953125
8.9099999,-9.62947940826416,1.2449848651885986,1.1899182796478271,-2.0904541015625,22.4761962890625,-2.716064453125
8.9299999,-9.648633003234863,1.4053963422775269,1.702277421951294,-4.486083984375,16.1895751953125,-4.3792724609375
8.9499999,-9.86889934539795,1.3287819623947144,1.4772224426269531,-6.0577392578125,9.979248046875,-1.5716552734375
8.969999900000001,-10.180145263671875,1.194706678390503,1.0773907899856567,-9.7503662109375,5.6610107421875,-0.9613037109375
8.9899999,-10.29746150970459,0.9624691009521484,0.608127236366272,-16.998291015625,10.528564453125,2.9144287109375
9.0099999,-10.309432983398438,0.8762778043746948,0.28730419278144836,-15.2587890625,9.1705322265625,5.9051513671875
9.0299999,-10.122684478759766,0.7374141216278076,-0.10773907601833344,-5.8746337890625,-0.42724609375,0.0457763671875
9.049999900000001,-10.007762908935547,0.6488286852836609,-0.40701428055763245,8.453369140625,-11.0626220703125,-0.213623046875
9.069999900000001,-9.945513725280762,0.6488286852836609,-0.2801215946674347,15.899658203125,-21.759033203125,0.3204345703125
9.0899999,-9.854534149169922,0.6919242739677429,0.0933738648891449,4.2724609375,-6.7596435546875,3.0517578125
9.1099999,-9.770736694335938,0.8523358106613159,0.6177040338516235,-7.62939453125,12.8631591796875,6.8206787109375
9.129999900000001,-9.732429504394531,0.9768342971801758,0.7924807667732239,-1.983642578125,9.796142578125,-0.6256103515625
9.149999900000001,-9.75397777557373,1.0007762908935547,0.7326257228851318,16.204833984375,-10.0555419921875,-6.6070556640625
9.1699999,-9.945513725280762,0.9888052940368652,0.6177040338516235,19.3023681640625,-13.5040283203125,-2.9754638671875
9.1899999,-9.955090522766113,0.9074024558067322,0.751779317855835,3.631591796875,-0.5645751953125,4.4097900390625
9.209999900000001,-9.943120002746582,0.9481038451194763,1.0103530883789062,-9.857177734375,13.641357421875,7.659912109375
9.229999900000001,-9.84495735168457,1.0319008827209473,1.0582371950149536,-4.5013427734375,13.7939453125,-0.274658203125
9.2499999,-9.806650161743164,1.0079588890075684,0.7493851184844971,8.0108642578125,1.953125,-4.241943359375
9.2699999,-10.08437728881836,1.0534487962722778,0.4189853072166443,17.120361328125,-8.5601806640625,-4.7607421875
9.2899999,-10.180145263671875,0.9672574996948242,0.28969839215278625,10.19287109375,-4.2724609375,-1.7547607421875
9.309999900000001,-10.158597946166992,1.0007762908935547,0.3926490843296051,-5.9967041015625,9.307861328125,7.0648193359375
9.3299999,-9.974244117736816,1.0989385843276978,0.5051765441894531,-10.3912353515625,11.2152099609375,0.6256103515625
9.3499999,-9.725247383117676,1.070208191871643,0.3064578175544739,-0.335693359375,3.23486328125,-8.2550048828125
9.3699999,-9.782708168029785,1.0749965906143188,0.1412578970193863,13.0615234375,-12.237548828125,-8.11767578125
9.389999900000001,-10.089165687561035,0.9744400978088379,0.11013327538967133,11.2152099609375,-14.2822265625,-6.89697265625
9.4099999,-10.216058731079102,0.8930372595787048,0.4118026793003082,-3.509521484375,0.1220703125,2.471923828125
9.4299999,-10.26394271850586,0.9481038451194763,0.8379706144332886,-13.36669921875,10.7269287109375,7.232666015625
9.4499999,-10.000580787658691,1.0007762908935547,1.1348515748977661,-12.939453125,11.3677978515625,-4.150390625
9.469999900000001,-9.792284965515137,1.0223240852355957,1.05105459690094,-11.9781494140625,10.7574462890625,-4.4097900390625
9.4899999,-9.928754806518555,1.039083480834961,0.8762778043746948,-8.85009765625,6.53076171875,-6.011962890625
9.5099999,-10.029311180114746,0.9193734526634216,0.5482721924781799,-9.1094970703125,3.448486328125,-6.805419921875
9.5299999,-10.29746150970459,0.8810662031173706,0.3232172429561615,-8.60595703125,8.392333984375,2.3345947265625
9.549999900000001,-10.371682167053223,0.8331822156906128,0.12210428714752197,-3.4942626953125,-0.030517578125,-1.617431640625
9.569999900000001,-10.340557098388672,0.8475474119186401,0.016759412363171577,0.79345703125,-3.11279296875,-6.195068359375
9.5899999,-10.474632263183594,0.8643068075180054,-0.014365210197865963,1.8157958984375,-4.547119140625,-7.8582763671875
9.6099999,-10.520122528076172,0.9026140570640564,0.019153613597154617,3.3111572265625,-3.84521484375,-13.3819580078125
9.629999900000001,-10.687716484069824,0.9193734526634216,0.11971008777618408,4.913330078125,-2.5634765625,-8.697509765625
9.649999900000001,-10.747570991516113,0.9097966551780701,0.22026655077934265,5.279541015625,-4.2877197265625,-8.026123046875
9.6699999,-10.757147789001465,0.8978256583213806,0.35913026332855225,6.2103271484375,-0.396728515625,-15.7928466796875
9.6899999,-10.690110206604004,0.811634361743927,0.47644615173339844,4.8828125,-2.62451171875,-20.660400390625
9.709999900000001,-10.508151054382324,0.7398083209991455,0.7733271718025208,-1.1749267578125,-10.772705078125,-19.317626953125
9.729999900000001,-10.165780067443848,0.7254431247711182,1.0295066833496094,-18.096923828125,-7.9803466796875,-11.1541748046875
9.7499999,-9.742006301879883,0.6607996821403503,1.2689268589019775,-39.306640625,8.7738037109375,2.0294189453125
9.7699999,-9.342175483703613,0.6536170840263367,1.3000515699386597,-41.7327880859375,21.7437744140625,12.176513671875
9.7899999,-9.081207275390625,0.5147533416748047,1.0630255937576294,-33.5540771484375,22.1099853515625,12.6800537109375
9.809999900000001,-9.028534889221191,0.36152446269989014,0.6440402865409851,-24.4903564453125,21.6827392578125,7.6141357421875
9.8299999,-9.117119789123535,0.19871874153614044,0.17956513166427612,-14.404296875,26.0772705078125,0.0762939453125
9.8499999,-9.282320022583008,0.07661445438861847,-0.19153612852096558,-5.096435546875,32.745361328125,-8.30078125
9.8699999,-9.53849983215332,0.011971008032560349,-0.507570743560791,3.9825439453125,39.825439453125,-17.1356201171875
9.889999900000001,-9.830592155456543,-0.002394201699644327,-0.7230489253997803,11.7950439453125,28.900146484375,-26.7791748046875
9.9099999,-10.077195167541504,-0.009576806798577309,-0.8643068075180054,15.6097412109375,-2.0294189453125,-33.966064453125
9.9299999,-10.216058731079102,0,-0.8810662031173706,15.960693359375,-30.76171875,-33.1573486328125
9.9499999,-10.165780067443848,-0.009576806798577309,-0.7350199222564697,17.0440673828125,-40.496826171875,-26.641845703125
9.969999900000001,-9.909601211547852,-0.040701430290937424,-0.4381389021873474,20.32470703125,-35.858154296875,-18.6614990234375
9.9899999,-9.57441234588623,-0.09576806426048279,-0.06464344263076782,22.705078125,-28.533935546875,-10.1165771484375
10.0099999,-9.299078941345215,-0.09816227108240128,0.3232172429561615,23.13232421875,-26.123046875,-3.4332275390625
10.0299999,-9.165003776550293,-0.06224924325942993,0.6440402865409851,20.3094482421875,-25.054931640625,-4.21142578125
10.049999900000001,-9.01895809173584,-0.038307227194309235,0.9624691009521484,15.31982421875,-21.2860107421875,-10.0250244140625
10.069999900000001,-9.121908187866211,0.016759412363171577,1.0965443849563599,14.129638671875,3.5400390625,-9.674072265625
10.0899999,-9.215282440185547,0.035913024097681046,1.2449848651885986,11.3067626953125,-2.532958984375,-6.7291259765625
10.1099999,-9.406818389892578,0.040701430290937424,1.2617442607879639,1.8157958984375,-15.045166015625,-11.90185546875
10.129999900000001,-9.603142738342285,0.031124621629714966,1.278503656387329,-6.805419921875,-15.228271484375,-16.9830322265625
10.149999900000001,-9.691728591918945,-0.009576806798577309,1.2976573705673218,-13.1683349609375,-9.521484375,-15.1214599609375
10.1699999,-9.643844604492188,-0.1364694982767105,1.2952631711959839,-19.10400390625,-7.537841796875,-9.8114013671875
10.1899999,-9.497797966003418,-0.30885201692581177,1.278503656387329,-23.4222412109375,-6.16455078125,-7.6751708984375
10.209999900000001,-9.339780807495117,-0.5171475410461426,1.2186486721038818,-25.32958984375,1.3885498046875,-8.056640625
10.229999900000001,-9.21288776397705,-0.6823474764823914,1.139639973640442,-26.2603759765625,7.1563720703125,-5.9814453125
10.2499999,-9.105149269104004,-0.811634361743927,1.070208191871643,-26.123046875,8.6822509765625,-1.40380859375
10.2699999,-9.0859956741333,-0.8667010068893433,1.0055646896362305,-27.6031494140625,16.66259765625,2.8076171875
10.2899999,-9.131484985351562,-0.8619126081466675,0.9528923034667969,-29.205322265625,30.364990234375,4.7149658203125
10.309999900000001,-9.255983352661133,-0.828393816947937,0.8954314589500427,-27.5726318359375,45.623779296875,5.2490234375
10.3299999,-9.500192642211914,-0.7781155705451965,0.7493851184844971,-22.5830078125,61.767578125,1.3580322265625
10.3499999,-9.885659217834473,-0.6871358752250671,0.5051765441894531,-15.8538818359375,64.605712890625,-8.026123046875
10.3699999,-10.340557098388672,-0.5841852426528931,0.1628057211637497,-10.80322265625,46.69189453125,-18.00537109375
10.389999900000001,-10.795455932617188,-0.49559974670410156,-0.19632454216480255,-8.087158203125,19.83642578125,-23.3306884765625
10.4099999,-11.070788383483887,-0.45489832758903503,-0.47644615173339844,-7.659912109375,-4.913330078125,-20.44677734375
10.4299999,-11.101913452148438,-0.48602294921875,-0.6224924325942993,-6.8511962890625,-19.04296875,-11.0321044921875
10.4499999,-10.903194427490234,-0.5674257874488831,-0.6224924325942993,-3.96728515625,-24.7650146484375,-0.6866455078125
10.469999900000001,-10.608707427978516,-0.6105214357376099,-0.5171475410461426,-1.190185546875,-30.3192138671875,5.2490234375
10.4899999,-10.287884712219238,-0.5961562395095825,-0.3471592366695404,0.213623046875,-34.36279296875,4.8675537109375
10.5099999,-10.002974510192871,-0.5410895943641663,-0.12928688526153564,2.9296875,-31.6009521484375,3.6773681640625
10.5299999,-9.785101890563965,-0.4429273009300232,0.1149216815829277,1.556396484375,-25.146484375,7.8125
10.549999900000001,-9.62947940826416,-0.3519476354122162,0.3495534360408783,-2.9754638671875,-19.34814453125,11.3067626953125
10.569999900000001,-9.576807022094727,-0.2585737705230713,0.545877993106842,-5.7373046875,-11.7950439453125,9.7198486328125
10.5899999,-9.617507934570312,-0.18914192914962769,0.6584054827690125,-8.8348388671875,-5.7220458984375,7.232666015625
10.6099999,-9.708487510681152,-0.14604631066322327,0.7015010714530945,-9.796142578125,-5.9967041015625,7.87353515625
10.629999900000001,-9.806650161743164,-0.12689268589019775,0.6919242739677429,-10.92529296875,-8.3770751953125,9.2315673828125
10.649999900000001,-9.880870819091797,-0.12210428714752197,0.6560112833976746,-11.9476318359375,-5.584716796875,7.904052734375
10.6699999,-9.93354320526123,-0.10295066982507706,0.6153098344802856,-12.02392578125,-0.0762939453125,6.65283203125
10.6899999,-9.959878921508789,-0.09576806426048279,0.5746083855628967,-11.138916015625,-0.3814697265625,8.72802734375
10.709999900000001,-10.012551307678223,-0.08379705995321274,0.5363011956214905,-9.82666015625,-5.157470703125,13.5955810546875
10.729999900000001,-10.08198356628418,-0.05985504388809204,0.5051765441894531,-8.1787109375,-8.1787109375,14.6942138671875
10.7499999,-10.144232749938965,-0.026336219161748886,0.5051765441894531,-6.011962890625,-8.575439453125,10.9100341796875
10.7699999,-10.15141487121582,0.019153613597154617,0.5291185975074768,-4.8980712890625,-8.1939697265625,9.8114013671875
10.7899999,-10.335768699645996,0.19393034279346466,0.5913678407669067,-4.302978515625,-1.4190673828125,9.1094970703125
10.809999900000001,-10.38604736328125,0.15322890877723694,0.5650315880775452,0.91552734375,-0.4119873046875,3.0517578125
10.8299999,-10.639832496643066,0.2106897532939911,0.4836287498474121,3.692626953125,-3.5552978515625,12.3443603515625
10.8499999,-10.639832496643066,0.10773907601833344,0.3878606855869293,4.058837890625,-7.720947265625,11.199951171875
10.8699999,-10.32858657836914,0.040701430290937424,0.2944868206977844,4.69970703125,-8.8958740234375,7.2021484375
10.889999900000001,-10.20887565612793,0.023942016065120697,0.2801215946674347,7.87353515625,-9.307861328125,9.9945068359375
10.9099999,-9.947908401489258,-0.05027823522686958,0.2992752194404602,11.566162109375,-10.0250244140625,5.8746337890625
10.9299999,-9.959878921508789,-0.07422025501728058,0.3734954595565796,14.0380859375,-16.7999267578125,4.5623779296875
10.9499999,-9.950302124023438,-0.11971008777618408,0.524330198764801,19.6380615234375,-18.61572265625,10.0250244140625
10.969999900000001,-9.911994934082031,-0.05267243832349777,0.727837324142456,19.4854736328125,-16.8914794921875,11.016845703125
10.9899999,-9.883264541625977,0.1412578970193863,0.9528923034667969,12.603759765625,-16.082763671875,7.9193115234375
11.0099999,-9.84495735168457,0.4165911078453064,1.2665326595306396,5.92041015625,-13.214111328125,5.096435546875
11.0299999,-9.801861763000488,0.7445967197418213,1.6376339197158813,-6.8511962890625,-7.3089599609375,4.6539306640625
11.049999900000001,-9.751583099365234,0.9864110946655273,2.0159177780151367,-26.275634765625,2.2125244140625,3.326416015625
11.069999900000001,-9.691728591918945,1.0989385843276978,2.3367409706115723,-40.8477783203125,11.5814208984375,0.1678466796875
11.0899999,-9.646238327026367,1.0342950820922852,2.5091233253479004,-46.8902587890625,18.1884765625,-0.732421875
11.1099999,-9.643844604492188,0.8379706144332886,2.4372973442077637,-48.4771728515625,23.0712890625,0.762939453125
11.129999900000001,-9.701305389404297,0.5219359993934631,2.142810583114624,-43.9605712890625,25.3753662109375,1.1138916015625
11.149999900000001,-9.77791976928711,0.15562310814857483,1.6903064250946045,-32.9437255859375,23.92578125,1.8310546875
11.1699999,-9.880870819091797,-0.16759411990642548,1.1324573755264282,-20.9503173828125,20.355224609375,3.997802734375
11.1899999,-9.96945571899414,-0.35673606395721436,0.6272808313369751,-10.162353515625,16.2353515625,5.67626953125
11.209999900000001,-10.041281700134277,-0.3974374830722809,0.19393034279346466,-2.1514892578125,12.237548828125,5.43212890625
11.229999900000001,-10.101137161254883,-0.2561795711517334,-0.11013327538967133,4.547119140625,7.6446533203125,3.326416015625
11.2499999,-10.141838073730469,-0.035913024097681046,-0.2753331959247589,9.5062255859375,1.2664794921875,2.3345947265625
11.2699999,-10.134655952453613,0.24660277366638184,-0.272938996553421,8.5296630859375,-4.7454833984375,2.5787353515625
11.2899999,-10.079588890075684,0.4908113479614258,-0.10773907601833344,0.67138671875,-5.0048828125,0.7171630859375
11.309999900000001,-10.038887977600098,0.6416460275650024,0.10055647045373917,-5.0048828125,-3.41796875,-1.2664794921875
11.3299999,-10.002974510192871,0.667982280254364,0.33039984107017517,-4.058837890625,-6.5460205078125,-1.5411376953125
11.3499999,-9.995792388916016,0.5339069962501526,0.4596867263317108,-2.227783203125,-12.237548828125,-0.2593994140625
11.3699999,-9.974244117736816,0.36152446269989014,0.5674257874488831,0.1373291015625,-13.916015625,0.701904296875
11.389999900000001,-9.955090522766113,0.12689268589019775,0.689530074596405,1.52587890625,-12.8936767578125,1.251220703125
11.4099999,-9.921571731567383,-0.09816227108240128,0.8355764150619507,5.4168701171875,-12.451171875,3.662109375
11.4299999,-9.825803756713867,-0.15562310814857483,1.0845733880996704,10.3759765625,-10.8184814453125,6.3934326171875
11.4499999,-9.828198432922363,-0.15083470940589905,1.3431471586227417,8.1939697265625,-3.2196044921875,8.0718994140625
11.469999900000001,-9.770736694335938,0.09576806426048279,1.6711528301239014,-1.6632080078125,4.2266845703125,6.072998046875
11.4899999,-9.734824180603027,0.47405192255973816,1.9345149993896484,-14.556884765625,9.1705322265625,6.5460205078125
11.5099999,-9.679757118225098,0.9217676520347595,2.3511061668395996,-29.571533203125,18.2037353515625,2.9449462890625
11.5299999,-9.627084732055664,1.3263877630233765,2.5450363159179688,-54.87060546875,33.69140625,-1.2969970703125
11.549999900000001,-9.567230224609375,1.5275006294250488,2.5091233253479004,-72.32666015625,47.4395751953125,-4.7760009765625
11.569999900000001,-9.639056205749512,1.4437036514282227,2.070984363555908,-64.8956298828125,44.3878173828125,-7.4310302734375
11.5899999,-9.751583099365234,1.0773907899856567,1.115697979927063,-43.1365966796875,32.3638916015625,-6.195068359375
11.6099999,-9.938331604003906,0.524330198764801,0.05506663769483566,-21.6064453125,21.30126953125,-4.7607421875
11.629999900000001,-10.1753568649292,-0.07422025501728058,-0.9911994934082031,-5.6915283203125,11.2762451171875,-5.43212890625
11.649999900000001,-10.287884712219238,-0.4836287498474121,-1.6328455209732056,8.087158203125,0.2288818359375,-2.6092529296875
11.6699999,-10.366893768310547,-0.6991068720817566,-1.8171991109848022,12.603759765625,-7.476806640625,0.640869140625
11.6899999,-10.369287490844727,-0.6967126727104187,-1.7094600200653076,13.397216796875,-13.6566162109375,0.885009765625
11.709999900000001,-10.333374977111816,-0.608127236366272,-1.455674648284912,23.92578125,-21.148681640625,3.5858154296875
11.729999900000001,-10.273519515991211,-0.35673606395721436,-1.0055646896362305,43.0450439453125,-34.759521484375,4.1961669921875
11.7499999,-10.1753568649292,0.009576806798577309,-0.5434837937355042,47.2412109375,-37.59765625,2.6702880859375
11.7699999,-10.017339706420898,0.40462008118629456,0.1628057211637497,28.2135009765625,-29.4189453125,0.3204345703125
11.7899999,-9.832986831665039,0.8475474119186401,0.9050082564353943,7.0953369140625,-18.85986328125,-2.685546875
11.809999900000001,-9.667786598205566,1.0869675874710083,1.7884687185287476,-4.6539306640625,-12.481689453125,-1.0528564453125
11.8299999,-9.567230224609375,1.137245774269104,2.365471363067627,-17.913818359375,-3.60107421875,-0.7171630859375
11.8499999,-9.5624418258667,0.950498104095459,2.695871114730835,-27.2064208984375,11.1846923828125,-6.256103515625
11.8699999,-9.612719535827637,0.6416460275650024,2.6001031398773193,-22.8424072265625,16.082763671875,-3.875732421875
11.889999900000001,-9.682151794433594,0.24899697303771973,2.121262788772583,-13.5040283203125,11.566162109375,1.5716552734375
11.9099999,-9.86889934539795,-0.08379705995321274,1.3742717504501343,-5.2642822265625,6.3629150390625,4.180908203125
11.9299999,-9.950302124023438,-0.38067805767059326,0.6153098344802856,1.4801025390625,2.8839111328125,6.2103271484375
11.9499999,-10.125079154968262,-0.4213795065879822,0.07422025501728058,6.9427490234375,-1.6632080078125,5.462646484375
11.969999900000001,-10.105925559997559,-0.2777273952960968,-0.028730420395731926,7.720947265625,-7.75146484375,7.843017578125
11.9899999,-10.108319282531738,0.07182604819536209,0.16519992053508759,-3.96728515625,-3.021240234375,6.805419921875
12.0099999,-9.99339771270752,0.5051765441894531,0.5363011956214905,-15.8233642578125,3.90625,4.425048828125
12.0299999,-9.892841339111328,0.8068459630012512,0.7924807667732239,-21.881103515625,6.28662109375,0.5340576171875
12.049999900000001,-9.890447616577148,0.9074024558067322,0.8882488012313843,-14.2822265625,0.091552734375,-3.204345703125
12.069999900000001,-9.849745750427246,0.7876923680305481,0.8619126081466675,-8.758544921875,0.8392333984375,-0.396728515625
12.0899999,-9.876082420349121,0.5530605912208557,0.9145850539207458,-8.1329345703125,4.364013671875,-2.410888671875
12.1099999,-9.926360130310059,0.3734954595565796,0.9481038451194763,-8.6517333984375,3.7841796875,-0.4119873046875
12.129999900000001,-9.897629737854004,0.26096799969673157,1.0103530883789062,-9.765625,3.84521484375,3.692626953125
12.149999900000001,-9.904812812805176,0.21787235140800476,0.9528923034667969,-11.0626220703125,4.1961669921875,2.99072265625
12.1699999,-9.93354320526123,0.20111294090747833,0.7182605266571045,-12.2528076171875,8.6517333984375,1.5106201171875
12.1899999,-9.95748519897461,0.16519992053508759,0.5123591423034668,-1.15966796875,1.8310546875,0.0152587890625
12.209999900000001,-9.971850395202637,0.19153612852096558,0.28730419278144836,8.36181640625,-8.4381103515625,-0.9613037109375
12.229999900000001,-10.101137161254883,0.1173158809542656,0.1364694982767105,11.1541748046875,-10.986328125,1.373291015625
12.2499999,-10.029311180114746,0.21547815203666687,0.2753331959247589,12.2222900390625,-9.1400146484375,1.4801025390625
12.2699999,-10.043676376342773,0.272938996553421,0.4596867263317108,3.8299560546875,-6.561279296875,1.922607421875
12.289999900000002,-9.974244117736816,0.4189853072166443,0.8236053586006165,-3.509521484375,-0.762939453125,2.9449462890625
12.309999900000001,-9.892841339111328,0.569819986820221,1.0893617868423462,-7.568359375,1.0528564453125,0.0762939453125
12.3299999,-9.864110946655273,0.6847416758537292,1.400607943534851,-10.1165771484375,-1.5411376953125,-1.373291015625
12.3499999,-9.720458984375,0.7805097699165344,1.644816517829895,-17.6239013671875,4.974365234375,2.227783203125
12.3699999,-9.75397777557373,0.7206547260284424,1.647210717201233,-27.3284912109375,17.2576904296875,-0.6256103515625
12.389999900000001,-9.763554573059082,0.6200982332229614,1.601720929145813,-18.0511474609375,14.3890380859375,-0.48828125
12.4099999,-9.773131370544434,0.4812345504760742,1.3311761617660522,-9.521484375,9.3841552734375,-1.1444091796875
12.4299999,-9.952696800231934,0.33518823981285095,0.9864110946655273,-11.9476318359375,9.7198486328125,-4.852294921875
12.4499999,-9.86650562286377,0.3280056416988373,0.811634361743927,-13.3056640625,10.986328125,-0.9918212890625
12.469999900000001,-9.950302124023438,0.35673606395721436,0.5770025849342346,-17.4713134765625,16.3726806640625,-3.6163330078125
12.4899999,-9.955090522766113,0.3711012601852417,0.4141969084739685,-12.1307373046875,14.9078369140625,-4.1656494140625
12.5099999,-9.96945571899414,0.37828385829925537,0.19393034279346466,-1.190185546875,6.9427490234375,-4.94384765625
12.5299999,-10.055646896362305,0.2561795711517334,0.06464344263076782,8.9111328125,-1.8768310546875,-5.6610107421875
12.549999900000001,-10.074800491333008,0.10295066982507706,-0.038307227194309235,7.6141357421875,-3.509521484375,-1.9378662109375
12.569999900000001,-10.127472877502441,-0.11013327538967133,-0.11971008777618408,6.40869140625,-2.3040771484375,-0.5035400390625
12.5899999,-10.141838073730469,-0.1628057211637497,-0.07661445438861847,22.0184326171875,-9.8724365234375,1.6021728515625
12.6099999,-10.062829971313477,-0.090979665517807,0.040701430290937424,25.482177734375,-14.678955078125,1.5106201171875
12.629999900000001,-9.99339771270752,0.2298433631658554,0.4381389021873474,7.75146484375,-5.8135986328125,-5.18798828125
12.649999900000001,-9.86650562286377,0.5554547905921936,0.9313444495201111,-16.4031982421875,3.8299560546875,-1.8310546875
12.6699999,-9.825803756713867,0.727837324142456,1.3024457693099976,-31.1431884765625,9.033203125,-0.3204345703125
12.6899999,-9.86650562286377,0.6727706789970398,1.2880805730819702,-20.751953125,5.9051513671875,-1.8463134765625
12.709999900000001,-9.919178009033203,0.40462008118629456,0.9289502501487732,0.640869140625,-1.708984375,1.77001953125
12.729999900000001,-10.029311180114746,0.05746084079146385,0.3878606855869293,14.068603515625,-10.4217529296875,0.18310546875
12.7499999,-10.093954086303711,-0.1364694982767105,-0.05506663769483566,24.8260498046875,-15.44189453125,0.9918212890625
12.7699999,-10.105925559997559,-0.16998831927776337,-0.15801730751991272,30.33447265625,-16.7999267578125,0.8392333984375
12.789999900000002,-10.029311180114746,-0.031124621629714966,0.0933738648891449,23.7579345703125,-17.303466796875,1.3427734375
12.809999900000001,-9.950302124023438,0.3232172429561615,0.6607996821403503,4.791259765625,-7.476806640625,1.40380859375
12.8299999,-9.77791976928711,0.7086837291717529,1.3766659498214722,-16.5252685546875,3.570556640625,-1.5869140625
12.8499999,-9.703699111938477,1.0606313943862915,1.9919757843017578,-37.53662109375,14.7705078125,-5.4473876953125
12.8699999,-9.636661529541016,1.1468225717544556,2.2816741466522217,-47.91259765625,21.392822265625,-6.103515625
12.889999900000001,-9.677363395690918,0.9911994934082031,2.2864625453948975,-46.4630126953125,26.42822265625,-1.251220703125
12.9099999,-9.75397777557373,0.5410895943641663,2.032677173614502,-49.7589111328125,29.9835205078125,4.7760009765625
12.9299999,-9.823410034179688,0.026336219161748886,1.656787633895874,-48.309326171875,32.8826904296875,7.8125
12.9499999,-9.940725326538086,-0.4118026793003082,1.1348515748977661,-41.32080078125,34.9884033203125,12.237548828125
12.969999900000001,-10.02452278137207,-0.6919242739677429,0.40701428055763245,-27.313232421875,29.1900634765625,13.5040283203125
12.9899999,-10.137049674987793,-0.7972691655158997,-0.4908113479614258,1.312255859375,11.3677978515625,12.7716064453125
13.0099999,-10.280701637268066,-0.5506663918495178,-1.2330138683319092,30.487060546875,-2.5177001953125,12.75634765625
13.0299999,-10.309432983398438,-0.1628057211637497,-1.625662922859192,38.330078125,-13.2293701171875,9.21630859375
13.049999900000001,-10.319009780883789,0.3447650372982025,-1.702277421951294,32.71484375,-12.6800537109375,0.9918212890625
13.069999900000001,-10.220847129821777,0.8212111592292786,-1.280897855758667,41.3055419921875,-19.989013671875,-2.3956298828125
13.0899999,-10.108319282531738,1.0749965906143188,-0.7613561153411865,43.0755615234375,-24.23095703125,-3.72314453125
13.1099999,-9.988609313964844,1.1420341730117798,-0.11252748221158981,29.8309326171875,-20.6298828125,-3.4942626953125
13.129999900000001,-9.856928825378418,1.0869675874710083,0.5913678407669067,15.3656005859375,-13.73291015625,-2.62451171875
13.149999900000001,-9.758766174316406,0.950498104095459,1.1779472827911377,4.5166015625,-4.5166015625,-1.953125
13.1699999,-9.727641105651855,0.7805097699165344,1.5466543436050415,-3.3721923828125,4.180908203125,-2.0599365234375
13.1899999,-9.768342971801758,0.5961562395095825,1.647210717201233,-4.7454833984375,4.1961669921875,-1.0986328125
13.209999900000001,-9.818621635437012,0.45250412821769714,1.5107412338256836,-1.2969970703125,3.6163330078125,-1.46484375
13.229999900000001,-9.904812812805176,0.36152446269989014,1.2018892765045166,2.5482177734375,3.8604736328125,-0.3662109375
13.2499999,-9.93354320526123,0.33039984107017517,0.8427590131759644,5.5694580078125,2.13623046875,-0.9002685546875
13.2699999,-9.955090522766113,0.36152446269989014,0.5386953949928284,7.568359375,0.7781982421875,-1.2664794921875
13.289999900000002,-9.976638793945312,0.37828385829925537,0.35434186458587646,8.2550048828125,0.9002685546875,1.007080078125
13.309999900000001,-9.979032516479492,0.3902548849582672,0.2992752194404602,7.354736328125,1.77001953125,1.434326171875
13.3299999,-9.967061996459961,0.33279404044151306,0.3519476354122162,5.615234375,1.739501953125,0.7171630859375
13.3499999,-9.947908401489258,0.2849099934101105,0.45489832758903503,4.69970703125,2.4261474609375,1.3275146484375
13.3699999,-9.931148529052734,0.26096799969673157,0.5554547905921936,3.570556640625,3.7078857421875,2.685546875
13.389999900000001,-9.926360130310059,0.304063618183136,0.6057330369949341,2.044677734375,4.425048828125,2.9449462890625
13.4099999,-9.940725326538086,0.40701428055763245,0.5841852426528931,1.4190673828125,4.0130615234375,2.1209716796875
13.4299999,-9.971850395202637,0.5506663918495178,0.5051765441894531,2.593994140625,2.62451171875,0.4730224609375
13.4499999,-10.472238540649414,0.7182605266571045,0.38546648621559143,5.1422119140625,1.3275146484375,-2.1514892578125
13.469999900000001,-10.87446403503418,0.7326257228851318,0.2513911724090576,9.185791015625,-4.2877197265625,-16.4947509765625
13.4899999,-11.990161895751953,0.7565677165985107,0.12928688526153564,12.3443603515625,-9.063720703125,-9.3841552734375
13.5099999,-12.87362289428711,0.6177040338516235,0.009576806798577309,18.24951171875,-14.83154296875,-11.5814208984375
13.5299999,-13.424288749694824,0.42616790533065796,-0.05267243832349777,23.3917236328125,-27.2979736328125,-45.3033447265625
13.549999900000001,-13.37161636352539,0.21308395266532898,-0.090979665517807,29.632568359375,-18.463134765625,-51.3763427734375
13.569999900000001,-12.536040306091309,0.002394201699644327,-0.08858546614646912,34.088134765625,-5.67626953125,-38.6962890625
13.5899999,-11.216835021972656,-0.12689268589019775,-0.021547814831137657,34.210205078125,-6.5765380859375,-21.759033203125
13.6099999,-9.84495735168457,-0.11971008777618408,0.0933738648891449,30.0750732421875,-5.9356689453125,-7.2784423828125
13.629999900000001,-8.667010307312012,0.014365210197865963,0.28730419278144836,23.3917236328125,-0.3662109375,-2.1514892578125
13.649999900000001,-7.838616371154785,0.21787235140800476,0.5626373887062073,15.7012939453125,5.279541015625,-5.79833984375
13.6699999,-7.378929615020752,0.42377370595932007,0.8188169598579407,12.3443603515625,10.955810546875,-10.07080078125
13.6899999,-7.194576263427734,0.5530605912208557,1.036689281463623,2.960205078125,5.6915283203125,-13.427734375
13.709999900000001,-7.151480674743652,0.5674257874488831,1.1540051698684692,-2.6702880859375,-2.2430419921875,-9.33837890625
13.729999900000001,-7.1921820640563965,0.4836287498474121,1.1755530834197998,-3.3721923828125,-1.28173828125,0.79345703125
13.7499999,-7.29034423828125,0.3423708379268646,1.1324573755264282,-2.685546875,6.011962890625,11.1846923828125
13.7699999,-7.513004779815674,0.20111294090747833,1.0606313943862915,-1.556396484375,11.16943359375,16.66259765625
13.789999900000002,-7.920019149780273,0.090979665517807,0.9816226959228516,-1.251220703125,11.9476318359375,16.326904296875
13.809999900000001,-8.494627952575684,0.031124621629714966,0.9145850539207458,-1.068115234375,7.904052734375,11.322021484375
13.8299999,-9.08838939666748,-0.021547814831137657,0.8595184087753296,0.48828125,2.7008056640625,3.5400390625
13.8499999,-9.583989143371582,-0.08140286058187485,0.8140285611152649,2.7923583984375,0.8087158203125,2.5787353515625
13.8699999,-9.911994934082031,-0.14604631066322327,0.7733271718025208,4.2877197265625,-0.213623046875,9.82666015625
13.889999900000001,-10.053253173828125,-0.19153612852096558,0.7469909191131592,4.7760009765625,-2.685546875,14.6026611328125
13.9099999,-10.079588890075684,-0.21547815203666687,0.7422025203704834,4.08935546875,-2.8076171875,14.373779296875
13.9299999,-10.08198356628418,-0.16998831927776337,0.768538773059845,1.6021728515625,-0.244140625,16.17431640625
13.9499999,-10.089165687561035,-0.09576806426048279,0.8140285611152649,-2.288818359375,0.8697509765625,17.8680419921875
13.969999900000001,-10.139444351196289,0.011971008032560349,0.8619126081466675,-5.950927734375,-0.3662109375,16.3421630859375
13.9899999,-10.204087257385254,0.10055647045373917,0.8834604024887085,-8.697509765625,-0.4425048828125,12.1307373046875
14.0099999,-10.280701637268066,0.15083470940589905,0.871489405632019,-9.94873046875,1.64794921875,10.2081298828125
14.0299999,-10.383652687072754,0.1604115068912506,0.8212111592292786,-9.185791015625,4.852294921875,8.8958740234375
14.049999900000001,-10.47702693939209,0.10773907601833344,0.751779317855835,-7.080078125,3.0975341796875,3.1890869140625
14.069999900000001,-10.577583312988281,0.026336219161748886,0.689530074596405,-5.4168701171875,-3.692626953125,-1.0986328125
14.0899999,-10.63504409790039,-0.06464344263076782,0.6416460275650024,-4.486083984375,-6.3934326171875,-1.678466796875
14.1099999,-10.589553833007812,-0.16519992053508759,0.6200982332229614,-2.9296875,-3.41796875,-1.77001953125
14.129999900000001,-10.491392135620117,-0.22266076505184174,0.6200982332229614,-1.556396484375,0.0152587890625,0.030517578125
14.149999900000001,-10.390835762023926,-0.24181437492370605,0.6272808313369751,-0.9765625,0.732421875,1.15966796875
14.1699999,-10.345345497131348,-0.20350714027881622,0.6320692300796509,-0.244140625,-1.8768310546875,-0.67138671875
14.1899999,-10.335768699645996,-0.1388636976480484,0.6368576288223267,1.15966796875,-4.5013427734375,-3.90625
14.209999900000001,-10.350133895874023,-0.043095629662275314,0.6368576288223267,1.861572265625,-4.5166015625,-5.096435546875
14.229999900000001,-10.319009780883789,0.05267243832349777,0.6272808313369751,1.800537109375,-3.2196044921875,-4.486083984375
14.2499999,-10.223240852355957,0.15322890877723694,0.6177040338516235,1.03759765625,-2.8533935546875,-2.8076171875
14.2699999,-10.079588890075684,0.26815059781074524,0.6105214357376099,-1.3885498046875,-0.9002685546875,-1.28173828125
14.289999900000002,-9.9000244140625,0.37828385829925537,0.6057330369949341,-4.0283203125,4.1046142578125,0.0152587890625
14.309999900000001,-9.895236015319824,0.507570743560791,0.586579442024231,-6.3629150390625,9.09423828125,1.8768310546875
14.3299999,-9.9000244140625,0.6847416758537292,0.5770025849342346,-7.32421875,2.716064453125,2.593994140625
14.3499999,-10.031704902648926,0.7876923680305481,0.5267243981361389,-7.0648193359375,-1.9378662109375,10.9405517578125
14.3699999,-10.125079154968262,0.9552865028381348,0.49559974670410156,-3.2806396484375,0.0762939453125,10.6353759765625
14.389999900000001,-10.11789608001709,0.9864110946655273,0.524330198764801,1.8157958984375,-3.662109375,2.410888671875
14.4099999,-10.053253173828125,0.9888052940368652,0.6320692300796509,3.204345703125,-2.44140625,0.091552734375
14.4299999,-9.96945571899414,0.9265560507774353,0.7972691655158997,-1.03759765625,1.1138916015625,-0.4119873046875
14.4499999,-9.888052940368652,0.8236053586006165,1.0007762908935547,-3.7689208984375,1.9683837890625,-3.1280517578125
14.469999900000001,-9.828198432922363,0.7015010714530945,1.1659762859344482,-5.6304931640625,5.2947998046875,-2.685546875
14.4899999,-9.837775230407715,0.6009446382522583,1.2330138683319092,-6.3323974609375,11.016845703125,-0.244140625
14.5099999,-9.837775230407715,0.2801215946674347,1.1037269830703735,1.6937255859375,9.2926025390625,-5.6304931640625
14.5299999,-9.852140426635742,0.18914192914962769,0.9074024558067322,5.55419921875,12.1612548828125,1.312255859375
14.549999900000001,-9.928754806518555,0.09816227108240128,0.6703764796257019,8.636474609375,8.941650390625,-0.152587890625
14.569999900000001,-10.002974510192871,0.15083470940589905,0.4405331015586853,11.810302734375,6.9732666015625,-3.0059814453125
14.5899999,-10.062829971313477,0.23702596127986908,0.26575639843940735,12.4664306640625,4.8675537109375,-3.4942626953125
14.6099999,-10.053253173828125,0.38307225704193115,0.2106897532939911,7.476806640625,3.23486328125,-1.861572265625
14.629999900000001,-10.031704902648926,0.5291185975074768,0.19393034279346466,-2.5787353515625,4.8828125,-2.6397705078125
14.649999900000001,-9.99339771270752,0.6512228846549988,0.2322375625371933,-9.5367431640625,4.8065185546875,-5.9051513671875
14.6699999,-9.955090522766113,0.6799532771110535,0.17477671802043915,-9.7198486328125,3.0517578125,-7.2174072265625
14.6899999,-9.959878921508789,0.5913678407669067,0.15801730751991272,-4.241943359375,-1.6021728515625,-5.67626953125
14.709999900000001,-9.947908401489258,0.35673606395721436,0.14604631066322327,-1.6326904296875,-3.5858154296875,-3.7689208984375
14.729999900000001,-9.988609313964844,0.10055647045373917,0.11252748221158981,-0.640869140625,-4.486083984375,-1.6632080078125
14.7499999,-9.974244117736816,-0.12689268589019775,0.11252748221158981,6.1492919921875,-6.40869140625,0.9613037109375
14.7699999,-10.02691650390625,-0.2346317619085312,0.1604115068912506,15.8538818359375,-9.8114013671875,2.44140625
14.789999900000002,-10.043676376342773,-0.22505496442317963,0.24420857429504395,17.15087890625,-15.8843994140625,3.0975341796875
14.809999900000001,-10.012551307678223,-0.07661445438861847,0.5147533416748047,8.7738037109375,-14.1448974609375,3.814697265625
14.8299999,-10.014945983886719,0.15083470940589905,0.7852981686592102,-1.2054443359375,-3.0517578125,3.4027099609375
14.8499999,-9.873687744140625,0.4189853072166443,1.139639973640442,-8.7890625,2.6702880859375,3.021240234375
14.8699999,-9.794678688049316,0.6751648783683777,1.501164436340332,-22.6593017578125,1.8768310546875,0.8697509765625
14.889999900000001,-9.670180320739746,0.790086567401886,1.5921441316604614,-41.595458984375,14.801025390625,2.5787353515625
14.9099999,-9.763554573059082,0.768538773059845,1.580173134803772,-40.4510498046875,24.383544921875,4.57763671875
14.9299999,-9.816226959228516,0.6512228846549988,1.2258312702178955,-21.3470458984375,9.9334716796875,-0.5950927734375
14.9499999,-9.979032516479492,0.3974374830722809,0.6631938815116882,-4.9591064453125,6.7596435546875,-3.3416748046875
14.969999900000001,-10.122684478759766,0.1628057211637497,-0.05267243832349777,10.55908203125,1.5411376953125,-0.6256103515625
14.9899999,-10.24000072479248,-0.09816227108240128,-0.6200982332229614,31.8756103515625,-10.9100341796875,0.701904296875
15.0099999,-10.247182846069336,-0.12689268589019775,-0.9074024558067322,41.717529296875,-22.552490234375,-0.9307861328125
15.0299999,-10.26394271850586,-0.12210428714752197,-0.8571242094039917,29.5562744140625,-22.52197265625,2.4871826171875
15.049999900000001,-10.125079154968262,0.06703764945268631,-0.40462008118629456,16.6015625,-16.8609619140625,2.197265625
15.069999900000001,-9.974244117736816,0.35434186458587646,0.26815059781074524,14.892578125,-17.9443359375,1.7852783203125
15.0899999,-9.830592155456543,0.5291185975074768,0.8930372595787048,9.246826171875,-15.2587890625,-0.4730224609375
15.1099999,-9.761159896850586,0.7422025203704834,1.414973258972168,3.387451171875,-7.2784423828125,-0.823974609375
15.129999900000001,-9.708487510681152,0.8403648138046265,1.86508309841156,-5.7220458984375,2.3651123046875,0.1068115234375
15.149999900000001,-9.708487510681152,0.9313444495201111,2.1092917919158936,-22.52197265625,7.4615478515625,-0.91552734375
15.1699999,-9.694122314453125,0.828393816947937,2.140416383743286,-34.698486328125,14.09912109375,0.1220703125
15.1899999,-9.787496566772461,0.6751648783683777,1.9297266006469727,-31.3262939453125,18.707275390625,-0.030517578125
15.209999900000001,-9.832986831665039,0.3758896589279175,1.5083470344543457,-20.3857421875,11.77978515625,0.91552734375
15.229999900000001,-9.962273597717285,0.0694318488240242,0.9361328482627869,-9.0179443359375,8.9874267578125,2.50244140625
15.2499999,-10.022128105163574,-0.10055647045373917,0.3687070608139038,1.8463134765625,6.34765625,2.3956298828125
15.2699999,-10.067618370056152,-0.15083470940589905,-0.0071826050989329815,11.23046875,1.3275146484375,2.7618408203125
15.289999900000002,-10.055646896362305,0.026336219161748886,-0.15801730751991272,8.1787109375,-3.5400390625,2.38037109375
15.309999900000001,-10.043676376342773,0.2513911724090576,-0.12210428714752197,-0.54931640625,-2.227783203125,2.044677734375
15.3299999,-10.067618370056152,0.47165772318840027,-0.011971008032560349,2.6092529296875,-5.523681640625,-2.25830078125
15.3499999,-10.070012092590332,0.6368576288223267,0.181959331035614,12.0086669921875,-12.2833251953125,-2.01416015625
15.3699999,-10.005369186401367,0.7038952708244324,0.4213795065879822,11.0015869140625,-10.1165771484375,-4.4403076171875
15.389999900000001,-10.000580787658691,0.7134721279144287,0.6631938815116882,2.3956298828125,-3.60107421875,-6.3323974609375
15.4099999,-9.832986831665039,0.6991068720817566,1.0989385843276978,-3.7994384765625,0.9002685546875,-4.4708251953125
15.4299999,-9.806650161743164,0.6272808313369751,1.3910311460494995,-12.176513671875,3.875732421875,-2.227783203125
15.4499999,-9.744400978088379,0.5051765441894531,1.5538369417190552,-18.0816650390625,9.8114013671875,-3.082275390625
15.469999900000001,-9.799467086791992,0.3711012601852417,1.4867992401123047,-13.0767822265625,11.077880859375,-4.180908203125
15.4899999,-9.861717224121094,0.181959331035614,1.2114660739898682,-3.2196044921875,5.584716796875,-1.6021728515625
15.5099999,-9.952696800231934,0.05985504388809204,0.8379706144332886,3.7384033203125,4.119873046875,-2.62451171875
15.5299999,-10.022128105163574,0.016759412363171577,0.4812345504760742,5.8746337890625,3.204345703125,-2.838134765625
15.549999900000001,-10.067618370056152,0.06703764945268631,0.26096799969673157,6.8206787109375,1.6021728515625,-1.3580322265625
15.569999900000001,-10.077195167541504,0.18914192914962769,0.26815059781074524,1.2969970703125,-1.3580322265625,-0.7171630859375
15.5899999,-10.062829971313477,0.2944868206977844,0.3495534360408783,-8.2244873046875,0.518798828125,0.9918212890625
15.6099999,-10.06043529510498,0.3663128614425659,0.5985504388809204,-13.9923095703125,3.23486328125,1.2054443359375
15.629999900000001,-9.995792388916016,0.31364041566848755,0.7757213711738586,-17.9443359375,1.89208984375,4.6234130859375
15.649999900000001,-10.012551307678223,0.19632454216480255,0.7972691655158997,-20.7366943359375,4.302978515625,5.0506591796875
15.6699999,-9.964667320251465,0.035913024097681046,0.706289529800415,-17.547607421875,3.631591796875,5.8441162109375
15.6899999,-10.041281700134277,-0.23942017555236816,0.33279404044151306,-3.7841796875,0.6561279296875,9.2010498046875
15.709999900000001,-10.11789608001709,-0.40701428055763245,-0.026336219161748886,29.144287109375,-11.199951171875,9.5672607421875
15.729999900000001,-10.153809547424316,-0.4644751250743866,-0.24899697303771973,59.967041015625,-24.3072509765625,11.29150390625
15.7499999,-10.146626472473145,-0.2801215946674347,-0.17477671802043915,62.2711181640625,-23.98681640625,10.955810546875
15.7699999,-10.089165687561035,0.18914192914962769,0.3064578175544739,46.905517578125,-16.2200927734375,9.7198486328125
15.789999900000002,-9.873687744140625,0.7781155705451965,0.9983820915222168,24.9786376953125,-7.1563720703125,5.43212890625
15.809999900000001,-9.99339771270752,1.3886369466781616,1.6759412288665771,5.2337646484375,2.9449462890625,4.4403076171875
15.8299999,-10.065223693847656,1.7717092037200928,2.1140801906585693,-6.5155029296875,9.7808837890625,-4.2724609375
15.8499999,-10.38844108581543,1.9273324012756348,2.2026655673980713,-12.6953125,18.00537109375,-14.6026611328125
15.869999900000002,-10.730812072753906,1.800439715385437,1.9153614044189453,-11.871337890625,26.3214111328125,-15.7623291015625
15.889999900000001,-11.003750801086426,1.5059528350830078,1.3551181554794312,-5.7373046875,34.5916748046875,-23.193359375
15.9099999,-11.125855445861816,1.1228805780410767,0.6392518281936646,2.166748046875,26.8096923828125,-28.0609130859375
15.9299999,-11.018115997314453,0.768538773059845,-0.021547814831137657,11.932373046875,6.927490234375,-21.4691162109375
15.9499999,-10.644620895385742,0.5147533416748047,-0.47884035110473633,19.22607421875,-7.2784423828125,-8.8958740234375
15.969999900000001,-10.0580415725708,0.38067805767059326,-0.6392518281936646,21.1029052734375,-10.1776123046875,0.3662109375
15.9899999,-9.425971984863281,0.38307225704193115,-0.5171475410461426,18.85986328125,-4.0435791015625,1.9989013671875
16.0099999,-8.841787338256836,0.43335050344467163,-0.18914192914962769,14.09912109375,4.0130615234375,-1.708984375
16.0299999,-8.451532363891602,0.4812345504760742,0.2059013396501541,6.9580078125,8.026123046875,-0.885009765625
16.0499999,-8.257601737976074,0.47644615173339844,0.5674257874488831,0.8697509765625,5.950927734375,4.82177734375
16.0699999,-8.238448143005371,0.3998316824436188,0.8259995579719543,-3.5858154296875,3.3416748046875,7.9345703125
16.089999900000002,-8.391676902770996,0.2849099934101105,0.9528923034667969,-4.45556640625,4.9285888671875,11.3983154296875
16.109999900000002,-8.667010307312012,0.16759411990642548,0.9672574996948242,-0.8392333984375,5.2642822265625,16.0064697265625
16.1299999,-9.01895809173584,0.08140286058187485,0.9097966551780701,1.9683837890625,2.044677734375,15.7318115234375
16.1499999,-9.394847869873047,0.035913024097681046,0.8355764150619507,1.8463134765625,-1.1749267578125,13.5040283203125
16.1699999,-9.775525093078613,0.038307227194309235,0.7876923680305481,1.4190673828125,-1.0833740234375,14.58740234375
16.1899999,-10.11789608001709,0.07900865375995636,0.7637503147125244,0.67138671875,1.3580322265625,14.6026611328125
16.2099999,-10.398017883300781,0.1388636976480484,0.7613561153411865,-0.5950927734375,4.0435791015625,7.4920654296875
16.2299999,-10.60152530670166,0.2082955539226532,0.7398083209991455,-1.1444091796875,5.4168701171875,-0.0762939453125
16.249999900000002,-10.6925048828125,0.2561795711517334,0.6919242739677429,-1.6937255859375,1.7242431640625,-0.2899169921875
16.269999900000002,-10.639832496643066,0.2944868206977844,0.6248866319656372,-1.5106201171875,-1.861572265625,3.35693359375
16.2899999,-10.481815338134766,0.31842881441116333,0.5386953949928284,-0.7476806640625,0.6256103515625,4.0740966796875
16.3099999,-10.266336441040039,0.3447650372982025,0.44532153010368347,1.46484375,1.9683837890625,3.2196044921875
16.3299999,-10.079588890075684,0.395043283700943,0.3734954595565796,4.5318603515625,-3.570556640625,5.1422119140625
16.3499999,-9.962273597717285,0.45250412821769714,0.33518823981285095,6.103515625,-6.7901611328125,3.1890869140625
16.3699999,-9.914389610290527,0.5003881454467773,0.363918662071228,6.134033203125,-6.3934326171875,-2.105712890625
16.3899999,-9.919178009033203,0.5434837937355042,0.4596867263317108,3.204345703125,-6.256103515625,-1.6937255859375
16.4099999,-9.931148529052734,0.5722141861915588,0.5913678407669067,-1.0528564453125,-4.8675537109375,2.7313232421875
16.429999900000002,-9.919178009033203,0.5937620401382446,0.7110779285430908,-5.0506591796875,-0.9918212890625,4.21142578125
16.4499999,-9.909601211547852,0.629675030708313,0.7805097699165344,-7.6141357421875,4.180908203125,2.3193359375
16.4699999,-9.876082420349121,0.667982280254364,0.7709329724311829,-8.1634521484375,5.218505859375,0.8697509765625
16.4899999,-9.93593692779541,0.7254431247711182,0.7086837291717529,-7.8125,1.03759765625,2.2735595703125
16.5099999,-9.979032516479492,0.7110779285430908,0.5746083855628967,-7.080078125,2.5482177734375,-1.5869140625
16.5299999,-10.129867553710938,0.6991068720817566,0.4381389021873474,-6.04248046875,3.8299560546875,-4.302978515625
16.5499999,-10.194510459899902,0.6751648783683777,0.28969839215278625,-3.936767578125,2.99072265625,4.119873046875
16.5699999,-10.230423927307129,0.6823474764823914,0.1867477297782898,-1.556396484375,0.6256103515625,2.7313232421875
16.589999900000002,-10.160991668701172,0.7469909191131592,0.1412578970193863,-0.30517578125,-1.129150390625,-0.4119873046875
16.609999900000002,-10.067618370056152,0.8164227604866028,0.16519992053508759,-0.1678466796875,-1.953125,-1.9683837890625
16.6299999,-9.979032516479492,0.8690952062606812,0.2513911724090576,0.4730224609375,-3.3111572265625,-3.0059814453125
16.6499999,-9.919178009033203,0.8738836050033569,0.35673606395721436,1.220703125,-3.4332275390625,-2.7923583984375
16.6699999,-9.897629737854004,0.8451532125473022,0.47405192255973816,2.6397705078125,-2.74658203125,-2.9296875
16.6899999,-9.880870819091797,0.8044517636299133,0.5602431893348694,4.974365234375,-3.0059814453125,-4.4403076171875
16.7099999,-9.883264541625977,0.768538773059845,0.6440402865409851,7.781982421875,-3.2806396484375,-6.0272216796875
16.7299999,-9.880870819091797,0.7541735172271729,0.7398083209991455,7.5225830078125,-2.1514892578125,-6.134033203125
16.749999900000002,-9.801861763000488,0.751779317855835,0.7972691655158997,3.11279296875,1.007080078125,-4.913330078125
16.769999900000002,-9.823410034179688,0.7733271718025208,0.8355764150619507,0.1373291015625,2.9296875,-6.072998046875
16.7899999,-9.821015357971191,0.706289529800415,0.8164227604866028,-0.0457763671875,1.1749267578125,-10.162353515625
16.8099999,-9.895236015319824,0.6799532771110535,0.828393816947937,-1.708984375,4.0130615234375,-4.7149658203125
16.8299999,-9.976638793945312,0.6009446382522583,0.7565677165985107,-7.14111328125,5.523681640625,-4.486083984375
16.8499999,-10.02691650390625,0.5363011956214905,0.6057330369949341,-7.2174072265625,5.0811767578125,-6.04248046875
16.8699999,-10.046070098876953,0.47644615173339844,0.3687070608139038,0.579833984375,-0.2288818359375,-6.9122314453125
16.8899999,-10.06043529510498,0.3926490843296051,0.09576806426048279,8.2244873046875,-6.6986083984375,-5.4168701171875
16.9099999,-10.072406768798828,0.2992752194404602,-0.090979665517807,10.6048583984375,-10.2081298828125,-3.90625
16.929999900000002,-10.070012092590332,0.2322375625371933,-0.08858546614646912,11.53564453125,-12.1917724609375,-2.86865234375
16.9499999,-10.050858497619629,0.19632454216480255,0.07900865375995636,9.124755859375,-12.939453125,-1.312255859375
16.9699999,-9.976638793945312,0.2585737705230713,0.4165911078453064,2.9296875,-11.7034912109375,0.5035400390625
16.9899999,-9.914389610290527,0.33039984107017517,0.8212111592292786,-8.4991455078125,-7.8125,2.197265625
17.0099999,-9.825803756713867,0.43095630407333374,1.1013327836990356,-13.885498046875,-3.692626953125,2.2735595703125
17.0299999,-9.794678688049316,0.4165911078453064,1.280897855758667,-11.53564453125,-1.953125,2.1209716796875
17.0499999,-9.780313491821289,0.4213795065879822,1.2473790645599365,-6.4239501953125,-4.638671875,7.2784423828125
17.0699999,-9.823410034179688,0.33279404044151306,1.1061211824417114,-1.251220703125,-6.8817138671875,7.75146484375
17.089999900000002,-9.859322547912598,0.3208230137825012,0.9409212470054626,0.91552734375,-2.8839111328125,3.0975341796875
17.109999900000002,-9.943120002746582,0.3447650372982025,0.790086567401886,1.0528564453125,-2.9754638671875,2.7008056640625
17.1299999,-9.914389610290527,0.42377370595932007,0.7015010714530945,2.74658203125,-9.6893310546875,-0.5035400390625
17.1499999,-9.995792388916016,0.5602431893348694,0.6991068720817566,4.94384765625,-6.77490234375,4.3487548828125
17.1699999,-9.897629737854004,0.730231523513794,0.8954314589500427,-0.18310546875,-1.6021728515625,3.7841796875
17.1899999,-9.950302124023438,0.8403648138046265,1.015141487121582,-13.8702392578125,2.8533935546875,0.18310546875
17.2099999,-9.885659217834473,0.8786720037460327,1.1635819673538208,-12.8021240234375,1.5106201171875,-1.64794921875
17.2299999,-9.907206535339355,0.8571242094039917,1.192312479019165,-1.1444091796875,-1.0223388671875,-2.166748046875
17.249999900000002,-9.9000244140625,0.7996633648872375,1.2330138683319092,2.6702880859375,-0.6561279296875,-3.1585693359375
17.269999900000002,-9.864110946655273,0.7493851184844971,1.2545616626739502,-3.7994384765625,5.7525634765625,-3.631591796875
17.2899999,-9.821015357971191,0.7110779285430908,1.2497732639312744,-8.7432861328125,8.4075927734375,-5.2337646484375
17.3099999,-9.854534149169922,0.608127236366272,1.1875240802764893,-4.6539306640625,7.4462890625,-4.0435791015625
17.3299999,-9.854534149169922,0.5003881454467773,1.039083480834961,-1.8157958984375,8.0108642578125,-1.6632080078125
17.3499999,-9.856928825378418,0.395043283700943,0.9888052940368652,-9.2315673828125,6.7291259765625,-0.030517578125
17.3699999,-9.916783332824707,0.31124621629714966,0.8307880163192749,-19.4549560546875,9.4451904296875,1.129150390625
17.3899999,-9.911994934082031,0.2561795711517334,0.6416460275650024,-8.270263671875,4.57763671875,-0.3814697265625
17.409999900000003,-10.02691650390625,0.16519992053508759,0.27054479718208313,14.4195556640625,-5.3863525390625,1.0986328125
17.429999900000002,-10.113107681274414,0.26575639843940735,0.09816227108240128,27.4505615234375,-14.8773193359375,0.091552734375
17.4499999,-10.091560363769531,0.3208230137825012,-0.0071826050989329815,15.9149169921875,-19.6685791015625,2.227783203125
17.4699999,-9.962273597717285,0.4165911078453064,0.24660277366638184,9.1552734375,-25.360107421875,-1.9989013671875
17.4899999,-7.965508937835693,0.43335050344467163,0.608127236366272,17.4407958984375,-27.9541015625,10.6201171875
17.5099999,-7.568071365356445,0.2059013396501541,1.5131354331970215,20.9197998046875,-3.997802734375,23.590087890625
17.5299999,-7.690176010131836,0.035913024097681046,2.470816135406494,-9.7503662109375,14.6942138671875,-18.4478759765625
17.5499999,-8.695740699768066,0.21547815203666687,3.423708438873291,-52.8411865234375,60.5926513671875,30.9600830078125
17.5699999,-10.910377502441406,0.6368576288223267,3.464409828186035,-73.699951171875,63.8427734375,35.430908203125
17.589999900000002,-11.884817123413086,1.2330138683319092,2.360682964324951,-65.8721923828125,38.3758544921875,14.1143798828125
17.609999900000002,-11.961431503295898,1.6974890232086182,0.3447650372982025,-30.2581787109375,16.998291015625,3.11279296875
17.6299999,-11.803414344787598,1.6376339197158813,-1.6089035272598267,14.9383544921875,-12.26806640625,-3.5247802734375
17.6499999,-11.635820388793945,1.3048399686813354,-3.045424461364746,60.4705810546875,-40.130615234375,-6.7596435546875
17.6699999,-11.133037567138672,0.6224924325942993,-3.134010076522827,99.639892578125,-56.0150146484375,5.096435546875
17.6899999,-10.457873344421387,0.4189853072166443,-1.8626888990402222,100.3265380859375,-53.8482666015625,3.7078857421875
17.7099999,-9.502586364746094,0.22744916379451752,0.24660277366638184,43.7164306640625,-17.8680419921875,-1.3427734375
17.7299999,-8.844181060791016,0.5746083855628967,2.456450939178467,-5.7525634765625,25.634765625,9.09423828125
17.749999900000002,-8.789113998413086,1.01753568649292,4.065354347229004,-27.77099609375,35.3851318359375,16.78466796875
17.769999900000002,-9.198522567749023,1.359906554222107,4.223371982574463,-32.562255859375,33.4320068359375,10.55908203125
17.7899999,-9.864110946655273,1.6041151285171509,3.248931646347046,-18.9208984375,29.47998046875,3.96728515625
17.8099999,-10.532093048095703,1.702277421951294,1.723825216293335,-5.4931640625,12.8326416015625,-4.2572021484375
17.8299999,-10.821791648864746,1.6759412288665771,0.16998831927776337,4.241943359375,3.7384033203125,-12.4053955078125
17.8499999,-10.92953109741211,1.5897499322891235,-0.8930372595787048,7.8887939453125,-2.7923583984375,-5.8746337890625
17.8699999,-10.702081680297852,1.4628572463989258,-1.3192051649093628,7.9498291015625,-7.9803466796875,-4.69970703125
17.8899999,-10.56800651550293,1.3215993642807007,-1.1803414821624756,7.50732421875,-4.0740966796875,-5.6915283203125
17.909999900000003,-10.27591323852539,1.1899182796478271,-0.7110779285430908,8.5296630859375,-4.0740966796875,-9.1400146484375
17.929999900000002,-10.137049674987793,1.1228805780410767,-0.16998831927776337,12.6800537109375,14.2669677734375,-9.033203125
17.9499999,-9.95748519897461,1.094150185585022,0.2801215946674347,21.484375,26.5655517578125,-8.056640625
17.9699999,-9.852140426635742,1.1037269830703735,0.5674257874488831,22.3541259765625,13.671875,-11.90185546875
17.9899999,-9.794678688049316,1.091755986213684,0.7182605266571045,23.4832763671875,0.3662109375,-18.98193359375
18.0099999,-9.684545516967773,1.0223240852355957,0.8068459630012512,26.1993408203125,-4.6844482421875,-21.0723876953125
18.0299999,-9.44991397857666,0.8786720037460327,0.8930372595787048,25.665283203125,-7.3089599609375,-13.2904052734375
18.0499999,-9.117119789123535,0.6967126727104187,1.0127472877502441,20.8587646484375,-10.4522705078125,-3.1585693359375
18.0699999,-8.798690795898438,0.5482721924781799,1.173158884048462,14.556884765625,-9.796142578125,3.2958984375
18.089999900000002,-8.640673637390137,0.5027823448181152,1.3431471586227417,6.4544677734375,-2.8839111328125,5.7830810546875
18.109999900000002,-8.688557624816895,0.5410895943641663,1.4724340438842773,-3.0975341796875,2.74658203125,4.94384765625
18.1299999,-8.89445972442627,0.6344634294509888,1.522712230682373,-9.8876953125,1.190185546875,1.556396484375
18.1499999,-9.181763648986816,0.7158663272857666,1.4700398445129395,-13.61083984375,0.1068115234375,-0.6103515625
18.1699999,-9.476250648498535,0.7541735172271729,1.3335703611373901,-15.7623291015625,4.425048828125,2.3193359375
18.1899999,-9.742006301879883,0.7613561153411865,1.1468225717544556,-17.181396484375,5.8746337890625,6.439208984375
18.2099999,-10.146626472473145,0.7015010714530945,0.7876923680305481,-19.073486328125,-3.5400390625,2.7008056640625
18.2299999,-10.261548042297363,0.6631938815116882,0.6655880808830261,-19.866943359375,-1.8310546875,2.01416015625
18.249999900000002,-10.309432983398438,0.6200982332229614,0.5841852426528931,-20.3857421875,1.739501953125,0.5035400390625
18.269999900000002,-10.304644584655762,0.5722141861915588,0.5219359993934631,-19.866943359375,1.2969970703125,-2.410888671875
18.2899999,-10.26394271850586,0.5147533416748047,0.4572925269603729,-18.2952880859375,-0.701904296875,-3.2958984375
18.3099999,-10.20887565612793,0.4572925269603729,0.3734954595565796,-15.228271484375,0.1068115234375,-2.1514892578125
18.3299999,-10.146626472473145,0.40462008118629456,0.28730419278144836,-11.5509033203125,1.46484375,-2.3193359375
18.3499999,-10.096348762512207,0.3711012601852417,0.2106897532939911,-8.8043212890625,1.03759765625,-4.058837890625
18.3699999,-10.062829971313477,0.35434186458587646,0.14844051003456116,-6.8359375,0.335693359375,-5.0201416015625
18.3899999,-10.046070098876953,0.3495534360408783,0.09816227108240128,-4.2572021484375,0.335693359375,-3.814697265625
18.409999900000003,-10.012551307678223,0.3423708379268646,0.0694318488240242,-1.007080078125,0.1220703125,-3.631591796875
18.429999900000002,-9.988609313964844,0.3519476354122162,0.06224924325942993,1.739501953125,2.838134765625,-5.1727294921875
18.4499999,-9.952696800231934,0.3711012601852417,0.07422025501728058,3.47900390625,6.1187744140625,-6.439208984375
18.4699999,-9.888052940368652,0.40940847992897034,0.11013327538967133,4.0283203125,4.547119140625,-4.608154296875
18.4899999,-9.792284965515137,0.4572925269603729,0.15083470940589905,3.6468505859375,4.2572021484375,-0.3662109375
18.5099999,-9.710882186889648,0.524330198764801,0.1867477297782898,3.1585693359375,10.19287109375,2.960205078125
18.5299999,-9.672574996948242,0.6009446382522583,0.20111294090747833,2.7618408203125,16.8304443359375,2.3345947265625
18.5499999,-9.679757118225098,0.6775590777397156,0.2082955539226532,1.9683837890625,16.754150390625,0.244140625
18.5699999,-9.732429504394531,0.7445967197418213,0.19393034279346466,0.4730224609375,17.120361328125,1.4190673828125
18.589999900000002,-9.849745750427246,0.7996633648872375,0.17717093229293823,-0.701904296875,17.4407958984375,3.692626953125
18.609999900000002,-10.002974510192871,0.8259995579719543,0.2059013396501541,-1.3275146484375,8.880615234375,-0.335693359375
18.6299999,-10.163386344909668,0.8212111592292786,0.2298433631658554,-2.685546875,-1.007080078125,-9.0484619140625
18.6499999,-10.295066833496094,0.7876923680305481,0.3208230137825012,-0.0762939453125,-5.126953125,-8.880615234375
18.6699999,-10.347740173339844,0.7326257228851318,0.38067805767059326,3.5247802734375,-8.4991455078125,-0.091552734375
18.6899999,-10.26394271850586,0.7230489253997803,0.44771572947502136,7.2021484375,-3.4942626953125,3.3721923828125
18.7099999,-10.165780067443848,0.730231523513794,0.4596867263317108,8.0108642578125,-3.875732421875,-0.885009765625
18.7299999,-10.055646896362305,0.7445967197418213,0.4141969084739685,10.3302001953125,-4.4403076171875,-3.4332275390625
18.749999900000002,-9.806650161743164,0.7350199222564697,0.3663128614425659,16.05224609375,-4.9896240234375,-3.8604736328125
18.769999900000002,-9.84495735168457,0.7182605266571045,0.40701428055763245,19.0582275390625,-4.241943359375,-1.9073486328125
18.7899999,-9.727641105651855,0.6655880808830261,0.5147533416748047,15.93017578125,-2.1514892578125,-7.904052734375
18.8099999,-9.856928825378418,0.6416460275650024,0.6584054827690125,8.544921875,3.5858154296875,-4.425048828125
18.8299999,-9.95748519897461,0.6272808313369751,0.7948749661445618,2.5634765625,5.706787109375,-0.8392333984375
18.8499999,-10.000580787658691,0.6416460275650024,0.7924807667732239,-3.4942626953125,6.103515625,-1.0223388671875
18.8699999,-10.010157585144043,0.7254431247711182,0.6392518281936646,-8.48388671875,7.4462890625,-3.6773681640625
18.8899999,-10.014945983886719,0.751779317855835,0.42856210470199585,-7.2479248046875,5.462646484375,-8.0413818359375
18.909999900000003,-10.000580787658691,0.8188169598579407,0.29209262132644653,-6.6070556640625,2.3193359375,-7.2174072265625
18.929999900000002,-9.986215591430664,0.8092401623725891,0.21787235140800476,-13.36669921875,3.2958984375,-5.0201416015625
18.9499999,-9.962273597717285,0.7015010714530945,0.22266076505184174,-18.1427001953125,7.4920654296875,-7.5836181640625
18.9699999,-9.95748519897461,0.6224924325942993,0.26096799969673157,-15.2435302734375,9.5062255859375,-11.322021484375
18.9899999,-9.940725326538086,0.4118026793003082,0.17477671802043915,-9.8724365234375,2.685546875,-8.4686279296875
19.0099999,-10.019734382629395,0.2082955539226532,0.028730420395731926,-2.655029296875,-0.4425048828125,-5.767822265625
19.0299999,-10.06043529510498,-0.06464344263076782,-0.1149216815829277,6.77490234375,-3.72314453125,-3.4027099609375
19.0499999,-10.113107681274414,-0.3495534360408783,-0.2849099934101105,13.671875,-6.5460205078125,1.8157958984375
19.0699999,-10.153809547424316,-0.5291185975074768,-0.35673606395721436,15.7470703125,-12.63427734375,7.32421875
19.089999900000002,-10.158597946166992,-0.5793967843055725,-0.3734954595565796,18.1427001953125,-17.2271728515625,11.016845703125
19.109999900000002,-10.108319282531738,-0.40462008118629456,-0.24181437492370605,20.843505859375,-17.9443359375,10.7421875
19.1299999,-10.070012092590332,-0.08619125932455063,-0.0454898327589035,19.4091796875,-17.0745849609375,9.8114013671875
19.1499999,-9.962273597717285,0.3711012601852417,0.23942017555236816,13.12255859375,-16.204833984375,8.9263916015625
19.1699999,-9.86889934539795,0.8403648138046265,0.5051765441894531,6.53076171875,-12.939453125,5.43212890625
19.1899999,-9.830592155456543,1.170764684677124,0.7565677165985107,0.1220703125,-9.7198486328125,2.593994140625
19.2099999,-9.770736694335938,1.335964560508728,0.9433154463768005,-7.232666015625,-7.6904296875,0.67138671875
19.2299999,-9.78989028930664,1.278503656387329,1.072602391242981,-11.4288330078125,-5.43212890625,0.3204345703125
19.249999900000002,-9.813833236694336,1.0558429956436157,1.2066776752471924,-11.7950439453125,-4.33349609375,0.0152587890625
19.269999900000002,-9.821015357971191,0.7996633648872375,1.2545616626739502,-12.0086669921875,-2.197265625,0.732421875
19.2899999,-9.835380554199219,0.524330198764801,1.1971008777618408,-10.6201171875,2.5634765625,2.62451171875
19.3099999,-9.890447616577148,0.3447650372982025,1.1779472827911377,-5.6610107421875,4.45556640625,5.31005859375
19.3299999,-9.871294021606445,0.23942017555236816,0.9457096457481384,-2.8839111328125,1.861572265625,6.40869140625
19.3499999,-9.950302124023438,0.2322375625371933,0.8307880163192749,-5.4473876953125,1.495361328125,6.65283203125
19.3699999,-9.981427192687988,0.3016694188117981,0.6416460275650024,-8.3160400390625,0.885009765625,5.7220458984375
19.3899999,-9.950302124023438,0.363918662071228,0.5482721924781799,-11.8255615234375,-0.762939453125,8.6212158203125
19.409999900000003,-9.986215591430664,0.4357447028160095,0.4165911078453064,-13.00048828125,0.1678466796875,9.09423828125
19.429999900000002,-9.945513725280762,0.5410895943641663,0.4189853072166443,-9.3231201171875,-0.4730224609375,8.087158203125
19.4499999,-9.962273597717285,0.6512228846549988,0.35434186458587646,-7.049560546875,-4.119873046875,8.3770751953125
19.4699999,-9.988609313964844,0.8331822156906128,0.4141969084739685,-5.859375,-6.28662109375,5.6610107421875
19.4899999,-9.99339771270752,0.9528923034667969,0.40940847992897034,-5.9814453125,-7.3394775390625,4.852294921875
19.5099999,-9.99100399017334,0.9744400978088379,0.40222588181495667,-5.4931640625,-8.2244873046875,3.4332275390625
19.5299999,-10.017339706420898,0.9672574996948242,0.4118026793003082,1.373291015625,-8.8958740234375,3.47900390625
19.5499999,-9.95748519897461,0.912190854549408,0.4884171485900879,6.77490234375,-13.5650634765625,5.3558349609375
19.5699999,-9.964667320251465,0.9074024558067322,0.7589619159698486,2.5177001953125,-11.2152099609375,0.8392333984375
19.589999900000002,-9.876082420349121,0.9959878921508789,1.1635819673538208,-4.21142578125,-3.814697265625,-2.3345947265625
19.609999900000002,-9.761159896850586,1.0797849893569946,1.5969325304031372,-10.0860595703125,2.7923583984375,-1.9378662109375
19.6299999,-9.66539192199707,1.161187767982483,1.922544002532959,-13.214111328125,9.6588134765625,-3.9520263671875
19.6499999,-9.593565940856934,1.2545616626739502,2.1332337856292725,-15.2740478515625,16.021728515625,-3.9825439453125
19.6699999,-9.564835548400879,1.259350061416626,2.1547815799713135,-23.01025390625,23.2086181640625,-4.3182373046875
19.6899999,-9.658209800720215,1.2689268589019775,2.0398597717285156,-31.67724609375,29.388427734375,-9.3994140625
19.7099999,-9.696516990661621,1.1420341730117798,1.7046716213226318,-34.1033935546875,30.94482421875,-7.6141357421875
19.7299999,-9.840168952941895,0.9193734526634216,1.1851298809051514,-31.3873291015625,29.4647216796875,-5.3253173828125
19.749999900000002,-9.962273597717285,0.6320692300796509,0.4381389021873474,-21.1029052734375,23.74267578125,-4.5623779296875
19.769999900000002,-10.053253173828125,0.33518823981285095,-0.3064578175544739,-5.7830810546875,10.040283203125,-3.11279296875
19.7899999,-10.20648193359375,0.07900865375995636,-1.0295066833496094,12.02392578125,-1.7852783203125,-2.6397705078125
19.8099999,-10.266336441040039,-0.004788403399288654,-1.4389152526855469,28.5491943359375,-12.8021240234375,-3.7689208984375
19.8299999,-10.304644584655762,0.026336219161748886,-1.5275006294250488,34.759521484375,-20.93505859375,-3.4942626953125
19.8499999,-10.266336441040039,0.2082955539226532,-1.3120225667953491,33.4625244140625,-25.0091552734375,-4.669189453125
19.8699999,-10.1753568649292,0.4692635238170624,-0.6488286852836609,31.3568115234375,-25.6195068359375,-1.739501953125
19.8899999,-9.979032516479492,0.7015010714530945,0.19393034279346466,18.24951171875,-22.1710205078125,-2.3193359375
19.909999900000003,-9.873687744140625,0.871489405632019,1.0797849893569946,-0.732421875,-12.8631591796875,-2.8839111328125
19.929999900000002,-9.655815124511719,0.9696516990661621,1.9297266006469727,-14.70947265625,-3.265380859375,-0.30517578125
19.9499999,-9.603142738342285,1.0055646896362305,2.43011474609375,-23.8494873046875,3.7689208984375,0.5340576171875
19.9699999,-9.524134635925293,1.0247182846069336,2.454056739807129,-24.932861328125,10.2386474609375,-3.0517578125
19.9899999,-9.588777542114258,1.05105459690094,2.3726539611816406,-19.8211669921875,15.19775390625,-3.2501220703125
20.0099999,-9.59596061706543,1.0438719987869263,2.032677173614502,-22.918701171875,16.815185546875,-6.40869140625
20.0299999,-9.732429504394531,1.0247182846069336,1.7573440074920654,-33.111572265625,23.6053466796875,-11.9781494140625
