# Time (seconds),Accel_X,Accel_Y,Accel_Z,Gyro_X,Gyro_Y,Gyro_Z
0.0099999,0.0694318488240242,-9.974244117736816,0.28730419278144836,1.3427734375,0.79345703125,4.3792724609375
0.029999900000000003,0.07661445438861847,-9.995792388916016,0.2561795711517334,-0.885009765625,0.18310546875,3.35693359375
0.0499999,0.033518824726343155,-9.995792388916016,0.24181437492370605,-0.5035400390625,-2.0751953125,3.631591796875
0.0699999,-0.028730420395731926,-10.02452278137207,0.181959331035614,1.220703125,-6.0272216796875,4.852294921875
0.08999990000000001,-0.026336219161748886,-10.096348762512207,0.07422025501728058,-0.4730224609375,-14.9993896484375,8.3465576171875
0.10999990000000001,0.043095629662275314,-10.254365921020508,0,-1.708984375,-22.4151611328125,16.6015625
0.1299999,0.17956513166427612,-10.441113471984863,-0.035913024097681046,-2.9449462890625,-15.3045654296875,32.7911376953125
0.14999990000000002,0.3447650372982025,-10.632649421691895,-0.021547814831137657,-4.241943359375,1.89208984375,50.23193359375
0.1699999,0.4381389021873474,-10.757147789001465,-0.016759412363171577,-3.0517578125,17.7001953125,62.6373291015625
0.1899999,0.3256114423274994,-10.824186325073242,-0.040701430290937424,2.3040771484375,24.078369140625,69.6868896484375
0.20999990000000002,-0.05267243832349777,-10.826580047607422,-0.12449848651885986,11.2152099609375,23.8800048828125,69.9462890625
0.2299999,-0.6584054827690125,-10.776301383972168,-0.19632454216480255,20.355224609375,17.8070068359375,61.370849609375
0.2499999,-1.3766659498214722,-10.680533409118652,-0.19153612852096558,25.8636474609375,7.110595703125,46.875
0.2699999,-2.027888774871826,-10.5344877243042,-0.05506663769483566,25.1617431640625,0.4425048828125,31.768798828125
0.28999990000000003,-2.5043349266052246,-10.436325073242188,0.19871874153614044,18.4173583984375,0.4119873046875,21.17919921875
0.3099999,-2.7940332889556885,-10.445901870727539,0.5099649429321289,6.1798095703125,1.708984375,17.5933837890625
0.3299999,-2.8850131034851074,-10.551246643066406,0.8044517636299133,-9.3994140625,3.0975341796875,18.5089111328125
0.34999990000000003,-2.8562827110290527,-10.706870079040527,0.9888052940368652,-24.2156982421875,4.5166015625,20.6756591796875
0.3699999,-2.762908697128296,-10.855310440063477,1.0223240852355957,-36.041259765625,2.38037109375,24.35302734375
0.3899999,-2.693476915359497,-10.953473091125488,0.8762778043746948,-44.6624755859375,-2.01416015625,30.364990234375
0.40999990000000003,-2.647987127304077,-10.979808807373047,0.5985504388809204,-48.614501953125,-4.33349609375,35.4766845703125
0.4299999,-2.628833532333374,-10.910377502441406,0.26336219906806946,-47.2412109375,-3.2806396484375,37.17041015625
0.4499999,-2.6384103298187256,-10.769119262695312,-0.090979665517807,-42.877197265625,-1.9073486328125,38.1317138671875
0.4699999,-2.6216509342193604,-10.532093048095703,-0.3687070608139038,-38.116455078125,-4.8675537109375,41.7327880859375
0.4899999,-2.6455929279327393,-10.314221382141113,-0.5961562395095825,-33.447265625,-6.683349609375,46.783447265625
0.5099999,-2.806004285812378,-10.165780067443848,-0.7972691655158997,-27.0843505859375,-6.317138671875,52.642822265625
0.5299999,-3.026270866394043,-10.050858497619629,-0.9409212470054626,-17.8070068359375,-10.9100341796875,56.9305419921875
0.5499999,-3.246537446975708,-9.938331604003906,-1.0055646896362305,-8.148193359375,-17.5628662109375,57.6171875
0.5699999,-3.428496837615967,-9.813833236694336,-0.9696516990661621,-2.899169921875,-19.34814453125,59.326171875
0.5899998999999999,-3.5865142345428467,-9.66539192199707,-0.8571242094039917,-3.936767578125,-18.9056396484375,68.84765625
0.6099998999999999,-3.756502389907837,-9.48343276977539,-0.7015010714530945,-6.5765380859375,-16.0064697265625,80.7037353515625
0.6299999,-3.995922565460205,-9.248801231384277,-0.5770025849342346,-3.0975341796875,-3.1585693359375,82.000732421875
0.6499999,-4.256890773773193,-8.913613319396973,-0.4908113479614258,6.072998046875,12.298583984375,73.3795166015625
0.6699999,-4.537012100219727,-8.537723541259766,-0.4620809257030487,12.3138427734375,16.448974609375,69.732666015625
0.6899999,-4.754884719848633,-8.085219383239746,-0.4692635238170624,13.4735107421875,11.8865966796875,75.2716064453125
0.7099999,-4.869806289672852,-7.69735860824585,-0.4812345504760742,16.7083740234375,14.4500732421875,77.4383544921875
0.7299998999999999,-4.929661273956299,-7.374141216278076,-0.49320554733276367,23.13232421875,27.77099609375,75.7293701171875
0.7499998999999999,-4.963180065155029,-7.101202011108398,-0.5363011956214905,28.3203125,32.012939453125,78.7200927734375
0.7699999,-5.008669853210449,-6.876147270202637,-0.5913678407669067,33.203125,13.0767822265625,83.831787109375
0.7899999,-5.094861030578613,-6.653486728668213,-0.6320692300796509,39.12353515625,-6.072998046875,85.0067138671875
0.8099999,-5.171475887298584,-6.426037311553955,-0.6177040338516235,43.3349609375,-6.8206787109375,84.77783203125
0.8299999,-5.228936672210693,-6.222530364990234,-0.49799394607543945,41.839599609375,-3.631591796875,90.4998779296875
0.8499998999999999,-5.322310447692871,-6.033388137817383,-0.31124621629714966,36.865234375,-8.9569091796875,100.2044677734375
0.8699998999999999,-5.4659624099731445,-5.839457988739014,-0.090979665517807,33.1878662109375,-12.9852294921875,104.3701171875
0.8899999,-5.698200225830078,-5.671864032745361,0.1364694982767105,30.2276611328125,-7.843017578125,102.752685546875
0.9099999,-5.999869346618652,-5.468356609344482,0.3423708379268646,24.0325927734375,-0.885009765625,102.996826171875
0.9299999,-6.325480937957764,-5.284003257751465,0.5123591423034668,17.425537109375,-1.312255859375,102.0965576171875
0.9499999,-6.66785192489624,-5.106832027435303,0.6248866319656372,13.519287109375,-3.814697265625,96.282958984375
0.9699998999999999,-7.010222434997559,-4.972756862640381,0.7038952708244324,9.8876953125,-1.15966796875,89.599609375
0.9899998999999999,-7.316680431365967,-4.836287498474121,0.751779317855835,3.60107421875,6.6680908203125,85.6170654296875
1.0099999,-7.553706169128418,-4.716577529907227,0.8140285611152649,-1.9073486328125,11.322021484375,78.4149169921875
1.0299999,-7.7883381843566895,-4.613626480102539,0.849941611289978,-5.7220458984375,14.7552490234375,67.7032470703125
1.0499999,-7.996633529663086,-4.503493309020996,0.8403648138046265,-10.4217529296875,16.998291015625,57.830810546875
1.0699999,-8.185775756835938,-4.436455726623535,0.7852981686592102,-15.960693359375,14.8162841796875,53.009033203125
1.0899999,-8.310274124145508,-4.431667327880859,0.7182605266571045,-20.7366943359375,12.481689453125,51.483154296875
1.1099999,-8.422801971435547,-4.484339714050293,0.6392518281936646,-23.1475830078125,18.6767578125,46.478271484375
1.1299999,-8.530540466308594,-4.548983097076416,0.5315127968788147,-23.6053466796875,28.6712646484375,36.7279052734375
1.1499999,-8.638279914855957,-4.611232280731201,0.3926490843296051,-22.39990234375,27.7557373046875,27.7862548828125
1.1699998999999999,-8.75080680847168,-4.654327869415283,0.22505496442317963,-20.01953125,17.15087890625,24.0936279296875
1.1899998999999999,-8.827422142028809,-4.692635536193848,0.05267243832349777,-18.06640625,11.6424560546875,23.25439453125
1.2099999,-8.848969459533691,-4.73573112487793,-0.0933738648891449,-15.716552734375,14.0838623046875,22.4456787109375
1.2299999,-8.846575736999512,-4.747702121734619,-0.21308395266532898,-12.26806640625,15.5029296875,22.6898193359375
1.2499999,-8.858546257019043,-4.733336925506592,-0.33039984107017517,-7.9498291015625,11.566162109375,25.2532958984375
1.2699999,-8.904036521911621,-4.683058738708496,-0.47165772318840027,-3.448486328125,4.3182373046875,30.1971435546875
1.2899999,-8.966285705566406,-4.611232280731201,-0.608127236366272,0.823974609375,-4.69970703125,34.5306396484375
1.3099999,-9.01895809173584,-4.505887508392334,-0.7086837291717529,5.2947998046875,-9.8724365234375,35.614013671875
1.3299999,-9.040505409240723,-4.388571739196777,-0.7541735172271729,10.43701171875,-9.0179443359375,34.637451171875
1.3499999,-9.042900085449219,-4.259284973144531,-0.7661445140838623,14.892578125,-7.965087890625,35.9039306640625
1.3699999,-9.040505409240723,-4.158728122711182,-0.7422025203704834,18.06640625,-11.9476318359375,40.4510498046875
1.3899999,-9.069235801696777,-4.065354347229004,-0.706289529800415,20.1568603515625,-14.739990234375,43.76220703125
1.4099999,-9.129091262817383,-3.976768970489502,-0.6536170840263367,21.9879150390625,-14.16015625,42.144775390625
1.4299998999999999,-9.21288776397705,-3.8714241981506348,-0.5674257874488831,23.4832763671875,-12.0086669921875,37.7960205078125
1.4499999,-9.299078941345215,-3.758896589279175,-0.44771572947502136,23.92578125,-5.2337646484375,36.285400390625
1.4699999,-9.39245319366455,-3.6367924213409424,-0.31842881441116333,23.3001708984375,4.1046142578125,38.421630859375
1.4899999,-9.47146224975586,-3.5194764137268066,-0.1843535304069519,23.3001708984375,7.354736328125,40.863037109375
1.5099999,-9.555258750915527,-3.3710360527038574,-0.07182604819536209,23.86474609375,4.9285888671875,41.8853759765625
1.5299999,-9.677363395690918,-3.203441858291626,-0.0071826050989329815,23.5137939453125,0.152587890625,42.236328125
1.5499999,-9.825803756713867,-3.0119056701660156,0.009576806798577309,21.9879150390625,-7.354736328125,43.27392578125
1.5699999,-9.964667320251465,-2.8227639198303223,0.021547814831137657,19.9432373046875,-17.3492431640625,45.6390380859375
1.5899999,-10.065223693847656,-2.6575639247894287,0.038307227194309235,17.303466796875,-21.1029052734375,48.8739013671875
1.6099999,-10.089165687561035,-2.5306711196899414,0.08858546614646912,14.373779296875,-18.890380859375,52.1240234375
1.6299999,-10.0580415725708,-2.4229321479797363,0.17477671802043915,11.7950439453125,-17.5628662109375,53.741455078125
1.6499999,-10.02691650390625,-2.300827741622925,0.26815059781074524,10.1165771484375,-15.4876708984375,52.1697998046875
1.6699999,-10.029311180114746,-2.164358377456665,0.36152446269989014,9.033203125,-9.918212890625,48.065185546875
1.6899998999999999,-10.091560363769531,-2.008735179901123,0.4213795065879822,7.2479248046875,-5.1727294921875,42.8924560546875
1.7099999,-10.196905136108398,-1.8507179021835327,0.47165772318840027,4.547119140625,-6.683349609375,37.139892578125
1.7299999,-10.314221382141113,-1.7118542194366455,0.49559974670410156,1.739501953125,-5.584716796875,30.3955078125
1.7499999,-10.409989356994629,-1.5658079385757446,0.5051765441894531,-0.457763671875,1.89208984375,24.47509765625
1.7699999,-10.465055465698242,-1.4197616577148438,0.5267243981361389,-1.8310546875,8.23974609375,21.8048095703125
1.7899999,-10.493785858154297,-1.278503656387329,0.5339069962501526,-3.3721923828125,12.5579833984375,22.9949951171875
1.8099999,-10.51054573059082,-1.1444283723831177,0.5410895943641663,-5.79833984375,12.908935546875,25.9246826171875
1.8299999,-10.532093048095703,-1.015141487121582,0.545877993106842,-8.819580078125,9.5977783203125,27.9693603515625
1.8499999,-10.560823440551758,-0.8738836050033569,0.5410895943641663,-12.6190185546875,4.913330078125,28.350830078125
1.8699999,-10.579977035522461,-0.6991068720817566,0.5626373887062073,-17.1051025390625,0.3814697265625,27.374267578125
1.8899999,-10.587160110473633,-0.5123591423034668,0.5889736413955688,-20.8587646484375,2.593994140625,24.96337890625
1.9099999,-10.611102104187012,-0.31603461503982544,0.6105214357376099,-22.705078125,8.4991455078125,22.2625732421875
1.9299998999999999,-10.65898609161377,-0.12928688526153564,0.6177040338516235,-23.4222412109375,10.5133056640625,20.0653076171875
1.9499999,-10.730812072753906,0.05746084079146385,0.5913678407669067,-24.1546630859375,10.5133056640625,18.1732177734375
1.9699999,-10.773907661437988,0.2106897532939911,0.5482721924781799,-24.993896484375,8.6212158203125,15.3045654296875
1.9899999,-10.747570991516113,0.3519476354122162,0.5051765441894531,-25.970458984375,4.364013671875,13.214111328125
2.0099999,-10.625467300415039,0.45010992884635925,0.47165772318840027,-27.130126953125,-0.9002685546875,13.275146484375
2.0299999,-10.465055465698242,0.5291185975074768,0.4405331015586853,-28.8543701171875,-4.7454833984375,15.0604248046875
2.0499999,-10.307038307189941,0.5817909836769104,0.42616790533065796,-29.937744140625,-8.1787109375,16.0980224609375
2.0699999,-10.192116737365723,0.6057330369949341,0.4165911078453064,-29.72412109375,-10.0860595703125,16.9219970703125
2.0899999,-10.14902114868164,0.6272808313369751,0.40462008118629456,-28.7628173828125,-10.101318359375,18.1121826171875
2.1099999,-10.137049674987793,0.6344634294509888,0.3878606855869293,-27.130126953125,-12.0086669921875,18.157958984375
2.1299999,-10.156203269958496,0.6105214357376099,0.38307225704193115,-25.390625,-13.7786865234375,18.98193359375
2.1499999,-10.232817649841309,0.5913678407669067,0.37828385829925537,-24.1851806640625,-10.1165771484375,22.9034423828125
2.1699999,-10.323798179626465,0.5722141861915588,0.3687070608139038,-22.8729248046875,-3.814697265625,28.106689453125
2.1899999,-10.441113471984863,0.5817909836769104,0.35434186458587646,-19.59228515625,-2.8076171875,30.6243896484375
2.2099999,-10.553641319274902,0.6440402865409851,0.31124621629714966,-14.7247314453125,-7.38525390625,28.4423828125
2.2299999,-10.60152530670166,0.7206547260284424,0.26815059781074524,-11.4898681640625,-14.8162841796875,24.3377685546875
2.2499999,-10.532093048095703,0.7805097699165344,0.2753331959247589,-11.29150390625,-19.683837890625,23.0712890625
2.2699999,-10.335768699645996,0.811634361743927,0.33279404044151306,-13.0157470703125,-16.66259765625,23.040771484375
2.2899999,-10.043676376342773,0.811634361743927,0.42856210470199585,-15.533447265625,-10.55908203125,20.69091796875
2.3099999,-9.739612579345703,0.7876923680305481,0.5123591423034668,-18.1884765625,-6.9122314453125,17.39501953125
2.3299999,-9.481039047241211,0.7733271718025208,0.5506663918495178,-19.6075439453125,-7.4615478515625,13.763427734375
2.3499999,-9.282320022583008,0.7493851184844971,0.5554547905921936,-18.4173583984375,-9.09423828125,6.8206787109375
2.3699999,-9.119514465332031,0.7230489253997803,0.5363011956214905,-17.0745849609375,-7.110595703125,-1.190185546875
2.3899999,-8.973467826843262,0.6967126727104187,0.5386953949928284,-17.6849365234375,-4.058837890625,-6.1187744140625
2.4099999,-8.834604263305664,0.6536170840263367,0.5506663918495178,-18.06640625,-2.044677734375,-8.3160400390625
2.4299999,-8.705317497253418,0.5985504388809204,0.5650315880775452,-17.1661376953125,-4.058837890625,-10.467529296875
2.4499999,-8.583212852478027,0.5482721924781799,0.5746083855628967,-15.80810546875,-8.8653564453125,-13.5650634765625
2.4699999,-8.434772491455078,0.49320554733276367,0.5578489899635315,-13.427734375,-11.23046875,-16.7236328125
2.4899999,-8.248024940490723,0.44771572947502136,0.5650315880775452,-8.575439453125,-11.810302734375,-17.88330078125
2.5099999,-8.030152320861816,0.38546648621559143,0.5889736413955688,-3.4942626953125,-9.5977783203125,-16.41845703125
2.5299999,-7.850587368011475,0.36152446269989014,0.6200982332229614,-0.1068115234375,-8.514404296875,-13.4124755859375
2.5499999,-7.773972988128662,0.35673606395721436,0.6823474764823914,3.84521484375,-9.5672607421875,-9.2620849609375
2.5699999,-7.862558364868164,0.3974374830722809,0.7661445140838623,8.1634521484375,-7.476806640625,-2.7618408203125
2.5899999,-8.145073890686035,0.5051765441894531,0.8667010068893433,10.5438232421875,-2.3345947265625,3.753662109375
2.6099999,-8.585607528686523,0.646434485912323,0.9816226959228516,11.2152099609375,-2.166748046875,6.683349609375
2.6299999,-9.124302864074707,0.849941611289978,1.1037269830703735,12.4053955078125,-7.2784423828125,5.5389404296875
2.6499999,-9.636661529541016,1.0295066833496094,1.2258312702178955,13.61083984375,-7.3394775390625,4.2572021484375
2.6699999,-10.079588890075684,1.1971008777618408,1.3311761617660522,13.9923095703125,-0.7781982421875,5.584716796875
2.6899999,-10.402806282043457,1.3215993642807007,1.3982137441635132,14.58740234375,2.4566650390625,5.5084228515625
2.7099999,-10.56800651550293,1.3838485479354858,1.403002142906189,15.716552734375,-3.3721923828125,2.86865234375
2.7299999,-10.591948509216309,1.4245500564575195,1.3670891523361206,16.3421630859375,-12.0697021484375,1.068115234375
2.7499999,-10.481815338134766,1.4245500564575195,1.3287819623947144,15.8233642578125,-9.979248046875,1.8310546875
2.7699999,-10.304644584655762,1.3934253454208374,1.314416766166687,15.3045654296875,1.8310546875,4.5013427734375
2.7899999,-10.163386344909668,1.359906554222107,1.3263877630233765,15.472412109375,9.124755859375,6.927490234375
2.8099999,-10.134655952453613,1.335964560508728,1.3479355573654175,16.2811279296875,9.3536376953125,6.927490234375
2.8299999,-10.20887565612793,1.3215993642807007,1.359906554222107,16.357421875,8.7890625,5.43212890625
2.8499999,-10.350133895874023,1.3192051649093628,1.3934253454208374,15.7623291015625,7.0953369140625,4.5166015625
2.8699999,-10.515334129333496,1.3192051649093628,1.434126853942871,15.167236328125,4.94384765625,3.8909912109375
2.8899999,-10.651803016662598,1.3096283674240112,1.4915876388549805,13.5955810546875,1.89208984375,4.364013671875
2.9099999,-10.730812072753906,1.2856862545013428,1.534683346748352,10.1318359375,-1.0223388671875,7.415771484375
2.9299999,-10.714052200317383,1.2737152576446533,1.5658079385757446,7.110595703125,-2.6397705078125,10.8184814453125
2.9499999,-10.644620895385742,1.2880805730819702,1.5705963373184204,6.134033203125,2.655029296875,10.284423828125
2.9699999,-10.529699325561523,1.3120225667953491,1.5514427423477173,6.04248046875,10.5438232421875,6.683349609375
2.9899999,-10.433931350708008,1.3479355573654175,1.5155296325683594,4.4403076171875,9.1552734375,4.8370361328125
3.0099999,-10.366893768310547,1.359906554222107,1.4724340438842773,1.6937255859375,2.4871826171875,5.584716796875
3.0299999,-10.33098030090332,1.3239935636520386,1.4389152526855469,-0.9002685546875,1.1444091796875,6.1798095703125
3.0499999,-10.319009780883789,1.2521674633026123,1.403002142906189,-2.471923828125,3.47900390625,5.8746337890625
3.0699999,-10.323798179626465,1.1635819673538208,1.3670891523361206,-2.86865234375,1.1444091796875,4.364013671875
3.0899999,-10.321403503417969,1.0773907899856567,1.3263877630233765,-2.7923583984375,-4.5623779296875,1.5716552734375
3.1099999,-10.280701637268066,1.0007762908935547,1.2856862545013428,-3.35693359375,-3.9215087890625,-0.7781982421875
3.1299999,-10.194510459899902,0.9552865028381348,1.2449848651885986,-4.3792724609375,1.5106201171875,-0.9918212890625
3.1499999,-10.079588890075684,0.9528923034667969,1.213860273361206,-4.94384765625,2.25830078125,-0.6103515625
3.1699999,-9.962273597717285,1.0031704902648926,1.1803414821624756,-4.8675537109375,-0.823974609375,-1.312255859375
3.1899999,-9.835380554199219,1.0989385843276978,1.1516109704971313,-5.096435546875,-1.9378662109375,-2.13623046875
3.2099999,-9.713275909423828,1.2210428714752197,1.1228805780410767,-6.256103515625,-0.48828125,-0.6103515625
3.2299999,-9.617507934570312,1.3479355573654175,1.091755986213684,-6.7901611328125,1.52587890625,2.593994140625
3.2499999,-9.5624418258667,1.45806884765625,1.0558429956436157,-4.8980712890625,2.0599365234375,3.5552978515625
3.2699999,-9.567230224609375,1.5514427423477173,1.0055646896362305,-2.5787353515625,1.739501953125,2.2430419921875
3.2899999,-9.59596061706543,1.6160861253738403,0.9600749015808105,-1.800537109375,1.0833740234375,1.953125
3.3099999,-9.636661529541016,1.647210717201233,0.9289502501487732,-2.1820068359375,1.953125,4.1351318359375
3.3299999000000002,-9.694122314453125,1.644816517829895,0.9026140570640564,-2.4566650390625,4.608154296875,6.072998046875
3.3499999,-9.75637149810791,1.6136919260025024,0.8786720037460327,-1.922607421875,5.55419921875,5.2337646484375
3.3699999,-9.816226959228516,1.5658079385757446,0.8451532125473022,-1.0223388671875,4.3182373046875,3.35693359375
3.3899999,-9.859322547912598,1.5179238319396973,0.8020575642585754,0.701904296875,5.645751953125,3.570556640625
3.4099999,-9.871294021606445,1.4772224426269531,0.7589619159698486,3.41796875,7.5836181640625,4.3792724609375
3.4299999,-9.861717224121094,1.45806884765625,0.7374141216278076,5.2032470703125,4.94384765625,4.2724609375
3.4499999,-9.856928825378418,1.4676456451416016,0.7445967197418213,4.5166015625,0.2288818359375,3.662109375
3.4699999,-9.84256362915039,1.4963760375976562,0.7924807667732239,2.227783203125,-2.0294189453125,2.9296875
3.4899999,-9.80904483795166,1.5203180313110352,0.8738836050033569,-0.67138671875,-0.274658203125,2.44140625
3.5099999,-9.78989028930664,1.5466543436050415,0.9600749015808105,-3.204345703125,3.5247802734375,2.655029296875
3.5299999,-9.785101890563965,1.5610195398330688,1.0271124839782715,-5.06591796875,5.9967041015625,2.25830078125
3.5499999,-9.797073364257812,1.556231141090393,1.0462661981582642,-6.5460205078125,5.126953125,1.251220703125
3.5699999,-9.818621635437012,1.5394717454910278,1.0199298858642578,-6.866455078125,3.11279296875,0.9613037109375
3.5899999,-9.828198432922363,1.50355863571167,0.9600749015808105,-5.7525634765625,3.5552978515625,1.0223388671875
3.6099999,-9.821015357971191,1.460463047027588,0.9026140570640564,-4.150390625,4.5318603515625,1.312255859375
3.6299999,-9.880870819091797,1.434126853942871,0.8427590131759644,0.1983642578125,4.4097900390625,-0.1983642578125
3.6499999,-9.947908401489258,1.455674648284912,0.8595184087753296,1.800537109375,2.5177001953125,-0.6103515625
3.6699999,-10.029311180114746,1.4915876388549805,0.8954314589500427,1.220703125,1.190185546875,0.579833984375
3.6899999,-10.108319282531738,1.5490485429763794,0.9433154463768005,-0.091552734375,0.6866455078125,1.1138916015625
3.7099999,-10.1753568649292,1.6112977266311646,0.9864110946655273,0.2288818359375,0.9002685546875,0.5340576171875
3.7299999,-10.237606048583984,1.6687586307525635,1.01753568649292,1.190185546875,2.349853515625,-0.213623046875
3.7499999,-10.29746150970459,1.7190368175506592,1.039083480834961,0.91552734375,1.922607421875,-0.2899169921875
3.7699999,-10.33098030090332,1.742978811264038,1.0582371950149536,-0.7781982421875,-0.7781982421875,0.1983642578125
3.7899999,-10.362105369567871,1.7501614093780518,1.0678139925003052,-2.7618408203125,-0.8697509765625,1.0528564453125
3.8099999,-10.395624160766602,1.7525556087493896,1.0654197931289673,-4.2724609375,1.7852783203125,1.0223388671875
3.8299999000000002,-10.429142951965332,1.7525556087493896,1.0534487962722778,-5.4779052734375,2.2430419921875,-0.579833984375
3.8499999,-10.472238540649414,1.7597382068634033,1.0319008827209473,-6.53076171875,2.2430419921875,-2.7618408203125
3.8699999,-10.505757331848145,1.7717092037200928,1.0031704902648926,-6.6986083984375,2.685546875,-5.706787109375
3.8899999,-10.508151054382324,1.7764976024627686,0.9864110946655273,-6.6680908203125,1.495361328125,-8.60595703125
3.9099999,-10.481815338134766,1.7693150043487549,0.9864110946655273,-7.3394775390625,1.2359619140625,-8.8653564453125
3.9299999,-10.429142951965332,1.745373010635376,0.9911994934082031,-8.1939697265625,3.1585693359375,-6.3323974609375
3.9499999,-10.357316970825195,1.7166426181793213,0.9983820915222168,-8.544921875,2.5634765625,-4.33349609375
3.9699999,-10.26394271850586,1.6974890232086182,0.9959878921508789,-8.7432861328125,-1.556396484375,-5.2947998046875
3.9899999,-10.165780067443848,1.6903064250946045,0.993593692779541,-9.5672607421875,-2.3651123046875,-7.5225830078125
4.0099999,-10.0580415725708,1.6855180263519287,1.0007762908935547,-9.5977783203125,2.13623046875,-8.6212158203125
4.029999900000001,-9.971850395202637,1.6615760326385498,1.0127472877502441,-9.033203125,7.537841796875,-8.48388671875
4.0499999,-9.928754806518555,1.6184803247451782,1.0295066833496094,-8.5296630859375,7.965087890625,-9.6282958984375
4.069999900000001,-9.938331604003906,1.580173134803772,1.0271124839782715,-8.7127685546875,3.60107421875,-14.007568359375
4.0899999000000005,-9.93354320526123,1.534683346748352,1.0223240852355957,-9.063720703125,-0.7781982421875,-20.4010009765625
4.1099999,-9.885659217834473,1.4867992401123047,1.01753568649292,-8.4686279296875,0.7476806640625,-24.10888671875
4.1299999000000005,-9.768342971801758,1.4197616577148438,1.015141487121582,-6.744384765625,6.805419921875,-23.2696533203125
4.1499999,-9.605537414550781,1.316810965538025,1.0055646896362305,-4.82177734375,11.23046875,-20.1416015625
4.1699999000000005,-9.485827445983887,1.2066776752471924,0.9792284965515137,-2.3193359375,10.8489990234375,-17.120361328125
4.1899999,-9.428366661071777,1.115697979927063,0.933738648891449,0.8392333984375,7.99560546875,-16.510009765625
4.209999900000001,-9.435548782348633,1.0630255937576294,0.8834604024887085,3.41796875,5.7373046875,-17.76123046875
4.2299999,-9.473855972290039,1.0462661981582642,0.849941611289978,4.69970703125,5.096435546875,-18.280029296875
4.249999900000001,-9.526528358459473,1.0654197931289673,0.8379706144332886,4.6539306640625,5.828857421875,-17.974853515625
4.2699999,-9.583989143371582,1.0869675874710083,0.8427590131759644,3.7078857421875,6.7138671875,-18.4173583984375
4.289999900000001,-9.670180320739746,1.1228805780410767,0.8547300100326538,2.4261474609375,7.9193115234375,-20.5230712890625
4.3099999,-9.746794700622559,1.1348515748977661,0.8619126081466675,0.79345703125,9.429931640625,-25.115966796875
4.329999900000001,-9.785101890563965,1.1061211824417114,0.8667010068893433,-1.2054443359375,9.613037109375,-28.4576416015625
4.3499999,-9.782708168029785,1.0414776802062988,0.8523358106613159,-3.082275390625,9.0484619140625,-27.3590087890625
4.369999900000001,-9.749189376831055,0.9193734526634216,0.8236053586006165,-4.4708251953125,7.6141357421875,-25.20751953125
4.3899999,-9.725247383117676,0.7948749661445618,0.7661445140838623,-4.638671875,6.3323974609375,-27.374267578125
4.409999900000001,-9.68933391571045,0.6416460275650024,0.6943184733390808,-3.2501220703125,6.4239501953125,-35.2020263671875
4.4299999,-9.605537414550781,0.47884035110473633,0.6272808313369751,-2.105712890625,8.48388671875,-41.1834716796875
4.449999900000001,-9.47146224975586,0.272938996553421,0.5937620401382446,-3.1585693359375,11.871337890625,-40.6646728515625
4.4699999,-9.368511199951172,0.05027823522686958,0.5770025849342346,-4.9896240234375,16.90673828125,-37.689208984375
4.489999900000001,-9.378087997436523,-0.15801730751991272,0.545877993106842,-4.669189453125,19.8822021484375,-40.5426025390625
4.5099999,-9.47146224975586,-0.3423708379268646,0.5027823448181152,-2.8839111328125,15.289306640625,-48.736572265625
4.529999900000001,-9.624691009521484,-0.4812345504760742,0.42377370595932007,-2.5634765625,11.16943359375,-54.0771484375
4.5499999,-9.744400978088379,-0.5961562395095825,0.3447650372982025,-3.5552978515625,11.6119384765625,-55.511474609375
4.569999900000001,-9.80904483795166,-0.6847416758537292,0.2537853717803955,-3.7841796875,11.4593505859375,-58.4716796875
4.5899999000000005,-9.746794700622559,-0.8188169598579407,0.20350714027881622,-3.387451171875,7.4005126953125,-62.8509521484375
4.609999900000001,-9.622296333312988,-0.9888052940368652,0.14604631066322327,-2.838134765625,8.72802734375,-63.0035400390625
4.6299999000000005,-9.409213066101074,-1.237802267074585,0.10773907601833344,-1.89208984375,10.2996826171875,-61.279296875
4.6499999,-9.165003776550293,-1.5179238319396973,0.047884032130241394,-0.4425048828125,4.8980712890625,-63.8275146484375
4.6699999000000005,-8.858546257019043,-1.8531121015548706,0.019153613597154617,0.48828125,-2.166748046875,-67.962646484375
4.6899999,-8.588001251220703,-2.205059766769409,-0.026336219161748886,1.6326904296875,6.1187744140625,-64.6209716796875
4.709999900000001,-8.370129585266113,-2.583343744277954,-0.07661445438861847,4.8980712890625,20.4315185546875,-56.2896728515625
4.7299999,-8.310274124145508,-2.9544448852539062,-0.17238251864910126,10.7421875,22.3388671875,-52.886962890625
4.749999900000001,-8.470685958862305,-3.2106244564056396,-0.3447650372982025,18.7225341796875,10.92529296875,-58.8226318359375
4.7699999,-8.705317497253418,-3.359065055847168,-0.524330198764801,26.580810546875,-2.8228759765625,-69.4427490234375
4.789999900000001,-8.841787338256836,-3.4189200401306152,-0.6248866319656372,31.8145751953125,-4.9591064453125,-75.469970703125
4.8099999,-8.793902397155762,-3.485957622528076,-0.6153098344802856,34.423828125,4.547119140625,-76.0345458984375
4.829999900000001,-8.578424453735352,-3.5960910320281982,-0.507570743560791,34.7442626953125,12.8173828125,-74.5849609375
4.8499999,-8.327033042907715,-3.732560396194458,-0.40701428055763245,35.8123779296875,15.1214599609375,-75.4241943359375
4.869999900000001,-8.161833763122559,-3.8546648025512695,-0.33997663855552673,39.6728515625,9.6588134765625,-78.887939453125
4.8899999,-8.101978302001953,-3.93367338180542,-0.3064578175544739,43.1365966796875,5.4473876953125,-82.0770263671875
4.909999900000001,-8.109161376953125,-3.998316764831543,-0.2825157940387726,44.036865234375,8.4686279296875,-84.5947265625
4.9299999,-8.14028549194336,-4.125209331512451,-0.2059013396501541,43.182373046875,9.70458984375,-84.28955078125
4.949999900000001,-8.17141056060791,-4.333505153656006,-0.10295066982507706,40.9698486328125,10.711669921875,-78.826904296875
4.9699999,-8.164227485656738,-4.616020679473877,0.016759412363171577,39.0625,11.566162109375,-72.418212890625
4.989999900000001,-8.17141056060791,-4.972756862640381,0.14604631066322327,35.797119140625,8.3465576171875,-67.2760009765625
5.0099999,-8.190564155578613,-5.324704647064209,0.2561795711517334,29.693603515625,2.7313232421875,-60.1959228515625
5.029999900000001,-8.17380428314209,-5.647922039031982,0.40462008118629456,22.39990234375,-4.69970703125,-53.77197265625
5.0499999,-8.147468566894531,-5.96874475479126,0.6129156351089478,12.3443603515625,-3.7384033203125,-51.3916015625
5.069999900000001,-8.08282470703125,-6.248866558074951,0.8379706144332886,-1.7852783203125,6.195068359375,-49.346923828125
5.0899999000000005,-7.972691535949707,-6.5050458908081055,1.0606313943862915,-16.5863037109375,7.9345703125,-45.59326171875
5.109999900000001,-7.888894557952881,-6.708553314208984,1.1971008777618408,-29.23583984375,2.99072265625,-41.595458984375
5.1299999000000005,-7.800309181213379,-6.871358871459961,1.216254472732544,-39.0167236328125,0.6561279296875,-40.3594970703125
5.1499999,-7.745242595672607,-6.97430944442749,1.1085153818130493,-46.600341796875,-0.213623046875,-40.52734375
5.1699999000000005,-7.704541206359863,-7.048529624938965,0.9145850539207458,-50.5828857421875,-5.06591796875,-40.1153564453125
5.1899999,-7.675810813903809,-7.105990409851074,0.6751648783683777,-52.276611328125,-7.171630859375,-41.412353515625
5.209999900000001,-7.63989782333374,-7.161057472229004,0.3878606855869293,-51.3763427734375,-0.9613037109375,-47.3785400390625
5.2299999,-7.556100368499756,-7.242460250854492,0.09816227108240128,-46.93603515625,1.1138916015625,-55.3131103515625
5.249999900000001,-7.453149795532227,-7.352593421936035,-0.17717093229293823,-40.4052734375,-2.86865234375,-59.9365234375
5.2699999,-7.266402244567871,-7.515398979187012,-0.4189853072166443,-33.416748046875,-0.3509521484375,-62.286376953125
5.289999900000001,-7.043741226196289,-7.735665798187256,-0.6105214357376099,-26.7791748046875,6.6070556640625,-63.8275146484375
5.3099999,-6.823474884033203,-7.99184513092041,-0.7637503147125244,-19.71435546875,7.232666015625,-61.58447265625
5.329999900000001,-6.5696892738342285,-8.24084186553955,-0.8643068075180054,-11.3677978515625,-1.0833740234375,-57.647705078125
5.3499999,-6.344634532928467,-8.401253700256348,-0.933738648891449,-4.94384765625,-8.453369140625,-56.3812255859375
5.369999900000001,-6.107608318328857,-8.44195556640625,-0.9552865028381348,-2.01416015625,-7.38525390625,-58.6700439453125
5.3899999,-5.863399982452393,-8.389283180236816,-0.9457096457481384,-0.2593994140625,-2.9449462890625,-60.546875
5.409999900000001,-5.60722017288208,-8.293514251708984,-0.9313444495201111,2.7923583984375,-3.4942626953125,-60.5621337890625
5.4299999,-5.336675643920898,-8.212111473083496,-0.9217676520347595,6.866455078125,-4.9896240234375,-60.3485107421875
5.449999900000001,-5.051765441894531,-8.178592681884766,-0.9050082564353943,10.07080078125,-0.1678466796875,-60.4248046875
5.4699999,-4.76924991607666,-8.214506149291992,-0.8858546018600464,11.4898681640625,6.8817138671875,-58.319091796875
5.489999900000001,-4.522646903991699,-8.329427719116211,-0.8595184087753296,12.420654296875,7.8277587890625,-53.03955078125
5.5099999,-4.357447147369385,-8.53532886505127,-0.8403648138046265,14.1143798828125,5.615234375,-45.7763671875
5.529999900000001,-4.264073371887207,-8.777143478393555,-0.8236053586006165,15.3656005859375,3.8909912109375,-37.78076171875
5.5499999,-4.261679172515869,-9.011775016784668,-0.7996633648872375,14.8468017578125,0.9918212890625,-29.266357421875
5.569999900000001,-4.331110954284668,-9.196128845214844,-0.7398083209991455,13.671875,-2.9296875,-20.477294921875
5.5899999000000005,-4.467580318450928,-9.311050415039062,-0.6631938815116882,12.3748779296875,-2.44140625,-12.908935546875
5.609999900000001,-4.63517427444458,-9.344569206237793,-0.5674257874488831,10.6048583984375,1.40380859375,-8.6517333984375
5.6299999000000005,-4.790797710418701,-9.272743225097656,-0.45010992884635925,8.941650390625,5.0811767578125,-8.1939697265625
5.6499999,-4.917690277099609,-9.129091262817383,-0.33279404044151306,7.99560546875,9.8724365234375,-9.7808837890625
5.6699999000000005,-5.020640850067139,-8.966285705566406,-0.21547815203666687,6.256103515625,13.153076171875,-11.5509033203125
5.6899999,-5.073313236236572,-8.832210540771484,-0.10773907601833344,2.50244140625,14.190673828125,-13.5955810546875
5.709999900000001,-5.0469770431518555,-8.7484130859375,-0.002394201699644327,-2.1820068359375,13.61083984375,-16.7236328125
5.7299999,-4.920084476470947,-8.69095230102539,0.10773907601833344,-5.4779052734375,13.3209228515625,-20.4010009765625
5.749999900000001,-4.726154327392578,-8.645462036132812,0.1867477297782898,-6.9732666015625,15.2130126953125,-23.5443115234375
5.7699999,-4.517858505249023,-8.621520042419434,0.22026655077934265,-7.4920654296875,14.923095703125,-25.5584716796875
5.789999900000001,-4.302380561828613,-8.635885238647461,0.22744916379451752,-6.8817138671875,11.90185546875,-26.5350341796875
5.8099999,-4.1180267333984375,-8.700529098510742,0.19632454216480255,-5.8135986328125,11.627197265625,-26.7333984375
5.829999900000001,-3.9600095748901367,-8.791508674621582,0.15083470940589905,-4.547119140625,9.2010498046875,-25.726318359375
5.8499999,-3.823540210723877,-8.901641845703125,0.1173158809542656,-4.33349609375,0.732421875,-24.0936279296875
5.869999900000001,-3.7277719974517822,-9.01895809173584,0.08858546614646912,-7.049560546875,-4.4708251953125,-22.15576171875
5.8899999,-3.6583402156829834,-9.165003776550293,0.06224924325942993,-11.8865966796875,-2.1209716796875,-19.7906494140625
5.909999900000001,-3.5936968326568604,-9.337387084960938,0.014365210197865963,-16.021728515625,0.67138671875,-17.425537109375
5.9299999,-3.509899616241455,-9.48343276977539,-0.05985504388809204,-16.204833984375,-0.946044921875,-15.838623046875
5.949999900000001,-3.44765043258667,-9.603142738342285,-0.181959331035614,-13.824462890625,-2.655029296875,-17.120361328125
5.9699999,-3.378218650817871,-9.679757118225098,-0.3256114423274994,-12.20703125,-1.5411376953125,-19.47021484375
5.989999900000001,-3.246537446975708,-9.72285270690918,-0.4429273009300232,-11.0626220703125,-0.823974609375,-20.6146240234375
6.0099999,-3.0765492916107178,-9.775525093078613,-0.524330198764801,-10.31494140625,1.8310546875,-20.93505859375
6.029999900000001,-2.889801502227783,-9.86889934539795,-0.586579442024231,-8.5906982421875,4.3792724609375,-20.3704833984375
6.0499999,-2.7030537128448486,-10.000580787658691,-0.6440402865409851,-6.9732666015625,0.091552734375,-19.83642578125
6.069999900000001,-2.492363929748535,-10.137049674987793,-0.6584054827690125,-6.3934326171875,-8.758544921875,-19.3023681640625
6.0899999000000005,-2.2649147510528564,-10.223240852355957,-0.6344634294509888,-7.2784423828125,-8.6669921875,-18.06640625
6.109999900000001,-2.0374655723571777,-10.259154319763184,-0.6057330369949341,-7.4005126953125,-2.6397705078125,-15.838623046875
6.1299999000000005,-1.843535304069519,-10.249577522277832,-0.5841852426528931,-5.1422119140625,-6.3323974609375,-11.7645263671875
6.149999900000001,-1.7190368175506592,-10.228029251098633,-0.5985504388809204,-2.593994140625,-16.2506103515625,-7.568359375
6.1699999000000005,-1.7094600200653076,-10.232817649841309,-0.667982280254364,-0.1678466796875,-19.744873046875,-4.2724609375
6.1899999,-1.764526605606079,-10.251971244812012,-0.727837324142456,2.349853515625,-18.85986328125,-2.8839111328125
6.209999900000001,-1.8579005002975464,-10.24239444732666,-0.7589619159698486,5.0506591796875,-18.1884765625,-4.302978515625
6.2299999,-1.9776105880737305,-10.189722061157227,-0.7661445140838623,6.89697265625,-18.2037353515625,-8.60595703125
6.249999900000001,-2.1164743900299072,-10.108319282531738,-0.7637503147125244,7.537841796875,-20.721435546875,-13.9312744140625
6.2699999,-2.229001760482788,-9.979032516479492,-0.7206547260284424,6.866455078125,-24.017333984375,-18.3563232421875
6.289999900000001,-2.3080103397369385,-9.830592155456543,-0.6536170840263367,4.9591064453125,-19.9432373046875,-22.552490234375
6.3099999,-2.367865562438965,-9.6989107131958,-0.6009446382522583,3.35693359375,-11.1541748046875,-26.0009765625
6.329999900000001,-2.3918075561523438,-9.605537414550781,-0.5650315880775452,3.7078857421875,-11.4593505859375,-27.0843505859375
6.3499999,-2.3918075561523438,-9.552865028381348,-0.545877993106842,4.7760009765625,-16.8914794921875,-25.5584716796875
6.369999900000001,-2.365471363067627,-9.526528358459473,-0.5410895943641663,4.1046142578125,-14.251708984375,-23.2696533203125
6.3899999,-2.322375535964966,-9.526528358459473,-0.5315127968788147,2.655029296875,-6.7138671875,-21.1639404296875
6.409999900000001,-2.2840683460235596,-9.53849983215332,-0.5267243981361389,2.838134765625,-5.3863525390625,-17.669677734375
6.4299999,-2.2601263523101807,-9.557653427124023,-0.5291185975074768,4.2266845703125,-9.552001953125,-12.298583984375
6.449999900000001,-2.255337953567505,-9.581595420837402,-0.5410895943641663,5.1422119140625,-10.25390625,-7.7362060546875
6.4699999,-2.255337953567505,-9.603142738342285,-0.5434837937355042,5.7525634765625,-7.965087890625,-5.18798828125
6.489999900000001,-2.279279947280884,-9.651026725769043,-0.524330198764801,7.9193115234375,-8.0718994140625,-2.4566650390625
6.5099999,-2.3080103397369385,-9.6989107131958,-0.4644751250743866,10.009765625,-6.317138671875,-0.18310546875
6.529999900000001,-2.387019157409668,-9.770736694335938,-0.3974374830722809,10.25390625,-0.91552734375,0.30517578125
6.5499999,-2.5019407272338867,-9.840168952941895,-0.3256114423274994,10.0555419921875,0.1678466796875,0.7781982421875
6.569999900000001,-2.6168625354766846,-9.885659217834473,-0.22505496442317963,7.6751708984375,-4.150390625,-0.7171630859375
6.5899999000000005,-2.7246015071868896,-9.907206535339355,-0.12928688526153564,5.2490234375,-4.0435791015625,-1.5869140625
6.609999900000001,-2.8107926845550537,-9.914389610290527,-0.040701430290937424,3.23486328125,2.0599365234375,-3.4942626953125
6.6299999000000005,-2.8658595085144043,-9.921571731567383,0.038307227194309235,2.197265625,3.0670166015625,-5.31005859375
6.649999900000001,-2.8850131034851074,-9.959878921508789,0.11971008777618408,0.457763671875,-3.021240234375,-6.011962890625
6.6699999000000005,-2.8371291160583496,-9.974244117736816,0.13168109953403473,-0.3204345703125,0.5340576171875,-7.110595703125
6.6899999,-2.7461493015289307,-9.962273597717285,0.13168109953403473,0.396728515625,1.6937255859375,-8.087158203125
6.709999900000001,-2.647987127304077,-9.931148529052734,0.12449848651885986,1.800537109375,-2.9296875,-7.232666015625
6.7299999,-2.5450363159179688,-9.885659217834473,0.1173158809542656,1.4190673828125,-7.3089599609375,-5.6915283203125
6.749999900000001,-2.434903144836426,-9.840168952941895,0.11971008777618408,-1.220703125,-7.2174072265625,-4.913330078125
6.7699999,-2.3127987384796143,-9.801861763000488,0.13168109953403473,-3.204345703125,-6.7138671875,-4.4097900390625
6.789999900000001,-2.190694570541382,-9.785101890563965,0.12928688526153564,-3.082275390625,-8.7738037109375,-2.6702880859375
6.8099999,-2.0805611610412598,-9.785101890563965,0.09816227108240128,-2.4566650390625,-9.6282958984375,-0.762939453125
6.829999900000001,-2.011129379272461,-9.806650161743164,0.028730420395731926,-1.434326171875,-6.7901611328125,-0.48828125
6.8499999,-1.9752163887023926,-9.84256362915039,-0.05506663769483566,0.946044921875,-4.5013427734375,-1.1138916015625
6.869999900000001,-1.965639591217041,-9.873687744140625,-0.1388636976480484,3.875732421875,-4.1656494140625,-1.3427734375
6.8899999,-1.9536685943603516,-9.883264541625977,-0.20111294090747833,6.256103515625,-2.410888671875,-2.25830078125
6.909999900000001,-1.946485996246338,-9.890447616577148,-0.23942017555236816,8.697509765625,2.5634765625,-4.4708251953125
6.9299999,-1.920149803161621,-9.883264541625977,-0.22744916379451752,10.92529296875,5.462646484375,-6.16455078125
6.949999900000001,-1.867477297782898,-9.856928825378418,-0.17956513166427612,12.2528076171875,3.6468505859375,-5.06591796875
6.9699999,-1.7980455160140991,-9.816226959228516,-0.0933738648891449,10.2996826171875,3.41796875,-2.38037109375
6.989999900000001,-1.7190368175506592,-9.761159896850586,0.016759412363171577,6.6375732421875,6.7138671875,-0.54931640625
7.0099999,-1.6615760326385498,-9.68694019317627,0.10534487664699554,4.7454833984375,9.7198486328125,-0.213623046875
7.029999900000001,-1.6496049165725708,-9.622296333312988,0.15801730751991272,4.5928955078125,7.965087890625,-1.03759765625
7.0499999,-1.6903064250946045,-9.583989143371582,0.16998831927776337,4.7607421875,2.593994140625,-1.3885498046875
7.069999900000001,-1.7621324062347412,-9.591172218322754,0.17477671802043915,3.7994384765625,-0.5340576171875,-0.946044921875
7.0899999000000005,-1.8602946996688843,-9.672574996948242,0.19153612852096558,1.5869140625,3.021240234375,-0.79345703125
7.109999900000001,-1.968033790588379,-9.837775230407715,0.21308395266532898,-0.2593994140625,7.4310302734375,-0.3662109375
7.1299999000000005,-2.10210919380188,-10.105925559997559,0.21547815203666687,-1.0528564453125,4.9285888671875,2.38037109375
7.149999900000001,-2.248155355453491,-10.441113471984863,0.2322375625371933,-1.77001953125,-0.4425048828125,7.7362060546875
7.1699999000000005,-2.4181437492370605,-10.826580047607422,0.22505496442317963,-2.685546875,2.655029296875,13.916015625
7.1899999,-2.626439332962036,-11.231200218200684,0.2106897532939911,-2.3956298828125,8.8958740234375,19.6533203125
7.209999900000001,-2.868253707885742,-11.60708999633789,0.17717093229293823,-0.54931640625,9.09423828125,25.2532958984375
7.2299999,-3.1244332790374756,-11.920730590820312,0.12689268589019775,1.708984375,6.9122314453125,30.426025390625
7.249999900000001,-3.35667085647583,-12.136208534240723,0.08858546614646912,4.0130615234375,10.894775390625,34.4085693359375
7.2699999,-3.529053211212158,-12.277466773986816,0.05027823522686958,5.889892578125,19.6685791015625,37.7197265625
7.289999900000001,-3.6320040225982666,-12.145785331726074,0.11252748221158981,6.927490234375,29.510498046875,39.3218994140625
7.3099999,-3.6535518169403076,-11.954249382019043,0.15801730751991272,10.0860595703125,25.5279541015625,47.0123291015625
7.329999900000001,-3.6607344150543213,-11.595118522644043,0.26096799969673157,11.71875,28.8848876953125,51.1627197265625
7.3499999,-3.624821424484253,-11.219228744506836,0.3447650372982025,8.3770751953125,34.5458984375,54.2144775390625
7.369999900000001,-3.5697548389434814,-10.87446403503418,0.4118026793003082,3.72314453125,35.1104736328125,58.3648681640625
7.3899999,-3.5051112174987793,-10.536881446838379,0.45489832758903503,1.8768310546875,35.125732421875,63.629150390625
7.409999900000001,-3.5194764137268066,-10.273519515991211,0.44532153010368347,2.0294189453125,35.3240966796875,70.1751708984375
7.4299999,-3.6128504276275635,-10.043676376342773,0.38307225704193115,2.3193359375,28.6407470703125,76.019287109375
7.449999900000001,-3.821146011352539,-9.914389610290527,0.2753331959247589,5.67626953125,14.2364501953125,79.52880859375
7.4699999,-4.048594951629639,-9.801861763000488,0.19871874153614044,7.1868896484375,7.0648193359375,77.5604248046875
7.489999900000001,-4.194641590118408,-9.677363395690918,0.2082955539226532,5.4779052734375,19.775390625,69.7174072265625
7.5099999,-4.304774761199951,-9.502586364746094,0.26815059781074524,1.190185546875,42.8009033203125,59.5855712890625
7.529999900000001,-4.364629745483398,-9.284713745117188,0.3280056416988373,-0.8087158203125,55.419921875,49.3621826171875
7.5499999,-4.4723687171936035,-9.069235801696777,0.30885201692581177,0.6561279296875,51.7425537109375,40.0390625
7.569999900000001,-4.642356872558594,-8.87051773071289,0.20350714027881622,2.99072265625,42.6483154296875,33.4930419921875
7.5899999000000005,-4.824316501617432,-8.702922821044922,0.08140286058187485,3.082275390625,37.7197265625,27.9083251953125
7.609999900000001,-4.972756862640381,-8.542511940002441,-0.009576806798577309,3.0975341796875,39.7186279296875,18.9361572265625
7.6299999000000005,-5.0685248374938965,-8.389283180236816,-0.05746084079146385,5.950927734375,42.755126953125,6.40869140625
7.649999900000001,-5.066130638122559,-8.22887134552002,-0.06703764945268631,9.857177734375,40.58837890625,-4.425048828125
7.6699999000000005,-4.941632270812988,-8.08282470703125,-0.0454898327589035,11.16943359375,33.7371826171875,-9.246826171875
7.6899999,-4.72376012802124,-7.967903137207031,-0.004788403399288654,9.674072265625,26.9775390625,-6.988525390625
7.709999900000001,-4.426878929138184,-7.903259754180908,0.05267243832349777,8.087158203125,23.49853515625,0.274658203125
7.7299999,-4.129997730255127,-7.881711959838867,0.11252748221158981,5.828857421875,23.0865478515625,10.7421875
7.749999900000001,-3.912125587463379,-7.8960771560668945,0.1412578970193863,2.593994140625,21.6064453125,23.1475830078125
7.7699999,-3.840299606323242,-7.931990146636963,0.12449848651885986,-0.579833984375,17.27294921875,35.21728515625
7.789999900000001,-3.936067581176758,-7.9415669441223145,0.06224924325942993,-1.5411376953125,13.6871337890625,44.189453125
7.8099999,-4.134786128997803,-7.876923561096191,-0.035913024097681046,0.42724609375,13.671875,47.8668212890625
7.829999900000001,-4.357447147369385,-7.716512203216553,-0.1364694982767105,3.60107421875,11.8408203125,47.7447509765625
7.8499999,-4.592078685760498,-7.527369976043701,-0.24660277366638184,5.4931640625,4.119873046875,48.27880859375
7.869999900000001,-4.881777286529541,-7.352593421936035,-0.37828385829925537,6.2255859375,-8.9569091796875,52.2003173828125
7.8899999,-5.161899089813232,-7.19936466217041,-0.45489832758903503,8.6822509765625,-19.805908203125,54.0771484375
7.909999900000001,-5.4228668212890625,-7.060500621795654,-0.47165772318840027,13.12255859375,-19.10400390625,48.64501953125
7.9299999,-5.578489780426025,-6.890512466430664,-0.38067805767059326,15.0604248046875,-12.7410888671875,41.32080078125
7.949999900000001,-5.635950565338135,-6.756437301635742,-0.23942017555236816,12.4969482421875,-10.528564453125,40.191650390625
7.9699999,-5.6455278396606445,-6.646304130554199,-0.0933738648891449,9.3994140625,-14.6484375,45.5474853515625
7.989999900000001,-5.65031623840332,-6.5912370681762695,0.023942016065120697,9.21630859375,-14.3280029296875,49.530029296875
8.0099999,-5.70777702331543,-6.521805286407471,0.08858546614646912,8.5906982421875,-9.27734375,49.163818359375
8.0299999,-5.827486991882324,-6.433219909667969,0.1173158809542656,5.92041015625,-11.7645263671875,49.0570068359375
8.049999900000001,-5.975927352905273,-6.320692539215088,0.1388636976480484,2.13623046875,-21.240234375,50.445556640625
8.069999900000001,-6.189011573791504,-6.236895561218262,0.15322890877723694,-1.2054443359375,-23.13232421875,51.2542724609375
8.0899999,-6.390124320983887,-6.1770405769348145,0.1867477297782898,-5.06591796875,-15.350341796875,52.18505859375
8.1099999,-6.607996463775635,-6.160281181335449,0.21547815203666687,-10.589599609375,-11.1236572265625,56.3812255859375
8.129999900000001,-6.821080684661865,-6.129156112670898,0.21547815203666687,-16.998291015625,-16.8304443359375,62.07275390625
8.149999900000001,-7.046135425567627,-6.074089527130127,0.16998831927776337,-18.7225341796875,-24.3988037109375,63.3087158203125
8.1699999,-7.249642848968506,-5.966350555419922,0.1149216815829277,-18.768310546875,-24.4293212890625,60.0738525390625
8.1899999,-7.41484260559082,-5.822698593139648,0.06224924325942993,-21.0418701171875,-19.7296142578125,58.6395263671875
8.2099999,-7.546523571014404,-5.681440830230713,-0.009576806798577309,-24.871826171875,-20.6298828125,60.7757568359375
8.229999900000001,-7.663839817047119,-5.552153587341309,-0.07900865375995636,-26.4739990234375,-29.1290283203125,62.6678466796875
8.2499999,-7.781155586242676,-5.439626216888428,-0.1412578970193863,-25.3753662109375,-32.2723388671875,61.309814453125
8.2699999,-7.898471355438232,-5.327098846435547,-0.1628057211637497,-25.909423828125,-25.3143310546875,59.2041015625
8.2899999,-8.044517517089844,-5.197812080383301,-0.17477671802043915,-29.205322265625,-17.8375244140625,58.7310791015625
8.309999900000001,-8.195352554321289,-5.044582843780518,-0.1867477297782898,-30.09033203125,-18.6920166015625,56.70166015625
8.3299999,-8.315062522888184,-4.90571928024292,-0.21547815203666687,-27.4200439453125,-18.646240234375,52.79541015625
8.3499999,-8.418013572692871,-4.764461517333984,-0.2777273952960968,-25.634765625,-9.429931640625,52.67333984375
8.3699999,-8.506598472595215,-4.649539470672607,-0.35913026332855225,-24.71923828125,-4.1961669921875,55.023193359375
8.389999900000001,-8.59997272491455,-4.572925090789795,-0.45250412821769714,-21.7437744140625,-12.6190185546875,55.60302734375
8.4099999,-8.753201484680176,-4.484339714050293,-0.5817909836769104,-15.1519775390625,-18.9056396484375,54.13818359375
8.4299999,-8.899248123168945,-4.393360137939453,-0.7038952708244324,-6.53076171875,-16.357421875,51.4984130859375
8.4499999,-9.038111686706543,-4.278438568115234,-0.8044517636299133,0.5340576171875,-12.9547119140625,49.713134765625
8.469999900000001,-9.17697525024414,-4.146757125854492,-0.849941611289978,6.0272216796875,-16.6473388671875,47.4853515625
8.4899999,-9.30386734008789,-4.005499362945557,-0.8427590131759644,11.4288330078125,-22.1099853515625,44.49462890625
8.5099999,-9.394847869873047,-3.8546648025512695,-0.7661445140838623,16.3421630859375,-19.7296142578125,43.27392578125
8.5299999,-9.421183586120605,-3.713406801223755,-0.646434485912323,19.317626953125,-14.0838623046875,46.20361328125
8.549999900000001,-9.39245319366455,-3.5745432376861572,-0.49799394607543945,20.81298828125,-16.9677734375,52.215576171875
8.569999900000001,-9.3828763961792,-3.4141316413879395,-0.3280056416988373,21.575927734375,-26.702880859375,55.72509765625
8.5899999,-9.41400146484375,-3.222595453262329,-0.1364694982767105,21.4080810546875,-29.2510986328125,53.6651611328125
8.6099999,-9.476250648498535,-3.004723072052002,0.10773907601833344,18.5546875,-22.8118896484375,50.201416015625
8.629999900000001,-9.557653427124023,-2.75812029838562,0.3758896589279175,13.7786865234375,-15.3656005859375,48.095703125
8.649999900000001,-9.591172218322754,-2.5330653190612793,0.6703764796257019,9.1400146484375,-14.862060546875,45.5474853515625
8.6699999,-9.610325813293457,-2.3271639347076416,0.9528923034667969,3.8299560546875,-15.3350830078125,43.3197021484375
8.6899999,-9.615114212036133,-2.126051187515259,1.2114660739898682,-2.62451171875,-11.322021484375,42.7398681640625
8.709999900000001,-9.615114212036133,-1.9321208000183105,1.4437036514282227,-9.0789794921875,-5.2337646484375,42.3431396484375
8.729999900000001,-9.624691009521484,-1.745373010635376,1.6160861253738403,-14.434814453125,0.244140625,41.07666015625
8.7499999,-9.639056205749512,-1.5921441316604614,1.7094600200653076,-18.5394287109375,3.2958984375,39.1998291015625
8.7699999,-9.684545516967773,-1.479616641998291,1.7142484188079834,-22.491455078125,3.8604736328125,38.0096435546875
8.7899999,-9.75397777557373,-1.4077905416488647,1.6543933153152466,-26.7486572265625,1.9073486328125,36.895751953125
8.809999900000001,-9.825803756713867,-1.359906554222107,1.5394717454910278,-31.036376953125,-2.0904541015625,34.7900390625
8.8299999,-9.8784761428833,-1.314416766166687,1.400607943534851,-34.0728759765625,-4.974365234375,32.65380859375
8.8499999,-9.9000244140625,-1.2713210582733154,1.2545616626739502,-35.2020263671875,-3.204345703125,31.829833984375
8.8699999,-9.914389610290527,-1.2042834758758545,1.1061211824417114,-34.6221923828125,0.8392333984375,30.09033203125
8.889999900000001,-9.950302124023438,-1.1252747774124146,0.9600749015808105,-31.79931640625,2.685546875,25.3753662109375
8.9099999,-10.007762908935547,-1.0342950820922852,0.8236053586006165,-28.350830078125,2.5787353515625,20.3399658203125
8.9299999,-10.0580415725708,-0.9433154463768005,0.7086837291717529,-23.86474609375,2.838134765625,18.24951171875
8.9499999,-10.089165687561035,-0.8451532125473022,0.629675030708313,-18.1121826171875,2.5177001953125,18.585205078125
8.969999900000001,-10.086771965026855,-0.7469909191131592,0.5961562395095825,-12.1002197265625,1.40380859375,19.10400390625
8.9899999,-10.079588890075684,-0.6224924325942993,0.6033388376235962,-6.500244140625,0.0457763671875,19.073486328125
9.0099999,-10.098742485046387,-0.45489832758903503,0.6392518281936646,-0.7781982421875,-2.166748046875,17.9290771484375
9.0299999,-10.129867553710938,-0.24420857429504395,0.7134721279144287,5.126953125,-6.28662109375,15.7928466796875
9.049999900000001,-10.146626472473145,-0.0454898327589035,0.8403648138046265,8.880615234375,-9.8419189453125,14.2974853515625
9.069999900000001,-10.137049674987793,0.1173158809542656,1.0223240852355957,8.6517333984375,-10.7421875,15.3350830078125
9.0899999,-10.093954086303711,0.21308395266532898,1.2521674633026123,5.218505859375,-9.1094970703125,18.2952880859375
9.1099999,-10.007762908935547,0.22505496442317963,1.4891934394836426,0.457763671875,-7.3699951171875,20.20263671875
9.129999900000001,-9.909601211547852,0.19871874153614044,1.6855180263519287,-4.2877197265625,-7.0343017578125,19.59228515625
9.149999900000001,-9.78989028930664,0.15562310814857483,1.8291701078414917,-7.7972412109375,-6.591796875,16.0064697265625
9.1699999,-9.651026725769043,0.0933738648891449,1.9249382019042969,-10.833740234375,-4.0283203125,11.8560791015625
9.1899999,-9.531316757202148,0.019153613597154617,1.968033790588379,-14.1754150390625,0.8087158203125,10.162353515625
9.209999900000001,-9.476250648498535,-0.05267243832349777,1.9488801956176758,-16.2200927734375,3.448486328125,9.6435546875
9.229999900000001,-9.47146224975586,-0.1149216815829277,1.8626888990402222,-14.8773193359375,-0.30517578125,7.0037841796875
9.2499999,-9.509769439697266,-0.1364694982767105,1.7405846118927002,-11.993408203125,-5.035400390625,3.814697265625
9.2699999,-9.564835548400879,-0.11252748221158981,1.625662922859192,-10.0860595703125,-2.62451171875,3.1585693359375
9.2899999,-9.639056205749512,-0.05506663769483566,1.534683346748352,-10.040283203125,3.2806396484375,4.0283203125
9.309999900000001,-9.737217903137207,0.021547814831137657,1.4987702369689941,-10.1470947265625,3.60107421875,4.1046142578125
9.3299999,-9.859322547912598,0.08858546614646912,1.4939818382263184,-10.68115234375,2.1820068359375,4.8065185546875
9.3499999,-9.995792388916016,0.14604631066322327,1.501164436340332,-12.9852294921875,5.126953125,7.3089599609375
9.3699999,-10.120290756225586,0.16998831927776337,1.4867992401123047,-14.4805908203125,8.4991455078125,9.1400146484375
9.389999900000001,-10.230423927307129,0.17717093229293823,1.455674648284912,-13.6566162109375,4.638671875,9.46044921875
9.4099999,-10.316615104675293,0.16519992053508759,1.37906014919281,-11.749267578125,-1.129150390625,9.8724365234375
9.4299999,-10.376470565795898,0.1628057211637497,1.2856862545013428,-10.4217529296875,-3.0517578125,9.7503662109375
9.4499999,-10.376470565795898,0.14844051003456116,1.2018892765045166,-9.3841552734375,-2.3956298828125,7.99560546875
9.469999900000001,-10.314221382141113,0.13168109953403473,1.1180921792984009,-7.75146484375,-0.885009765625,7.598876953125
9.4899999,-10.218452453613281,0.1173158809542656,1.0271124839782715,-4.8065185546875,0.9002685546875,9.0789794921875
9.5099999,-10.110713958740234,0.1173158809542656,0.9385270476341248,-0.8392333984375,1.068115234375,9.3231201171875
9.5299999,-10.014945983886719,0.1412578970193863,0.8619126081466675,2.6397705078125,0.152587890625,7.7362060546875
9.549999900000001,-9.943120002746582,0.181959331035614,0.8307880163192749,5.4779052734375,-0.3662109375,7.5836181640625
9.569999900000001,-9.919178009033203,0.22505496442317963,0.8379706144332886,8.11767578125,2.8228759765625,10.68115234375
9.5899999,-9.974244117736816,0.2777273952960968,0.8834604024887085,10.68115234375,5.6304931640625,14.556884765625
9.6099999,-10.103530883789062,0.3447650372982025,0.9385270476341248,12.4664306640625,3.509521484375,15.9149169921875
9.629999900000001,-10.273519515991211,0.43095630407333374,0.9959878921508789,12.0697021484375,-3.6773681640625,14.9993896484375
9.649999900000001,-10.426748275756836,0.5267243981361389,1.0558429956436157,9.9029541015625,-9.27734375,14.5416259765625
9.6699999,-10.505757331848145,0.6153098344802856,1.1228805780410767,7.0648193359375,-9.4757080078125,13.48876953125
9.6899999,-10.484209060668945,0.6919242739677429,1.1899182796478271,4.2572021484375,-7.4920654296875,9.857177734375
9.709999900000001,-10.378864288330078,0.7493851184844971,1.259350061416626,1.3885498046875,-4.39453125,6.103515625
9.729999900000001,-10.230423927307129,0.790086567401886,1.3000515699386597,-1.922607421875,1.8768310546875,5.3253173828125
9.7499999,-10.050858497619629,0.7996633648872375,1.3096283674240112,-4.6234130859375,7.8582763671875,5.67626953125
9.7699999,-9.892841339111328,0.7757213711738586,1.292868971824646,-5.859375,9.5977783203125,4.6539306640625
9.7899999,-9.823410034179688,0.7422025203704834,1.2497732639312744,-5.7525634765625,9.6435546875,2.716064453125
9.809999900000001,-9.830592155456543,0.706289529800415,1.194706678390503,-4.0130615234375,7.3699951171875,0.3204345703125
9.8299999,-9.892841339111328,0.6823474764823914,1.1540051698684692,-1.03759765625,2.9296875,-1.312255859375
9.8499999,-9.95748519897461,0.6631938815116882,1.1276689767837524,1.7547607421875,2.2735595703125,-0.9307861328125
9.8699999,-9.988609313964844,0.6584054827690125,1.1324573755264282,4.638671875,3.5247802734375,0.701904296875
9.889999900000001,-9.99339771270752,0.667982280254364,1.158793568611145,7.110595703125,4.1351318359375,1.2359619140625
9.9099999,-9.983820915222168,0.6919242739677429,1.194706678390503,9.4757080078125,1.9073486328125,0.274658203125
9.9299999,-9.99100399017334,0.7445967197418213,1.237802267074585,11.138916015625,-2.6702880859375,-0.2593994140625
9.9499999,-9.981427192687988,0.8044517636299133,1.2737152576446533,11.29150390625,-4.119873046875,0.640869140625
9.969999900000001,-9.955090522766113,0.871489405632019,1.3072341680526733,11.3067626953125,-2.7923583984375,2.50244140625
9.9899999,-9.895236015319824,0.933738648891449,1.3455413579940796,11.7340087890625,-2.5787353515625,4.0283203125
10.0099999,-9.80904483795166,0.9959878921508789,1.381454348564148,10.9100341796875,-2.9296875,4.57763671875
10.0299999,-9.727641105651855,1.0582371950149536,1.41257905960083,8.2244873046875,-3.021240234375,3.9215087890625
10.049999900000001,-9.660603523254395,1.113303780555725,1.434126853942871,5.0048828125,-3.7689208984375,2.6397705078125
10.069999900000001,-9.610325813293457,1.1540051698684692,1.4437036514282227,2.1514892578125,-3.570556640625,2.4566650390625
10.0899999,-9.576807022094727,1.173158884048462,1.434126853942871,-0.5950927734375,-0.152587890625,3.35693359375
10.1099999,-9.567230224609375,1.1683704853057861,1.400607943534851,-2.62451171875,4.2877197265625,3.7841796875
10.129999900000001,-9.581595420837402,1.1468225717544556,1.3407529592514038,-3.0517578125,5.9356689453125,3.509521484375
10.149999900000001,-9.605537414550781,1.1085153818130493,1.2665326595306396,-2.13623046875,3.7078857421875,3.631591796875
10.1699999,-9.648633003234863,1.0606313943862915,1.1875240802764893,-1.64794921875,2.4871826171875,5.0506591796875
10.1899999,-9.684545516967773,1.0127472877502441,1.1180921792984009,-1.495361328125,2.9144287109375,6.3018798828125
10.209999900000001,-9.713275909423828,0.9768342971801758,1.0773907899856567,-0.06103515625,1.678466796875,5.8746337890625
10.229999900000001,-9.742006301879883,0.9600749015808105,1.0654197931289673,1.6632080078125,-0.0152587890625,5.584716796875
10.2499999,-9.782708168029785,0.9624691009521484,1.0845733880996704,1.46484375,1.9683837890625,6.683349609375
10.2699999,-9.84256362915039,0.9840168952941895,1.1228805780410767,0.67138671875,5.706787109375,7.7362060546875
10.2899999,-9.919178009033203,1.0127472877502441,1.170764684677124,1.0833740234375,4.8675537109375,7.659912109375
10.309999900000001,-10.012551307678223,1.0438719987869263,1.2114660739898682,1.2664794921875,0.823974609375,7.2479248046875
10.3299999,-10.101137161254883,1.0773907899856567,1.2425906658172607,-0.0152587890625,-1.7547607421875,6.4697265625
10.3499999,-10.158597946166992,1.1085153818130493,1.2689268589019775,-1.8310546875,-1.9073486328125,4.4403076171875
10.3699999,-10.17296314239502,1.1252747774124146,1.290474772453308,-2.8533935546875,-0.1068115234375,1.861572265625
10.389999900000001,-10.158597946166992,1.137245774269104,1.3000515699386597,-3.326416015625,2.4261474609375,0.54931640625
10.4099999,-10.132261276245117,1.1468225717544556,1.292868971824646,-4.913330078125,5.5389404296875,0.0457763671875
10.4299999,-10.18493366241455,1.161187767982483,1.2761094570159912,-5.4473876953125,6.0272216796875,-0.9613037109375
10.4499999,-10.29746150970459,1.1779472827911377,1.2641384601593018,-5.615234375,4.1656494140625,-2.6702880859375
10.469999900000001,-10.462661743164062,1.194706678390503,1.259350061416626,-5.859375,2.105712890625,-4.9591064453125
10.4899999,-10.627861022949219,1.194706678390503,1.2713210582733154,-6.04248046875,1.52587890625,-7.5836181640625
10.5099999,-10.776301383972168,1.1755530834197998,1.3000515699386597,-6.7291259765625,1.5869140625,-9.8114013671875
10.5299999,-10.884040832519531,1.1324573755264282,1.3407529592514038,-7.965087890625,2.166748046875,-11.9476318359375
10.549999900000001,-10.967838287353516,1.0749965906143188,1.3886369466781616,-9.185791015625,4.33349609375,-15.3045654296875
10.569999900000001,-11.03248119354248,1.0055646896362305,1.4389152526855469,-10.6353759765625,6.16455078125,-20.263671875
10.5899999,-11.101913452148438,0.9265560507774353,1.4987702369689941,-13.00048828125,6.5765380859375,-25.4669189453125
10.6099999,-11.17852783203125,0.8475474119186401,1.5514427423477173,-16.05224609375,8.575439453125,-28.86962890625
10.629999900000001,-11.250353813171387,0.768538773059845,1.5873557329177856,-18.9971923828125,10.772705078125,-32.3486328125
10.649999900000001,-11.286267280578613,0.6823474764823914,1.5945383310317993,-21.1944580078125,9.27734375,-37.994384765625
10.6699999,-11.264719009399414,0.5961562395095825,1.5634137392044067,-23.101806640625,6.622314453125,-43.9300537109375
10.6899999,-11.1474027633667,0.48602294921875,1.5107412338256836,-24.8870849609375,7.62939453125,-48.40087890625
10.709999900000001,-10.958261489868164,0.3471592366695404,1.4413094520568848,-26.2603759765625,15.838623046875,-51.5899658203125
10.729999900000001,-10.72602367401123,0.1843535304069519,1.359906554222107,-26.580810546875,25.20751953125,-54.1839599609375
10.7499999,-10.498574256896973,-0.0071826050989329815,1.2665326595306396,-26.4739990234375,28.289794921875,-56.365966796875
10.7699999,-10.326191902160645,-0.2082955539226532,1.161187767982483,-26.79443359375,26.458740234375,-57.8155517578125
10.7899999,-10.230423927307129,-0.4213795065879822,1.039083480834961,-27.28271484375,24.9481201171875,-60.4705810546875
10.809999900000001,-10.220847129821777,-0.6368576288223267,0.9050082564353943,-25.8331298828125,23.590087890625,-67.19970703125
10.8299999,-10.27591323852539,-0.849941611289978,0.7565677165985107,-22.216796875,20.3857421875,-77.5909423828125
10.8499999,-10.33098030090332,-1.072602391242981,0.6009446382522583,-18.646240234375,14.6331787109375,-88.836669921875
10.8699999,-10.29746150970459,-1.3192051649093628,0.4620809257030487,-16.693115234375,8.514404296875,-98.57177734375
10.889999900000001,-10.108319282531738,-1.6041151285171509,0.363918662071228,-15.899658203125,5.9967041015625,-106.8115234375
10.9099999,-9.768342971801758,-1.9369091987609863,0.30885201692581177,-15.2435302734375,8.270263671875,-114.1357421875
10.9299999,-9.320627212524414,-2.3247697353363037,0.2825157940387726,-14.0838623046875,10.0860595703125,-120.3765869140625
10.9499999,-8.856152534484863,-2.7485435009002686,0.2513911724090576,-13.1072998046875,5.8746337890625,-125.30517578125
10.969999900000001,-8.403648376464844,-3.1914708614349365,0.2059013396501541,-12.420654296875,-3.0975341796875,-129.608154296875
10.9899999,-7.977479934692383,-3.648763418197632,0.15083470940589905,-12.176513671875,-10.3607177734375,-133.5601806640625
11.0099999,-7.568071365356445,-4.098873138427734,0.10055647045373917,-11.444091796875,-11.3525390625,-136.0015869140625
11.0299999,-7.158663272857666,-4.527435302734375,0.07661445438861847,-9.4146728515625,-7.62939453125,-137.1307373046875
11.049999900000001,-6.773196697235107,-4.9368438720703125,0.07422025501728058,-6.072998046875,-0.8544921875,-137.3748779296875
11.069999900000001,-6.430825710296631,-5.343858242034912,0.05506663769483566,-1.708984375,3.509521484375,-135.406494140625
11.0899999,-6.143521785736084,-5.722142219543457,0.0071826050989329815,3.3721923828125,-0.5950927734375,-131.011962890625
11.1099999,-5.940014362335205,-6.069301128387451,-0.043095629662275314,9.09423828125,-8.5906982421875,-126.556396484375
11.129999900000001,-5.781997203826904,-6.380547523498535,-0.08140286058187485,14.6636962890625,-11.871337890625,-122.7569580078125
11.149999900000001,-5.671864032745361,-6.651092529296875,-0.08140286058187485,19.378662109375,-9.94873046875,-117.2943115234375
11.1699999,-5.566518783569336,-6.876147270202637,-0.028730420395731926,23.681640625,-9.8876953125,-111.083984375
11.1899999,-5.418078422546387,-7.072471618652344,0.06224924325942993,27.2369384765625,-9.6282958984375,-105.5908203125
11.209999900000001,-5.264849662780762,-7.2568254470825195,0.1867477297782898,29.5257568359375,-3.875732421875,-99.2889404296875
11.229999900000001,-5.116408824920654,-7.422025203704834,0.2968810200691223,29.4647216796875,1.89208984375,-91.73583984375
11.2499999,-4.999093055725098,-7.5632829666137695,0.3902548849582672,29.296875,-1.5411376953125,-85.205078125
11.2699999,-4.924872875213623,-7.68538761138916,0.45489832758903503,31.0516357421875,-9.82666015625,-81.1004638671875
11.2899999,-4.874594688415527,-7.766790390014648,0.5195417404174805,31.55517578125,-9.46044921875,-78.857421875
11.309999900000001,-4.821922302246094,-7.833827972412109,0.6057330369949341,32.16552734375,-0.946044921875,-76.5380859375
11.3299999,-4.809951305389404,-7.929595947265625,0.7086837291717529,33.0352783203125,5.06591796875,-73.455810546875
11.3499999,-4.788403511047363,-8.008605003356934,0.8188169598579407,32.71484375,5.615234375,-71.6094970703125
11.3699999,-4.750096321105957,-8.1139497756958,0.9265560507774353,31.463623046875,8.3770751953125,-71.6705322265625
11.389999900000001,-4.7405195236206055,-8.202534675598145,1.0295066833496094,28.5186767578125,14.9383544921875,-71.3043212890625
11.4099999,-4.704606533050537,-8.293514251708984,1.1348515748977661,25.32958984375,16.6778564453125,-72.0062255859375
11.4299999,-4.675876140594482,-8.362946510314941,1.235408067703247,21.728515625,10.3302001953125,-75.8514404296875
11.4499999,-4.611232280731201,-8.4108304977417,1.3287819623947144,17.63916015625,3.5247802734375,-80.5816650390625
11.469999900000001,-4.443638324737549,-8.394071578979492,1.4508862495422363,12.2222900390625,2.471923828125,-83.6029052734375
11.4899999,-4.125209331512451,-8.334216117858887,1.6041151285171509,3.47900390625,4.57763671875,-84.8236083984375
11.5099999,-3.73016619682312,-8.29590892791748,1.7621324062347412,-7.965087890625,5.9967041015625,-83.984375
11.5299999,-3.308786630630493,-8.31985092163086,1.8818424940109253,-19.6533203125,8.9874267578125,-79.8492431640625
11.549999900000001,-2.8874073028564453,-8.425195693969727,1.946485996246338,-29.4342041015625,13.153076171875,-73.5321044921875
11.569999900000001,-2.540247917175293,-8.628703117370605,1.9177556037902832,-37.8875732421875,20.1568603515625,-67.047119140625
11.5899999,-2.3056161403656006,-8.892065048217773,1.7717092037200928,-43.2281494140625,26.336669921875,-60.85205078125
11.6099999,-2.1811177730560303,-9.167398452758789,1.5538369417190552,-43.2281494140625,27.1453857421875,-54.9468994140625
11.629999900000001,-2.1499931812286377,-9.390059471130371,1.2856862545013428,-41.44287109375,28.0303955078125,-50.994873046875
11.649999900000001,-2.2170307636260986,-9.588777542114258,0.9720458984375,-38.787841796875,28.533935546875,-49.530029296875
11.6699999,-2.3319525718688965,-9.816226959228516,0.6560112833976746,-33.7982177734375,18.1121826171875,-47.7447509765625
11.6899999,-2.4396915435791016,-10.096348762512207,0.38307225704193115,-26.6265869140625,4.0130615234375,-44.1131591796875
11.709999900000001,-2.499546527862549,-10.429142951965332,0.17956513166427612,-20.5230712890625,1.6326904296875,-41.3970947265625
11.729999900000001,-2.470816135406494,-10.790667533874512,0.05267243832349777,-16.4794921875,7.1258544921875,-40.34423828125
11.7499999,-2.3487119674682617,-11.058817863464355,0.019153613597154617,-9.70458984375,6.0577392578125,-38.7725830078125
11.7699999,-2.0829553604125977,-11.224017143249512,0.07900865375995636,-0.06103515625,2.960205078125,-34.5306396484375
11.7899999,-1.7884687185287476,-11.197681427001953,0.1604115068912506,1.861572265625,7.9803466796875,-31.25
11.809999900000001,-1.4245500564575195,-11.075576782226562,0.31124621629714966,1.220703125,10.5133056640625,-25.3753662109375
11.8299999,-1.0821791887283325,-10.857705116271973,0.47644615173339844,-0.67138671875,7.6751708984375,-15.9149169921875
11.8499999,-0.828393816947937,-10.623072624206543,0.5937620401382446,-2.777099609375,5.2642822265625,-5.706787109375
11.8699999,-0.7230489253997803,-10.429142951965332,0.608127236366272,-4.302978515625,4.730224609375,-0.1373291015625
11.889999900000001,-0.7589619159698486,-10.268731117248535,0.5267243981361389,-1.5869140625,1.0986328125,-0.1220703125
11.9099999,-0.8786720037460327,-10.11550235748291,0.3663128614425659,4.608154296875,-2.349853515625,-3.7841796875
11.9299999,-1.0295066833496094,-10.041281700134277,0.16998831927776337,11.65771484375,-5.126953125,-8.85009765625
11.9499999,-1.0749965906143188,-10.010157585144043,0.06224924325942993,15.19775390625,-6.622314453125,-12.3291015625
11.969999900000001,-0.993593692779541,-10.043676376342773,0.0694318488240242,16.3421630859375,-0.6866455078125,-14.2059326171875
11.9899999,-0.8307880163192749,-10.105925559997559,0.17238251864910126,15.167236328125,6.683349609375,-13.5498046875
12.0099999,-0.6177040338516235,-10.139444351196289,0.3495534360408783,10.7421875,4.058837890625,-10.9100341796875
12.0299999,-0.4141969084739685,-10.146626472473145,0.5291185975074768,7.049560546875,-1.7852783203125,-8.6822509765625
12.049999900000001,-0.24181437492370605,-10.110713958740234,0.6847416758537292,5.035400390625,1.1138916015625,-7.781982421875
12.069999900000001,-0.09576806426048279,-10.050858497619629,0.7757213711738586,4.9896240234375,8.514404296875,-6.591796875
12.0899999,-0.0071826050989329815,-9.974244117736816,0.7876923680305481,5.584716796875,8.30078125,-4.0130615234375
12.1099999,0.033518824726343155,-9.9000244140625,0.7398083209991455,7.720947265625,1.708984375,-1.1138916015625
12.129999900000001,0.11971008777618408,-10.371682167053223,0.9097966551780701,11.3677978515625,2.50244140625,-0.152587890625
12.149999900000001,0.05027823522686958,-10.271124839782715,0.993593692779541,-0.6256103515625,8.056640625,-1.3275146484375
12.1699999,0.08619125932455063,-10.72841739654541,1.1180921792984009,-11.4898681640625,7.9498291015625,-5.5084228515625
12.1899999,-0.004788403399288654,-10.656591415405273,1.1324573755264282,-4.1351318359375,2.2125244140625,-3.90625
12.209999900000001,-0.026336219161748886,-10.450690269470215,0.9792284965515137,1.8310546875,-0.6256103515625,-1.89208984375
12.229999900000001,0.016759412363171577,-10.266336441040039,0.9026140570640564,-1.007080078125,4.82177734375,-1.5869140625
12.2499999,0.2082955539226532,-9.959878921508789,0.9768342971801758,-10.3607177734375,11.1846923828125,3.7689208984375
12.2699999,0.3280056416988373,-9.619902610778809,1.2114660739898682,-20.56884765625,18.7225341796875,9.857177734375
12.289999900000002,0.3280056416988373,-9.390059471130371,1.482010841369629,-31.005859375,22.0184326171875,7.2784423828125
12.309999900000001,0.0454898327589035,-9.550470352172852,1.1516109704971313,-35.7513427734375,15.2130126953125,-0.91552734375
12.3299999,-0.22505496442317963,-9.677363395690918,0.7158663272857666,-5.43212890625,1.373291015625,-2.9296875
12.3499999,-0.43335050344467163,-10.108319282531738,0.10773907601833344,16.3726806640625,1.9989013671875,-3.35693359375
12.3699999,-0.5195417404174805,-10.338163375854492,-0.5530605912208557,-1.64794921875,1.1138916015625,3.387451171875
12.389999900000001,-0.44771572947502136,-10.376470565795898,-0.4644751250743866,0.4425048828125,-3.509521484375,3.2501220703125
12.4099999,-0.4405331015586853,-10.280701637268066,-0.2944868206977844,4.1961669921875,0.18310546875,-1.495361328125
12.4299999,-0.3902548849582672,-10.17296314239502,-0.07422025501728058,-3.814697265625,-0.54931640625,-4.4403076171875
12.4499999,-0.24899697303771973,-10.022128105163574,0.31364041566848755,2.4871826171875,0.48828125,-2.2125244140625
12.469999900000001,-0.11013327538967133,-9.938331604003906,0.4572925269603729,0.6866455078125,0.8544921875,3.0517578125
12.4899999,-0.040701430290937424,-9.928754806518555,0.4908113479614258,-2.7313232421875,-0.6866455078125,5.0506591796875
12.5099999,-0.1149216815829277,-9.849745750427246,0.6033388376235962,2.5482177734375,-0.762939453125,-0.396728515625
12.5299999,-0.26336219906806946,-9.8784761428833,0.5650315880775452,1.9989013671875,0.48828125,-3.11279296875
12.549999900000001,-0.3256114423274994,-9.861717224121094,0.5171475410461426,-2.9296875,-0.18310546875,-3.936767578125
12.569999900000001,-0.2537853717803955,-9.909601211547852,0.5291185975074768,0.54931640625,0.7476806640625,-0.8544921875
12.5899999,-0.13407529890537262,-9.931148529052734,0.45489832758903503,0.42724609375,0.91552734375,1.9989013671875
12.6099999,-0.07661445438861847,-9.959878921508789,0.4405331015586853,0.7476806640625,0.7171630859375,3.5552978515625
12.629999900000001,-0.1412578970193863,-9.93354320526123,0.4429273009300232,0,0.640869140625,0.518798828125
12.649999900000001,-0.2585737705230713,-9.928754806518555,0.42616790533065796,-0.5950927734375,-0.030517578125,-2.471923828125
12.6699999,-0.2992752194404602,-9.916783332824707,0.4692635238170624,1.0833740234375,0.67138671875,-3.96728515625
12.6899999,-0.24420857429504395,-9.921571731567383,0.45250412821769714,0.396728515625,0.7476806640625,-0.18310546875
12.709999900000001,-0.1628057211637497,-9.940725326538086,0.42856210470199585,-2.227783203125,0.579833984375,2.38037109375
12.729999900000001,-0.12449848651885986,-9.931148529052734,0.4644751250743866,1.5106201171875,0.762939453125,1.9989013671875
12.7499999,-0.17956513166427612,-9.931148529052734,0.4572925269603729,1.28173828125,0.4425048828125,-1.068115234375
12.7699999,-0.23942017555236816,-9.921571731567383,0.4692635238170624,-0.7171630859375,0.213623046875,-2.410888671875
12.789999900000002,-0.24660277366638184,-9.919178009033203,0.47884035110473633,-0.3662109375,0.640869140625,-1.2054443359375
12.809999900000001,-0.21547815203666687,-9.93593692779541,0.44771572947502136,-0.4730224609375,0.6256103515625,0.6256103515625
12.8299999,-0.1843535304069519,-9.931148529052734,0.47165772318840027,1.2969970703125,0.9613037109375,0.67138671875
12.8499999,-0.19393034279346466,-9.931148529052734,0.45489832758903503,0.06103515625,0.457763671875,0.152587890625
12.8699999,-0.21787235140800476,-9.93593692779541,0.44771572947502136,-1.0833740234375,0.152587890625,-0.7171630859375
12.889999900000001,-0.22266076505184174,-9.919178009033203,0.48602294921875,1.2664794921875,0.946044921875,-1.2054443359375
12.9099999,-0.21787235140800476,-9.93593692779541,0.4596867263317108,-0.0457763671875,0.8392333984375,0.1068115234375
12.9299999,-0.21787235140800476,-9.926360130310059,0.45489832758903503,-1.312255859375,0.518798828125,0.4425048828125
12.9499999,-0.22026655077934265,-9.926360130310059,0.47884035110473633,0.7171630859375,0.640869140625,-0.701904296875
12.969999900000001,-0.21547815203666687,-9.931148529052734,0.45489832758903503,0.4425048828125,0.274658203125,-0.8087158203125
12.9899999,-0.2059013396501541,-9.931148529052734,0.48602294921875,0.3204345703125,0.823974609375,0
13.0099999,-0.20350714027881622,-9.926360130310059,0.4644751250743866,-1.0833740234375,0.7781982421875,0.54931640625
13.0299999,-0.21787235140800476,-9.93354320526123,0.4572925269603729,-0.42724609375,0.3509521484375,-0.1220703125
13.049999900000001,-0.2298433631658554,-9.916783332824707,0.4884171485900879,2.0599365234375,0.79345703125,-1.2664794921875
13.069999900000001,-0.22744916379451752,-9.931148529052734,0.4572925269603729,-0.4730224609375,0.42724609375,-0.5340576171875
13.0899999,-0.2059013396501541,-9.93354320526123,0.4644751250743866,-1.4495849609375,0.518798828125,0.4425048828125
13.1099999,-0.19393034279346466,-9.928754806518555,0.47884035110473633,0.7476806640625,0.8697509765625,-0.06103515625
13.129999900000001,-0.2059013396501541,-9.938331604003906,0.4572925269603729,0.3204345703125,0.457763671875,-0.640869140625
13.149999900000001,-0.22505496442317963,-9.923966407775879,0.47405192255973816,0.1983642578125,0.5340576171875,-0.5950927734375
13.1699999,-0.22505496442317963,-9.928754806518555,0.4644751250743866,-0.3662109375,0.48828125,-0.213623046875
13.1899999,-0.2082955539226532,-9.93593692779541,0.4644751250743866,-0.091552734375,0.5340576171875,-0.1220703125
13.209999900000001,-0.19393034279346466,-9.928754806518555,0.4908113479614258,0.9307861328125,0.9307861328125,-0.3814697265625
13.229999900000001,-0.19871874153614044,-9.93593692779541,0.4668693244457245,-0.9613037109375,0.396728515625,-0.1678466796875
13.2499999,-0.2082955539226532,-9.926360130310059,0.4812345504760742,-0.2288818359375,0.54931640625,-0.335693359375
13.2699999,-0.21547815203666687,-9.923966407775879,0.4884171485900879,1.1444091796875,0.8697509765625,-0.6103515625
13.289999900000002,-0.22266076505184174,-9.928754806518555,0.47165772318840027,-0.30517578125,0.6256103515625,-0.18310546875
13.309999900000001,-0.22505496442317963,-9.923966407775879,0.4812345504760742,-0.579833984375,0.54931640625,-0.1373291015625
13.3299999,-0.21787235140800476,-9.93354320526123,0.47644615173339844,0,0.4730224609375,-0.457763671875
13.3499999,-0.2082955539226532,-9.93354320526123,0.47405192255973816,0.4730224609375,0.5950927734375,-0.4425048828125
13.3699999,-0.2059013396501541,-9.93354320526123,0.4812345504760742,0.152587890625,0.8392333984375,0.0152587890625
13.389999900000001,-0.21547815203666687,-9.93354320526123,0.4644751250743866,-1.03759765625,0.5645751953125,0.030517578125
13.4099999,-0.2298433631658554,-9.931148529052734,0.47884035110473633,0.335693359375,0.6256103515625,-0.732421875
13.4299999,-0.2298433631658554,-9.928754806518555,0.4812345504760742,0.9765625,0.6561279296875,-0.823974609375
13.4499999,-0.21787235140800476,-9.93593692779541,0.47165772318840027,-0.6866455078125,0.518798828125,-0.030517578125
13.469999900000001,-0.19871874153614044,-9.93593692779541,0.47644615173339844,-0.701904296875,0.6866455078125,0.1983642578125
13.4899999,-0.08140286058187485,-9.940725326538086,0.5770025849342346,-0.42724609375,1.0528564453125,-0.152587890625
13.5099999,0.05027823522686958,-9.979032516479492,0.5410895943641663,-2.7313232421875,0.3662109375,3.7384033203125
13.5299999,0.12449848651885986,-9.945513725280762,0.6177040338516235,1.8768310546875,-2.197265625,7.476806640625
13.549999900000001,0.05985504388809204,-9.943120002746582,0.5434837937355042,1.5106201171875,-4.180908203125,3.3111572265625
13.569999900000001,-0.24420857429504395,-9.895236015319824,0.4644751250743866,0.3662109375,-10.0860595703125,-3.96728515625
13.5899999,-0.7613561153411865,-9.859322547912598,0.3423708379268646,0.67138671875,-8.9874267578125,-3.936767578125
13.6099999,-1.1516109704971313,-9.871294021606445,0.26815059781074524,2.685546875,-6.591796875,-11.6119384765625
13.629999900000001,-1.1109095811843872,-10.010157585144043,0.05027823522686958,-3.0975341796875,-29.266357421875,0.457763671875
13.649999900000001,-0.7182605266571045,-10.065223693847656,0.22266076505184174,2.4871826171875,-47.149658203125,16.6778564453125
13.6699999,-0.16759411990642548,-10.213664054870605,0.08858546614646912,-3.35693359375,-38.2843017578125,18.1732177734375
13.6899999,0.2322375625371933,-10.467450141906738,0.12928688526153564,-5.096435546875,-32.89794921875,17.059326171875
13.709999900000001,0.2585737705230713,-10.833763122558594,0.016759412363171577,-7.9345703125,-51.26953125,43.0908203125
13.729999900000001,-0.031124621629714966,-11.255142211914062,-0.08619125932455063,-3.7078857421875,-52.6275634765625,77.1942138671875
13.7499999,-0.45010992884635925,-11.597513198852539,-0.12449848651885986,0.1983642578125,-35.125732421875,97.0001220703125
13.7699999,-0.9169792532920837,-11.652579307556152,0.019153613597154617,-4.2877197265625,-25.238037109375,104.30908203125
13.789999900000002,-1.50355863571167,-11.444284439086914,0.16759411990642548,-9.9945068359375,-18.73779296875,102.447509765625
13.809999900000001,-2.207453966140747,-11.111490249633789,0.26336219906806946,-9.765625,-13.3819580078125,91.705322265625
13.8299999,-2.9688100814819336,-10.74996566772461,0.2753331959247589,-9.490966796875,-20.3094482421875,78.460693359375
13.8499999,-3.6511576175689697,-10.42195987701416,0.2585737705230713,-13.85498046875,-31.646728515625,64.208984375
13.8699999,-4.127603530883789,-10.1753568649292,0.2537853717803955,-17.8070068359375,-31.1431884765625,50.567626953125
13.889999900000001,-4.323928356170654,-9.998186111450195,0.2968810200691223,-22.3541259765625,-22.8729248046875,44.8150634765625
13.9099999,-4.299986362457275,-9.90241813659668,0.35673606395721436,-27.4658203125,-14.4195556640625,45.7916259765625
13.9299999,-4.113238334655762,-9.81143856048584,0.3902548849582672,-30.7464599609375,-11.6729736328125,50.1861572265625
13.9499999,-3.88818359375,-9.732429504394531,0.35673606395721436,-29.6478271484375,-13.4429931640625,56.2286376953125
13.969999900000001,-3.6367924213409424,-9.560047149658203,0.29209262132644653,-24.96337890625,-13.580322265625,62.164306640625
13.9899999,-3.406949043273926,-9.318233489990234,0.19153612852096558,-19.287109375,-11.16943359375,65.6280517578125
14.0099999,-3.3303346633911133,-9.071630477905273,0.08858546614646912,-14.404296875,-13.00048828125,69.27490234375
14.0299999,-3.397372245788574,-8.808267593383789,-0.0071826050989329815,-9.9334716796875,-17.02880859375,76.7822265625
14.049999900000001,-3.5386300086975098,-8.564059257507324,-0.06703764945268631,-4.0283203125,-18.157958984375,83.4808349609375
14.069999900000001,-3.7014358043670654,-8.307879447937012,-0.06703764945268631,2.7923583984375,-17.9901123046875,87.3260498046875
14.0899999,-3.8953661918640137,-8.08043098449707,-0.026336219161748886,7.4615478515625,-19.378662109375,92.5140380859375
14.1099999,-4.1395745277404785,-7.85537576675415,0.011971008032560349,9.3231201171875,-24.5819091796875,100.6011962890625
14.129999900000001,-4.41969633102417,-7.654263019561768,0.05746084079146385,11.474609375,-29.937744140625,106.3232421875
14.149999900000001,-4.888959884643555,-7.2352776527404785,0.22266076505184174,19.134521484375,-10.9710693359375,102.2491455078125
14.1699999,-5.044582843780518,-7.0557122230529785,0.33518823981285095,22.3388671875,-2.7618408203125,101.8829345703125
14.1899999,-5.214571475982666,-6.9024834632873535,0.4357447028160095,25.1007080078125,-2.13623046875,104.583740234375
14.209999900000001,-5.485116004943848,-6.794744491577148,0.49799394607543945,29.693603515625,4.7607421875,103.485107421875
14.229999900000001,-5.832275390625,-6.701370716094971,0.5434837937355042,34.210205078125,14.984130859375,99.6246337890625
14.2499999,-6.2392897605896,-6.610390663146973,0.5817909836769104,35.2783203125,15.9454345703125,100.0823974609375
14.2699999,-6.665457725524902,-6.4834980964660645,0.6344634294509888,34.515380859375,10.9405517578125,101.3336181640625
14.289999900000002,-7.115567684173584,-6.347028732299805,0.6727706789970398,36.773681640625,14.58740234375,94.146728515625
14.309999900000001,-7.527369976043701,-6.174646377563477,0.706289529800415,39.85595703125,20.843505859375,83.67919921875
14.3299999,-7.898471355438232,-5.990292549133301,0.7230489253997803,39.73388671875,15.228271484375,79.0863037109375
14.3499999,-8.180987358093262,-5.801150798797607,0.7661445140838623,38.75732421875,3.265380859375,75.1495361328125
14.3699999,-8.413225173950195,-5.628767967224121,0.828393816947937,39.7491455078125,2.86865234375,65.6280517578125
14.389999900000001,-8.547300338745117,-5.451597213745117,0.9385270476341248,39.3524169921875,7.8582763671875,57.769775390625
14.4099999,-8.583212852478027,-5.293580055236816,1.0869675874710083,34.72900390625,5.8135986328125,57.0526123046875
14.4299999,-8.542511940002441,-5.125985622406006,1.2258312702178955,27.2064208984375,0.9613037109375,59.14306640625
14.4499999,-8.429984092712402,-4.972756862640381,1.3503297567367554,20.263671875,0.2899169921875,57.3883056640625
14.469999900000001,-8.312667846679688,-4.795586109161377,1.4413094520568848,14.95361328125,5.0506591796875,54.046630859375
14.4899999,-8.20732307434082,-4.623203277587891,1.5059528350830078,9.490966796875,8.575439453125,53.3447265625
14.5099999,-8.145073890686035,-4.484339714050293,1.522712230682373,2.5634765625,8.2855224609375,56.5948486328125
14.5299999,-8.14028549194336,-4.367023944854736,1.501164436340332,-3.9520263671875,8.4686279296875,61.9354248046875
14.549999900000001,-8.214506149291992,-4.2760443687438965,1.4245500564575195,-8.4991455078125,12.6495361328125,66.925048828125
14.569999900000001,-8.370129585266113,-4.168305397033691,1.2976573705673218,-11.444091796875,14.678955078125,69.2596435546875
14.5899999,-8.597578048706055,-4.065354347229004,1.1204863786697388,-13.0462646484375,9.6893310546875,68.3746337890625
14.6099999,-8.877699851989746,-3.9264907836914062,0.9169792532920837,-12.5274658203125,3.509521484375,66.162109375
14.629999900000001,-9.160215377807617,-3.7636849880218506,0.7015010714530945,-9.9639892578125,3.997802734375,60.8978271484375
14.649999900000001,-9.375694274902344,-3.6080620288848877,0.5123591423034668,-8.11767578125,6.0272216796875,56.060791015625
14.6699999,-9.516951560974121,-3.4620156288146973,0.3471592366695404,-9.246826171875,2.7313232421875,57.525634765625
14.6899999,-9.531316757202148,-3.3231520652770996,0.22505496442317963,-11.5814208984375,-2.899169921875,62.1337890625
14.709999900000001,-9.459490776062012,-3.1866824626922607,0.14365209639072418,-11.8865966796875,0.42724609375,65.6890869140625
14.729999900000001,-9.349357604980469,-3.0190882682800293,0.09576806426048279,-10.0860595703125,11.4593505859375,69.000244140625
14.7499999,-9.301473617553711,-2.808398485183716,0.05506663769483566,-7.7056884765625,15.777587890625,71.4569091796875
14.7699999,-9.373299598693848,-2.5450363159179688,0.009576806798577309,-4.57763671875,10.6353759765625,69.3206787109375
14.789999900000002,-9.57441234588623,-2.2649147510528564,-0.031124621629714966,-0.2288818359375,5.9967041015625,62.3931884765625
14.809999900000001,-9.837775230407715,-1.9728221893310547,-0.038307227194309235,3.662109375,7.14111328125,55.877685546875
14.8299999,-10.089165687561035,-1.6974890232086182,-0.002394201699644327,6.16455078125,8.0413818359375,50.6744384765625
14.8499999,-10.27591323852539,-1.4987702369689941,0.05267243832349777,8.0108642578125,3.8604736328125,45.8221435546875
14.8699999,-10.376470565795898,-1.3623007535934448,0.1149216815829277,8.4991455078125,-2.8228759765625,43.0450439453125
14.889999900000001,-10.390835762023926,-1.290474772453308,0.16519992053508759,7.50732421875,-4.3182373046875,41.4581298828125
14.9099999,-10.321403503417969,-1.2521674633026123,0.21787235140800476,7.1258544921875,-0.6866455078125,39.1845703125
14.9299999,-10.20648193359375,-1.213860273361206,0.272938996553421,8.0413818359375,2.6092529296875,35.125732421875
14.9499999,-10.072406768798828,-1.1540051698684692,0.33518823981285095,9.3536376953125,2.410888671875,29.6630859375
14.969999900000001,-9.981427192687988,-1.0558429956436157,0.40701428055763245,10.345458984375,0.885009765625,24.0325927734375
14.9899999,-9.964667320251465,-0.9050082564353943,0.4884171485900879,10.4522705078125,0.4119873046875,18.9361572265625
15.0099999,-9.99339771270752,-0.7206547260284424,0.5913678407669067,9.2926025390625,-0.732421875,15.19775390625
15.0299999,-10.050858497619629,-0.5315127968788147,0.7015010714530945,7.99560546875,-1.7852783203125,14.3890380859375
15.049999900000001,-10.137049674987793,-0.31603461503982544,0.8068459630012512,7.4005126953125,-2.8228759765625,16.143798828125
15.069999900000001,-10.24239444732666,-0.090979665517807,0.8954314589500427,6.7596435546875,-3.265380859375,15.716552734375
15.0899999,-10.338163375854492,0.11252748221158981,0.9768342971801758,5.4779052734375,-4.1351318359375,12.603759765625
15.1099999,-10.453084945678711,0.3208230137825012,1.05105459690094,3.60107421875,-3.41796875,11.65771484375
15.129999900000001,-10.553641319274902,0.49320554733276367,1.1228805780410767,1.5411376953125,-0.3814697265625,11.3372802734375
15.149999900000001,-10.625467300415039,0.6129156351089478,1.194706678390503,-1.6632080078125,0.152587890625,9.6282958984375
15.1699999,-10.680533409118652,0.6943184733390808,1.237802267074585,-4.9285888671875,-2.532958984375,7.38525390625
15.1899999,-10.699687004089355,0.7493851184844971,1.2521674633026123,-5.035400390625,-5.2947998046875,4.57763671875
15.209999900000001,-10.678139686584473,0.8092401623725891,1.237802267074585,-1.4495849609375,-3.2196044921875,0.3204345703125
15.229999900000001,-10.599130630493164,0.8547300100326538,1.2114660739898682,2.9449462890625,1.77001953125,-4.364013671875
15.2499999,-10.484209060668945,0.8834604024887085,1.1899182796478271,6.1492919921875,5.1422119140625,-6.2713623046875
15.2699999,-10.366893768310547,0.9097966551780701,1.1659762859344482,9.3536376953125,7.232666015625,-7.2479248046875
15.289999900000002,-10.187328338623047,0.8954314589500427,1.1492167711257935,12.3138427734375,6.4697265625,-9.70458984375
15.309999900000001,-9.967061996459961,0.8667010068893433,1.1228805780410767,12.4053955078125,1.9378662109375,-9.2620849609375
15.3299999,-9.667786598205566,0.8044517636299133,1.0821791887283325,9.918212890625,-6.7138671875,-3.6468505859375
15.3499999,-9.294290542602539,0.7374141216278076,1.0630255937576294,6.439208984375,-18.5394287109375,5.0201416015625
15.3699999,-8.884882926940918,0.6488286852836609,1.0630255937576294,1.953125,-21.1944580078125,12.51220703125
15.389999900000001,-8.542511940002441,0.5746083855628967,1.0845733880996704,-4.425048828125,-16.265869140625,18.218994140625
15.4099999,-8.38688850402832,0.5482721924781799,1.0869675874710083,-11.0626220703125,-14.3585205078125,22.5067138671875
15.4299999,-8.427590370178223,0.5410895943641663,1.0654197931289673,-14.312744140625,-13.671875,21.881103515625
15.4499999,-8.671798706054688,0.5626373887062073,1.0079588890075684,-14.2669677734375,-5.157470703125,15.960693359375
15.469999900000001,-9.038111686706543,0.5722141861915588,0.9241618514060974,-14.22119140625,7.0953369140625,10.7421875
15.4899999,-9.473855972290039,0.5674257874488831,0.8212111592292786,-14.373779296875,12.02392578125,8.5296630859375
15.5099999,-9.923966407775879,0.5267243981361389,0.7015010714530945,-10.040283203125,11.322021484375,2.4871826171875
15.5299999,-10.321403503417969,0.4429273009300232,0.569819986820221,-2.01416015625,10.92529296875,-7.0037841796875
15.549999900000001,-10.582371711730957,0.35434186458587646,0.4596867263317108,4.08935546875,8.8043212890625,-11.1236572265625
15.569999900000001,-10.620678901672363,0.2561795711517334,0.4165911078453064,6.6375732421875,4.0283203125,-7.4310302734375
15.5899999,-10.445901870727539,0.18914192914962769,0.4405331015586853,6.7596435546875,-0.06103515625,-0.4730224609375
15.6099999,-10.125079154968262,0.16519992053508759,0.5315127968788147,4.5318603515625,-3.6773681640625,6.988525390625
15.629999900000001,-9.797073364257812,0.20111294090747833,0.6607996821403503,0.1678466796875,-5.92041015625,14.404296875
15.649999900000001,-9.567230224609375,0.31124621629714966,0.7948749661445618,-3.143310546875,-3.47900390625,17.2576904296875
15.6699999,-9.50737476348877,0.4644751250743866,0.9050082564353943,-4.852294921875,1.46484375,13.5040283203125
15.6899999,-9.619902610778809,0.6344634294509888,0.9672574996948242,-6.4849853515625,1.8310546875,7.9345703125
15.709999900000001,-9.821015357971191,0.7781155705451965,0.9816226959228516,-8.7127685546875,-1.953125,4.608154296875
15.729999900000001,-10.005369186401367,0.8786720037460327,0.9720458984375,-11.260986328125,-2.2430419921875,3.4942626953125
15.7499999,-10.11789608001709,0.9241618514060974,0.9528923034667969,-13.6871337890625,3.47900390625,4.364013671875
15.7699999,-10.165780067443848,0.9385270476341248,0.9145850539207458,-13.885498046875,8.819580078125,5.67626953125
15.789999900000002,-10.182539939880371,0.9313444495201111,0.8643068075180054,-11.3372802734375,7.415771484375,5.2947998046875
15.809999900000001,-10.20648193359375,0.912190854549408,0.7948749661445618,-8.3160400390625,2.74658203125,4.2877197265625
15.8299999,-10.225635528564453,0.8978256583213806,0.730231523513794,-5.767822265625,0.701904296875,3.143310546875
15.8499999,-10.220847129821777,0.9026140570640564,0.6943184733390808,-3.997802734375,2.2125244140625,1.678466796875
15.869999900000002,-10.170568466186523,0.9097966551780701,0.6727706789970398,-2.8533935546875,4.33349609375,0.5035400390625
15.889999900000001,-10.086771965026855,0.9193734526634216,0.6751648783683777,-1.64794921875,3.0059814453125,0.8392333984375
15.9099999,-9.99100399017334,0.9289502501487732,0.6751648783683777,-0.6256103515625,0.1983642578125,2.0599365234375
15.9299999,-9.883264541625977,0.9313444495201111,0.6847416758537292,-0.457763671875,-2.3651123046875,2.4261474609375
15.9499999,-9.799467086791992,0.9361328482627869,0.7134721279144287,-1.3885498046875,-1.373291015625,2.960205078125
15.969999900000001,-9.758766174316406,0.9481038451194763,0.7422025203704834,-1.9683837890625,3.143310546875,3.2196044921875
15.9899999,-9.758766174316406,0.9648633003234863,0.7757213711738586,-2.3040771484375,2.0904541015625,1.861572265625
16.0099999,-9.780313491821289,0.9768342971801758,0.8020575642585754,-3.326416015625,-3.3416748046875,0.335693359375
16.0299999,-9.801861763000488,0.9744400978088379,0.8092401623725891,-4.21142578125,-3.875732421875,1.4495849609375
16.0499999,-9.797073364257812,0.9552865028381348,0.8020575642585754,-3.6468505859375,-0.396728515625,3.41796875
16.0699999,-9.773131370544434,0.9217676520347595,0.7805097699165344,-1.9989013671875,0.701904296875,3.2196044921875
16.089999900000002,-9.75397777557373,0.8954314589500427,0.7445967197418213,-0.4425048828125,-2.9144287109375,1.8157958984375
16.109999900000002,-9.734824180603027,0.8906430602073669,0.7206547260284424,1.1749267578125,-5.706787109375,1.8768310546875
16.1299999,-9.730035781860352,0.9145850539207458,0.7206547260284424,2.99072265625,-2.50244140625,3.72314453125
16.1499999,-9.742006301879883,0.9648633003234863,0.751779317855835,3.6773681640625,1.251220703125,5.1727294921875
16.1699999,-9.787496566772461,1.0247182846069336,0.8092401623725891,2.471923828125,0.2899169921875,5.828857421875
16.1899999,-9.888052940368652,1.091755986213684,0.871489405632019,1.3275146484375,-1.0833740234375,4.7760009765625
16.2099999,-10.007762908935547,1.137245774269104,0.9217676520347595,1.2664794921875,0.244140625,0.5035400390625
16.2299999,-10.091560363769531,1.1540051698684692,0.9576807022094727,0.732421875,0.1220703125,-3.6163330078125
16.249999900000002,-10.089165687561035,1.1348515748977661,0.9696516990661621,-1.0986328125,-1.52587890625,-3.4332275390625
16.269999900000002,-9.998186111450195,1.0845733880996704,0.9576807022094727,-2.6397705078125,-1.129150390625,0.5950927734375
16.2899999,-9.873687744140625,1.0295066833496094,0.9265560507774353,-2.4871826171875,0.1068115234375,4.33349609375
16.3099999,-9.787496566772461,0.9840168952941895,0.8834604024887085,-1.556396484375,-0.2899169921875,4.7149658203125
16.3299999,-9.763554573059082,0.9696516990661621,0.8451532125473022,-1.5869140625,-2.25830078125,3.7994384765625
16.3499999,-9.80904483795166,0.993593692779541,0.8188169598579407,-2.1820068359375,-1.3275146484375,3.082275390625
16.3699999,-9.888052940368652,1.0247182846069336,0.8164227604866028,-2.6092529296875,1.495361328125,2.50244140625
16.3899999,-9.96945571899414,1.0462661981582642,0.8236053586006165,-3.1890869140625,2.25830078125,3.326416015625
16.4099999,-10.053253173828125,1.0414776802062988,0.8236053586006165,-3.4637451171875,0.6866455078125,4.8980712890625
16.429999900000002,-10.11550235748291,1.0103530883789062,0.8092401623725891,-2.6397705078125,-1.6632080078125,4.180908203125
16.4499999,-10.146626472473145,0.9744400978088379,0.7805097699165344,-0.4119873046875,-3.3721923828125,2.1514892578125
16.4699999,-10.158597946166992,0.9600749015808105,0.7613561153411865,1.6632080078125,-2.5634765625,1.89208984375
16.4899999,-10.1753568649292,0.9720458984375,0.7565677165985107,2.5787353515625,0.7781982421875,1.4190673828125
16.5099999,-10.18493366241455,1.0127472877502441,0.7613561153411865,2.4566650390625,1.8463134765625,-0.518798828125
16.5299999,-10.177751541137695,1.072602391242981,0.7805097699165344,2.2735595703125,-1.007080078125,-1.52587890625
16.5499999,-10.153809547424316,1.1420341730117798,0.8020575642585754,2.44140625,-0.8697509765625,-0.67138671875
16.5699999,-10.096348762512207,1.2090718746185303,0.8259995579719543,2.13623046875,2.50244140625,-0.640869140625
16.589999900000002,-10.036493301391602,1.256955862045288,0.8619126081466675,1.1138916015625,2.4261474609375,-1.28173828125
16.609999900000002,-10.014945983886719,1.2976573705673218,0.8978256583213806,0.335693359375,0.518798828125,-1.0833740234375
16.6299999,-10.036493301391602,1.3215993642807007,0.9241618514060974,0.2899169921875,1.9683837890625,-1.739501953125
16.6499999,-10.108319282531738,1.338358759880066,0.9433154463768005,0.06103515625,3.4637451171875,-3.11279296875
16.6699999,-10.220847129821777,1.3623007535934448,0.9600749015808105,-0.9307861328125,1.5411376953125,-3.326416015625
16.6899999,-10.326191902160645,1.3862427473068237,0.9744400978088379,-1.5411376953125,0.457763671875,-2.5634765625
16.7099999,-10.412383079528809,1.4053963422775269,0.9720458984375,-0.79345703125,3.11279296875,-1.739501953125
16.7299999,-10.448296546936035,1.4173674583435059,0.9600749015808105,0.5035400390625,3.5247802734375,-1.5106201171875
16.749999900000002,-10.42195987701416,1.4173674583435059,0.9457096457481384,0.7476806640625,-0.030517578125,-1.15966796875
16.769999900000002,-10.347740173339844,1.3982137441635132,0.9289502501487732,0.06103515625,-1.52587890625,0.06103515625
16.7899999,-10.251971244812012,1.3623007535934448,0.9217676520347595,0.1220703125,0.3814697265625,0.6103515625
16.8099999,-10.144232749938965,1.316810965538025,0.9145850539207458,0.701904296875,1.7852783203125,0.48828125
16.8299999,-10.043676376342773,1.2641384601593018,0.9145850539207458,0.3204345703125,1.1749267578125,1.2054443359375
16.8499999,-9.988609313964844,1.213860273361206,0.912190854549408,-0.8087158203125,2.7008056640625,1.9073486328125
16.8699999,-9.979032516479492,1.1779472827911377,0.9074024558067322,-1.190185546875,5.126953125,-0.213623046875
16.8899999,-9.998186111450195,1.1540051698684692,0.9097966551780701,-1.2359619140625,6.8359375,-3.936767578125
16.9099999,-10.038887977600098,1.1492167711257935,0.8954314589500427,-1.7852783203125,9.33837890625,-5.9967041015625
16.929999900000002,-10.077195167541504,1.1444283723831177,0.871489405632019,-1.953125,11.0015869140625,-6.4849853515625
16.9499999,-10.113107681274414,1.137245774269104,0.8427590131759644,-0.9765625,9.063720703125,-6.0882568359375
16.9699999,-10.141838073730469,1.1252747774124146,0.8140285611152649,-0.1068115234375,7.080078125,-5.6915283203125
16.9899999,-10.158597946166992,1.1061211824417114,0.7972691655158997,-0.06103515625,7.354736328125,-5.8135986328125
17.0099999,-10.158597946166992,1.091755986213684,0.7852981686592102,-0.457763671875,7.1258544921875,-5.859375
17.0299999,-10.144232749938965,1.072602391242981,0.7661445140838623,-0.335693359375,6.3934326171875,-5.340576171875
17.0499999,-10.132261276245117,1.048660397529602,0.7374141216278076,0.6256103515625,7.7667236328125,-4.8980712890625
17.0699999,-10.144232749938965,1.0199298858642578,0.6943184733390808,1.953125,11.3677978515625,-5.55419921875
17.089999900000002,-10.1753568649292,0.993593692779541,0.646434485912323,3.1280517578125,12.115478515625,-7.5836181640625
17.109999900000002,-10.225635528564453,0.9816226959228516,0.6009446382522583,4.486083984375,10.80322265625,-10.3607177734375
17.1299999,-10.256759643554688,0.9720458984375,0.5602431893348694,5.6304931640625,11.3372802734375,-12.51220703125
17.1499999,-10.24239444732666,0.9576807022094727,0.5267243981361389,6.256103515625,11.16943359375,-11.8865966796875
17.1699999,-10.18493366241455,0.933738648891449,0.5003881454467773,6.805419921875,9.307861328125,-9.2315673828125
17.1899999,-10.11550235748291,0.9169792532920837,0.47644615173339844,7.4462890625,8.4686279296875,-8.270263671875
17.2099999,-10.034099578857422,0.9002198576927185,0.4692635238170624,7.6904296875,9.521484375,-10.2691650390625
17.2299999,-9.974244117736816,0.8954314589500427,0.4692635238170624,6.591796875,11.8560791015625,-11.8865966796875
17.249999900000002,-9.921571731567383,0.8882488012313843,0.4812345504760742,3.7384033203125,11.505126953125,-11.474609375
17.269999900000002,-9.86889934539795,0.8571242094039917,0.49320554733276367,0.4425048828125,10.7574462890625,-9.8419189453125
17.2899999,-9.847352027893066,0.8140285611152649,0.48602294921875,-1.64794921875,14.7247314453125,-8.0413818359375
17.3099999,-9.897629737854004,0.7613561153411865,0.44771572947502136,-2.7618408203125,18.9208984375,-7.26318359375
17.3299999,-10.012551307678223,0.7158663272857666,0.3687070608139038,-4.0435791015625,16.7694091796875,-8.97216796875
17.3499999,-10.156203269958496,0.6727706789970398,0.26096799969673157,-4.6844482421875,11.90185546875,-13.2293701171875
17.3699999,-10.271124839782715,0.6248866319656372,0.12928688526153564,-3.0670166015625,11.4593505859375,-17.9443359375
17.3899999,-10.283096313476562,0.5746083855628967,0,0.091552734375,11.8865966796875,-21.820068359375
17.409999900000003,-10.165780067443848,0.5003881454467773,-0.10055647045373917,2.655029296875,10.2081298828125,-23.7579345703125
17.429999900000002,-9.952696800231934,0.4213795065879822,-0.17477671802043915,4.33349609375,8.4075927734375,-23.2696533203125
17.4499999,-9.66539192199707,0.3208230137825012,-0.20111294090747833,5.5999755859375,5.6915283203125,-22.9339599609375
17.4699999,-9.351752281188965,0.20111294090747833,-0.17238251864910126,6.195068359375,2.6397705078125,-23.4527587890625
17.4899999,-9.05487060546875,0.05985504388809204,-0.0933738648891449,5.8746337890625,2.1209716796875,-24.7039794921875
17.5099999,-8.841787338256836,-0.0933738648891449,0.014365210197865963,4.5166015625,4.5166015625,-26.611328125
17.5299999,-8.78193187713623,-0.24660277366638184,0.12928688526153564,1.3885498046875,4.3487548828125,-28.778076171875
17.5499999,-8.968679428100586,-0.35673606395721436,0.16998831927776337,-2.2735595703125,-0.8544921875,-32.9742431640625
17.5699999,-9.241618156433105,-0.4596867263317108,0.20350714027881622,-5.3558349609375,-11.199951171875,-41.6107177734375
17.589999900000002,-9.53849983215332,-0.6033388376235962,0.19393034279346466,-8.026123046875,-4.302978515625,-47.760009765625
17.609999900000002,-9.780313491821289,-0.8044517636299133,0.19153612852096558,-9.368896484375,15.625,-49.3621826171875
17.6299999,-10.002974510192871,-1.0534487962722778,0.12928688526153564,-9.27734375,18.646240234375,-54.656982421875
17.6499999,-10.153809547424316,-1.3120225667953491,0.047884032130241394,-8.72802734375,-5.157470703125,-66.5740966796875
17.6699999,-10.194510459899902,-1.5897499322891235,-0.028730420395731926,-9.9334716796875,-21.9268798828125,-73.9288330078125
17.6899999,-10.077195167541504,-1.845929503440857,-0.07900865375995636,-11.7340087890625,-9.58251953125,-72.7996826171875
17.7099999,-9.801861763000488,-2.1308395862579346,-0.05267243832349777,-12.4053955078125,3.814697265625,-70.5718994140625
17.7299999,-9.531316757202148,-2.387019157409668,-0.047884032130241394,-11.6729736328125,2.349853515625,-72.265625
17.749999900000002,-9.32541561126709,-2.6575639247894287,-0.019153613597154617,-10.2691650390625,-6.6375732421875,-74.9969482421875
17.769999900000002,-9.232041358947754,-2.918531894683838,-0.023942016065120697,-8.7432861328125,-1.5411376953125,-73.1353759765625
17.7899999,-9.217676162719727,-3.2130186557769775,-0.0071826050989329815,-5.9051513671875,8.9111328125,-70.1904296875
17.8099999,-9.320627212524414,-3.509899616241455,-0.009576806798577309,-2.166748046875,8.8653564453125,-71.685791015625
17.8299999,-9.514557838439941,-3.7684733867645264,-0.05985504388809204,1.46484375,-4.730224609375,-78.06396484375
17.8499999,-9.703699111938477,-3.993528366088867,-0.10534487664699554,2.9754638671875,-21.087646484375,-84.04541015625
17.8699999,-9.770736694335938,-4.182670593261719,-0.12210428714752197,2.349853515625,-26.3824462890625,-87.158203125
17.8899999,-9.639056205749512,-4.37420654296875,-0.07182604819536209,0.8087158203125,-22.8118896484375,-89.7674560546875
17.909999900000003,-9.327810287475586,-4.55616569519043,0.019153613597154617,-1.64794921875,-20.4315185546875,-93.1243896484375
17.929999900000002,-8.51138687133789,-4.841075897216797,0.17238251864910126,-8.026123046875,-13.6260986328125,-103.9581298828125
17.9499999,-8.190564155578613,-4.975151062011719,0.1843535304069519,-9.521484375,-5.462646484375,-109.5428466796875
17.9699999,-7.948749542236328,-5.109226226806641,0.15083470940589905,-8.85009765625,-5.1422119140625,-113.9984130859375
17.9899999,-7.762001991271973,-5.262455463409424,0.08619125932455063,-7.7972412109375,-9.5367431640625,-117.919921875
18.0099999,-7.55131196975708,-5.4444146156311035,0.038307227194309235,-8.3160400390625,-8.0718994140625,-120.60546875
18.0299999,-7.292738437652588,-5.664681434631348,0.016759412363171577,-9.8114013671875,0.5340576171875,-121.4599609375
18.0499999,-7.005434036254883,-5.913678169250488,0.014365210197865963,-10.8795166015625,5.55419921875,-121.063232421875
18.0699999,-6.730101108551025,-6.172252178192139,0.014365210197865963,-12.0697021484375,-0.3509521484375,-121.4141845703125
18.089999900000002,-6.466738700866699,-6.423643112182617,-0.011971008032560349,-13.763427734375,-5.9967041015625,-122.955322265625
18.109999900000002,-6.208165168762207,-6.646304130554199,-0.026336219161748886,-15.167236328125,-1.373291015625,-124.786376953125
18.1299999,-5.937620162963867,-6.885724067687988,-0.016759412363171577,-12.359619140625,10.833740234375,-125.030517578125
18.1499999,-5.674258232116699,-7.137115478515625,-0.019153613597154617,-7.354736328125,19.6990966796875,-124.1912841796875
18.1699999,-5.39174222946167,-7.386112213134766,-0.033518824726343155,-2.6702880859375,20.904541015625,-123.7030029296875
18.1899999,-5.099649429321289,-7.661445617675781,-0.06464344263076782,0.1983642578125,23.223876953125,-122.467041015625
18.2099999,-4.809951305389404,-7.922413349151611,-0.09816227108240128,0.732421875,29.78515625,-118.65234375
18.2299999,-4.563348293304443,-8.209717750549316,-0.14604631066322327,0.1678466796875,32.89794921875,-111.87744140625
18.249999900000002,-4.359841346740723,-8.494627952575684,-0.22505496442317963,0.9918212890625,33.50830078125,-105.4534912109375
18.269999900000002,-4.180276393890381,-8.729259490966797,-0.3208230137825012,3.6773681640625,32.6690673828125,-101.8829345703125
18.2899999,-3.9839515686035156,-8.899248123168945,-0.42616790533065796,13.2293701171875,33.4320068359375,-99.2584228515625
18.3099999,-3.7828385829925537,-9.023746490478516,-0.5291185975074768,18.00537109375,36.7279052734375,-97.7935791015625
18.3299999,-3.507505416870117,-9.117119789123535,-0.5722141861915588,22.6287841796875,35.9954833984375,-95.703125
18.3499999,-3.1962592601776123,-9.229647636413574,-0.5793967843055725,26.7181396484375,36.62109375,-91.6290283203125
18.3699999,-2.8586769104003906,-9.387664794921875,-0.5602431893348694,28.5491943359375,39.5965576171875,-84.7320556640625
18.3899999,-2.454056739807129,-9.516951560974121,-0.47884035110473633,31.4788818359375,38.0096435546875,-75.8209228515625
18.409999900000003,-2.070984363555908,-9.62947940826416,-0.3734954595565796,35.7666015625,35.858154296875,-66.5283203125
18.429999900000002,-1.7381904125213623,-9.66539192199707,-0.2322375625371933,39.642333984375,35.4766845703125,-56.8389892578125
18.4499999,-1.479616641998291,-9.615114212036133,-0.05746084079146385,40.1763916015625,35.1104736328125,-46.661376953125
18.4699999,-1.3048399686813354,-9.560047149658203,0.14604631066322327,38.5589599609375,31.6619873046875,-35.858154296875
18.4899999,-1.216254472732544,-9.531316757202148,0.35913026332855225,35.58349609375,27.9998779296875,-24.3072509765625
18.5099999,-1.2090718746185303,-9.552865028381348,0.5793967843055725,31.8145751953125,27.0843505859375,-12.6495361328125
18.5299999,-1.3096283674240112,-9.651026725769043,0.768538773059845,26.1077880859375,26.336669921875,-3.326416015625
18.5499999,-1.4484920501708984,-9.708487510681152,0.9744400978088379,18.798828125,23.9715576171875,2.1209716796875
18.5699999,-1.6974890232086182,-9.828198432922363,1.0749965906143188,12.7105712890625,24.688720703125,3.41796875
18.589999900000002,-2.0015525817871094,-9.93593692779541,1.1324573755264282,8.97216796875,22.5677490234375,3.1890869140625
18.609999900000002,-2.2840683460235596,-10.120290756225586,1.1037269830703735,8.5296630859375,17.486572265625,2.01416015625
18.6299999,-2.5474305152893066,-10.33098030090332,1.0414776802062988,8.2855224609375,16.326904296875,-1.6937255859375
18.6499999,-2.6431987285614014,-10.500968933105469,1.0271124839782715,7.965087890625,16.1590576171875,-6.7901611328125
18.6699999,-2.5905263423919678,-10.553641319274902,1.05105459690094,7.5225830078125,18.096923828125,-12.6800537109375
18.6899999,-2.4181437492370605,-10.551246643066406,1.1204863786697388,6.927490234375,15.31982421875,-17.3187255859375
18.7099999,-2.188300371170044,-10.493785858154297,1.2425906658172607,3.997802734375,8.1939697265625,-18.310546875
18.7299999,-1.946485996246338,-10.412383079528809,1.3670891523361206,-2.655029296875,5.3253173828125,-18.1121826171875
18.749999900000002,-1.7501614093780518,-10.333374977111816,1.4724340438842773,-11.5203857421875,2.9449462890625,-19.1650390625
18.769999900000002,-1.5873557329177856,-10.232817649841309,1.4891934394836426,-18.4326171875,-4.6539306640625,-19.2718505859375
18.7899999,-1.4532804489135742,-10.15141487121582,1.4245500564575195,-19.34814453125,-14.1754150390625,-18.00537109375
18.8099999,-1.3527239561080933,-10.108319282531738,1.2617442607879639,-17.5933837890625,-13.9923095703125,-16.4642333984375
18.8299999,-1.2449848651885986,-10.091560363769531,1.0869675874710083,-15.2740478515625,-7.3699951171875,-15.2587890625
18.8499999,-1.139639973640442,-10.08198356628418,0.9026140570640564,-12.51220703125,-2.99072265625,-14.434814453125
18.8699999,-1.0247182846069336,-10.043676376342773,0.7445967197418213,-10.0555419921875,-4.69970703125,-12.298583984375
18.8899999,-0.9002198576927185,-9.983820915222168,0.6248866319656372,-7.01904296875,-5.8441162109375,-9.1705322265625
18.909999900000003,-0.7757213711738586,-9.921571731567383,0.5554547905921936,-5.279541015625,-1.0833740234375,-6.0272216796875
18.929999900000002,-0.6799532771110535,-9.885659217834473,0.5171475410461426,-5.3863525390625,2.3345947265625,-3.082275390625
18.9499999,-0.8307880163192749,-10.24000072479248,0.6847416758537292,-4.547119140625,-2.86865234375,-1.6632080078125
18.9699999,-0.7613561153411865,-10.216058731079102,0.7326257228851318,-10.589599609375,-6.622314453125,-21.1334228515625
18.9899999,-0.933738648891449,-10.45547866821289,0.8092401623725891,-8.2244873046875,-10.162353515625,-25.7110595703125
19.0099999,-0.8212111592292786,-10.393229484558105,0.811634361743927,-7.0037841796875,-17.4560546875,-17.8985595703125
19.0299999,-0.6655880808830261,-10.249577522277832,0.6344634294509888,-7.7362060546875,-13.458251953125,-16.204833984375
19.0499999,-0.4213795065879822,-10.271124839782715,0.5985504388809204,-2.1820068359375,-5.4168701171875,-21.4996337890625
19.0699999,-0.0694318488240242,-10.316615104675293,0.4213795065879822,-1.9683837890625,-0.457763671875,-16.143798828125
19.089999900000002,0.2968810200691223,-10.32858657836914,0.33039984107017517,-1.7242431640625,-1.617431640625,0.1678466796875
19.109999900000002,0.5554547905921936,-10.290278434753418,0.22266076505184174,2.655029296875,-4.5623779296875,6.2408447265625
19.1299999,0.569819986820221,-10.177751541137695,0.2537853717803955,2.5787353515625,1.8463134765625,6.8359375
19.1499999,0.33039984107017517,-10.007762908935547,0.33997663855552673,-0.5340576171875,4.974365234375,1.129150390625
19.1699999,-0.028730420395731926,-9.943120002746582,0.4644751250743866,-2.227783203125,5.615234375,-2.9296875
19.1899999,-0.24660277366638184,-9.86650562286377,0.5746083855628967,0.0762939453125,1.0223388671875,-4.2877197265625
19.2099999,-0.3974374830722809,-9.890447616577148,0.569819986820221,0.3814697265625,0.213623046875,-0.1678466796875
19.2299999,-0.3734954595565796,-9.919178009033203,0.5291185975074768,-0.1678466796875,0.5035400390625,1.6326904296875
19.249999900000002,-0.2992752194404602,-9.926360130310059,0.5578489899635315,1.953125,0.7171630859375,-0.8392333984375
19.269999900000002,-0.2585737705230713,-9.945513725280762,0.5410895943641663,0.2593994140625,0.640869140625,-0.274658203125
19.2899999,-0.19871874153614044,-9.921571731567383,0.5602431893348694,-0.48828125,0.701904296875,0.5035400390625
19.3099999,-0.1628057211637497,-9.93593692779541,0.5770025849342346,0.701904296875,0.67138671875,0.823974609375
19.3299999,-0.16519992053508759,-9.919178009033203,0.5746083855628967,0.3509521484375,0.6103515625,0.18310546875
19.3499999,-0.20350714027881622,-9.919178009033203,0.5937620401382446,0.457763671875,0.7171630859375,-0.06103515625
19.3699999,-0.2537853717803955,-9.907206535339355,0.5817909836769104,-0.396728515625,0.457763671875,-0.213623046875
19.3899999,-0.2753331959247589,-9.90241813659668,0.5889736413955688,0.3509521484375,0.4730224609375,-1.0528564453125
19.409999900000003,-0.2561795711517334,-9.911994934082031,0.586579442024231,0.946044921875,0.5340576171875,-1.0223388671875
19.429999900000002,-0.2106897532939911,-9.919178009033203,0.5650315880775452,-0.518798828125,0.5645751953125,-0.244140625
19.4499999,-0.16759411990642548,-9.93593692779541,0.5602431893348694,-0.42724609375,0.8087158203125,0.5035400390625
19.4699999,-0.1604115068912506,-9.93354320526123,0.5506663918495178,0.2899169921875,0.8087158203125,0.3662109375
19.4899999,-0.19632454216480255,-9.931148529052734,0.5626373887062073,0.732421875,0.701904296875,0.091552734375
19.5099999,-0.24420857429504395,-9.914389610290527,0.569819986820221,-0.1068115234375,0.518798828125,-0.6561279296875
19.5299999,-0.27054479718208313,-9.914389610290527,0.5793967843055725,-0.2288818359375,0.3204345703125,-0.91552734375
19.5499999,-0.2513911724090576,-9.919178009033203,0.5937620401382446,0.5645751953125,0.579833984375,-1.0223388671875
19.5699999,-0.2106897532939911,-9.928754806518555,0.5770025849342346,-0.2593994140625,0.6866455078125,-0.335693359375
19.589999900000002,-0.17956513166427612,-9.940725326538086,0.5722141861915588,-0.42724609375,0.885009765625,0.579833984375
19.609999900000002,-0.17717093229293823,-9.93354320526123,0.5722141861915588,0.3814697265625,0.762939453125,0.5340576171875
19.6299999,-0.21308395266532898,-9.93354320526123,0.5817909836769104,0.3814697265625,0.5950927734375,-0.457763671875
19.6499999,-0.24660277366638184,-9.914389610290527,0.5961562395095825,0.244140625,0.5035400390625,-0.8544921875
19.6699999,-0.26096799969673157,-9.916783332824707,0.5913678407669067,-0.4425048828125,0.3662109375,-0.6103515625
19.6899999,-0.23942017555236816,-9.921571731567383,0.5913678407669067,0.18310546875,0.6103515625,-0.3814697265625
19.7099999,-0.2059013396501541,-9.926360130310059,0.586579442024231,0.5035400390625,0.8544921875,-0.1068115234375
19.7299999,-0.19393034279346466,-9.940725326538086,0.5722141861915588,-0.5035400390625,0.7476806640625,0.335693359375
19.749999900000002,-0.2059013396501541,-9.928754806518555,0.5841852426528931,-0.1678466796875,0.7476806640625,-0.1220703125
19.769999900000002,-0.2346317619085312,-9.931148529052734,0.5889736413955688,0.3662109375,0.4425048828125,-0.91552734375
19.7899999,-0.24899697303771973,-9.919178009033203,0.5913678407669067,0.30517578125,0.4119873046875,-0.823974609375
19.8099999,-0.23942017555236816,-9.916783332824707,0.5937620401382446,0.06103515625,0.640869140625,-0.3814697265625
19.8299999,-0.21547815203666687,-9.926360130310059,0.5746083855628967,-0.5340576171875,0.640869140625,0.18310546875
19.8499999,-0.19632454216480255,-9.923966407775879,0.5841852426528931,0.30517578125,0.8697509765625,-0.1220703125
19.8699999,-0.20111294090747833,-9.926360130310059,0.5841852426528931,0.1678466796875,0.732421875,-0.244140625
19.8899999,-0.22266076505184174,-9.921571731567383,0.586579442024231,-0.5950927734375,0.4730224609375,-0.3204345703125
19.909999900000003,-0.23942017555236816,-9.914389610290527,0.6009446382522583,0.1983642578125,0.518798828125,-0.6866455078125
19.929999900000002,-0.23702596127986908,-9.916783332824707,0.5913678407669067,0.244140625,0.579833984375,-0.5340576171875
19.9499999,-0.22266076505184174,-9.921571731567383,0.586579442024231,-0.1068115234375,0.701904296875,-0.091552734375
19.9699999,-0.21308395266532898,-9.926360130310059,0.5817909836769104,-0.274658203125,0.7171630859375,0.1068115234375
19.9899999,-0.21308395266532898,-9.928754806518555,0.5793967843055725,-0.1373291015625,0.6561279296875,-0.2899169921875
20.0099999,-0.22026655077934265,-9.926360130310059,0.5913678407669067,0.4425048828125,0.701904296875,-0.762939453125
