# Time (seconds),Accel_X,Accel_Y,Accel_Z,Gyro_X,Gyro_Y,Gyro_Z
0.0099999,0.7374141216278076,-9.816226959228516,1.4197616577148438,0.9307861328125,1.739501953125,3.173828125
0.029999900000000003,0.5434837937355042,-9.799467086791992,1.434126853942871,-1.739501953125,-0.0457763671875,-2.105712890625
0.0499999,0.35673606395721436,-9.75397777557373,1.522712230682373,-0.4425048828125,-0.48828125,-6.561279296875
0.0699999,0.35673606395721436,-9.758766174316406,1.5131354331970215,-1.3427734375,-0.9918212890625,-5.9814453125
0.08999990000000001,0.524330198764801,-9.787496566772461,1.4652514457702637,-1.800537109375,-0.0762939453125,-0.8392333984375
0.10999990000000001,0.7350199222564697,-9.804255485534668,1.4484920501708984,1.4190673828125,1.7547607421875,3.814697265625
0.1299999,0.8834604024887085,-9.835380554199219,1.3910311460494995,1.312255859375,1.861572265625,3.5552978515625
0.14999990000000002,0.8690952062606812,-9.84256362915039,1.3838485479354858,0.091552734375,1.2664794921875,2.5787353515625
0.1699999,0.7565677165985107,-9.818621635437012,1.4437036514282227,0.823974609375,1.28173828125,1.28173828125
0.1899999,0.6224924325942993,-9.813833236694336,1.455674648284912,-0.7476806640625,0.4425048828125,0.1068115234375
0.20999990000000002,0.5171475410461426,-9.794678688049316,1.4867992401123047,-0.8697509765625,0.2288818359375,-1.1444091796875
0.2299999,0.4692635238170624,-9.785101890563965,1.5059528350830078,0.335693359375,0.5035400390625,-1.8157958984375
0.2499999,0.47644615173339844,-9.78989028930664,1.479616641998291,-0.5950927734375,0.396728515625,-1.15966796875
0.2699999,0.5147533416748047,-9.78989028930664,1.482010841369629,-0.4425048828125,0.6561279296875,-0.823974609375
0.28999990000000003,0.5291185975074768,-9.792284965515137,1.4748282432556152,0.1678466796875,0.6103515625,-1.129150390625
0.3099999,0.5123591423034668,-9.794678688049316,1.482010841369629,-0.5035400390625,-0.0152587890625,-2.960205078125
0.3299999,0.5363011956214905,-9.797073364257812,1.501164436340332,-1.617431640625,-0.6866455078125,-5.523681640625
0.34999990000000003,0.6033388376235962,-9.81143856048584,1.4748282432556152,-1.8463134765625,-0.2288818359375,-3.72314453125
0.3699999,0.7158663272857666,-9.818621635437012,1.45806884765625,0.7171630859375,0.30517578125,1.617431640625
0.3899999,0.7134721279144287,-9.835380554199219,1.4101848602294922,1.1138916015625,-1.3275146484375,4.058837890625
0.40999990000000003,0.6440402865409851,-9.818621635437012,1.479616641998291,-0.0152587890625,-0.54931640625,-1.8463134765625
0.4299999,0.47405192255973816,-9.804255485534668,1.5634137392044067,-1.8463134765625,7.2021484375,-6.3629150390625
0.4499999,0.24420857429504395,-9.818621635437012,1.6974890232086182,-0.5950927734375,12.3291015625,-5.5084228515625
0.4699999,0.06464344263076782,-10.029311180114746,1.8698714971542358,-5.4931640625,4.82177734375,-3.6468505859375
0.4899999,-0.05985504388809204,-10.426748275756836,2.073378562927246,-11.5509033203125,6.3018798828125,-5.18798828125
0.5099999,-0.2106897532939911,-11.113883972167969,2.31758713722229,-19.775390625,22.7508544921875,-12.4359130859375
0.5299999,-0.31603461503982544,-11.925518989562988,2.5450363159179688,-26.4892578125,33.721923828125,-20.81298828125
0.5499999,-0.3447650372982025,-12.653355598449707,2.6886885166168213,-30.975341796875,31.463623046875,-30.6549072265625
0.5699999,-0.28969839215278625,-13.151350021362305,2.6791117191314697,-35.5987548828125,29.083251953125,-43.2891845703125
0.5899998999999999,-0.08858546614646912,-13.383587837219238,2.5234885215759277,-38.238525390625,37.0941162109375,-54.1229248046875
0.6099998999999999,0.2537853717803955,-13.347674369812012,2.293645143508911,-36.8804931640625,45.7916259765625,-60.1654052734375
0.6299999,0.6919242739677429,-13.163320541381836,2.0231003761291504,-33.2183837890625,44.403076171875,-61.5081787109375
0.6499999,1.1516109704971313,-12.830527305603027,1.766920804977417,-29.7698974609375,47.42431640625,-62.2711181640625
0.6699999,1.6136919260025024,-12.358869552612305,1.5658079385757446,-25.634765625,59.2498779296875,-61.614990234375
0.6899999,2.0446481704711914,-11.760318756103516,1.403002142906189,-21.0418701171875,67.413330078125,-59.4329833984375
0.7099999,2.4229321479797363,-11.142614364624023,1.2856862545013428,-16.7694091796875,69.732666015625,-55.5572509765625
0.7299998999999999,2.676717519760132,-10.599130630493164,1.173158884048462,-14.2974853515625,72.5250244140625,-47.943115234375
0.7499998999999999,2.7724854946136475,-10.165780067443848,1.070208191871643,-12.786865234375,70.0225830078125,-38.8641357421875
0.7699999,2.760514497756958,-9.830592155456543,0.9983820915222168,-11.688232421875,61.6912841796875,-34.454345703125
0.7899999,2.676717519760132,-9.521739959716797,0.9792284965515137,-10.833740234375,61.5234375,-36.7431640625
0.8099999,2.559401512145996,-9.258378028869629,0.9816226959228516,-10.4827880859375,71.319580078125,-40.6494140625
0.8299999,2.4827871322631836,-8.975862503051758,1.0103530883789062,-12.542724609375,69.27490234375,-41.56494140625
0.8499998999999999,2.4660277366638184,-8.702922821044922,1.0414776802062988,-15.4876708984375,51.81884765625,-41.168212890625
0.8699998999999999,2.535459518432617,-8.42040729522705,1.0678139925003052,-20.6451416015625,38.1927490234375,-41.4581298828125
0.8899999,2.695871114730835,-8.145073890686035,1.0845733880996704,-26.885986328125,37.5213623046875,-38.26904296875
0.9099999,2.9448680877685547,-7.8745293617248535,1.0893617868423462,-33.1573486328125,36.9720458984375,-31.890869140625
0.9299999,3.160346269607544,-7.6997528076171875,1.01753568649292,-36.956787109375,35.2783203125,-27.9998779296875
0.9499999,3.3255462646484375,-7.577648162841797,0.8667010068893433,-37.2161865234375,35.7666015625,-26.9775390625
0.9699998999999999,3.4093432426452637,-7.524975776672363,0.6224924325942993,-33.5693359375,35.125732421875,-25.8331298828125
0.9899998999999999,3.450044631958008,-7.524975776672363,0.33758243918418884,-25.604248046875,26.611328125,-22.9339599609375
1.0099999,3.536235809326172,-7.570465564727783,0.11252748221158981,-16.8914794921875,13.24462890625,-18.3563232421875
1.0299999,3.646369218826294,-7.673416614532471,-0.031124621629714966,-13.9617919921875,12.0391845703125,-12.786865234375
1.0499999,3.7636849880218506,-7.814674377441406,-0.07661445438861847,-15.2740478515625,19.4854736328125,-6.195068359375
1.0699999,3.8355112075805664,-7.996633529663086,-0.07422025501728058,-12.786865234375,20.3857421875,-1.251220703125
1.0899999,3.8379054069519043,-8.20492935180664,-0.05027823522686958,-5.55419921875,9.9945068359375,-0.5340576171875
1.1099999,3.794809579849243,-8.4108304977417,-0.016759412363171577,-1.4801025390625,7.476806640625,-3.7994384765625
1.1299999,3.7014358043670654,-8.635885238647461,-0.004788403399288654,-1.5106201171875,16.2200927734375,-6.6375732421875
1.1499999,3.5721490383148193,-8.825027465820312,-0.016759412363171577,2.8076171875,15.31982421875,-7.2784423828125
1.1699998999999999,3.4596214294433594,-8.973467826843262,-0.043095629662275314,13.5498046875,-2.5482177734375,-7.8277587890625
1.1899998999999999,3.4308910369873047,-9.026140213012695,-0.031124621629714966,21.7742919921875,-18.5546875,-8.697509765625
1.2099999,3.555389642715454,-8.992621421813965,0.07422025501728058,21.5606689453125,-8.8958740234375,-10.9405517578125
1.2299999,3.7636849880218506,-8.904036521911621,0.2322375625371933,16.9830322265625,11.260986328125,-12.2222900390625
1.2499999,3.931279182434082,-8.83699893951416,0.35913026332855225,17.88330078125,10.8184814453125,-9.4757080078125
1.2699999,4.010287761688232,-8.7484130859375,0.4596867263317108,22.979736328125,-12.9547119140625,-3.662109375
1.2899999,4.02465295791626,-8.664615631103516,0.5602431893348694,22.1099853515625,-27.1453857421875,-1.40380859375
1.3099999,4.065354347229004,-8.580819129943848,0.6991068720817566,12.26806640625,-12.4664306640625,-4.4097900390625
1.3299999,4.094084739685059,-8.59997272491455,0.7398083209991455,3.7841796875,5.3253173828125,-5.8441162109375
1.3499999,4.043806552886963,-8.774748802185059,0.667982280254364,7.232666015625,-16.1285400390625,4.2572021484375
1.3699999,3.998316764831543,-9.062053680419922,0.47405192255973816,15.1519775390625,-50.3692626953125,17.5323486328125
1.3899999,3.928884983062744,-9.385271072387695,0.2513911724090576,17.7001953125,-40.9393310546875,15.625
1.4099999,4.039018154144287,-9.619902610778809,0.1364694982767105,20.1873779296875,-13.9617919921875,7.8125
1.4299998999999999,4.134786128997803,-9.737217903137207,0.10295066982507706,24.7802734375,5.401611328125,4.82177734375
1.4499999,4.247313976287842,-9.694122314453125,0.13168109953403473,29.876708984375,14.984130859375,3.2958984375
1.4699999,4.216189384460449,-9.512163162231445,0.1628057211637497,34.66796875,23.529052734375,-3.570556640625
1.4899999,4.264073371887207,-9.29189682006836,0.29209262132644653,38.2537841796875,27.5115966796875,-7.9498291015625
1.5099999,4.311957359313965,-8.913613319396973,0.47165772318840027,40.58837890625,24.0936279296875,4.9591064453125
1.5299999,4.417302131652832,-8.616731643676758,0.6799532771110535,36.4227294921875,23.8189697265625,19.6075439453125
1.5499999,4.4077253341674805,-8.31985092163086,0.8379706144332886,33.538818359375,12.8021240234375,29.9072265625
1.5699999,4.201824188232422,-7.967903137207031,1.0247182846069336,32.3333740234375,-9.2620849609375,32.196044921875
1.5899999,3.8570590019226074,-7.704541206359863,1.2497732639312744,27.16064453125,-11.2762451171875,11.65771484375
1.6099999,3.5051112174987793,-7.453149795532227,1.5873557329177856,16.693115234375,4.3182373046875,-13.8397216796875
1.6299999,3.251325845718384,-7.362170219421387,1.9800047874450684,1.4190673828125,13.12255859375,-27.0233154296875
1.6499999,3.1699230670928955,-7.4555439949035645,2.3056161403656006,-14.862060546875,9.33837890625,-27.7557373046875
1.6699999,3.248931646347046,-7.709329605102539,2.4468741416931152,-27.4200439453125,2.99072265625,-23.5443115234375
1.6899998999999999,3.4524388313293457,-8.039729118347168,2.382230758666992,-34.332275390625,-2.2430419921875,-18.73779296875
1.7099999,3.6583402156829834,-8.334216117858887,2.1116859912872314,-34.8663330078125,-5.5389404296875,-13.5040283203125
1.7299999,3.821146011352539,-8.53293514251709,1.7142484188079834,-29.052734375,-9.613037109375,-12.3443603515625
1.7499999,3.9169139862060547,-8.597578048706055,1.314416766166687,-19.287109375,-14.6636962890625,-15.594482421875
1.7699999,3.9384617805480957,-8.56884765625,0.9624691009521484,-9.796142578125,-10.1776123046875,-19.9432373046875
1.7899999,4.05817174911499,-8.544905662536621,0.7972691655158997,-1.312255859375,3.90625,-22.003173828125
1.8099999,4.151545524597168,-8.425195693969727,0.7182605266571045,0.9918212890625,28.1219482421875,-22.1710205078125
1.8299999,4.352658748626709,-8.422801971435547,0.7134721279144287,1.4801025390625,25.8331298828125,-15.625
1.8499999,4.51067590713501,-8.370129585266113,0.7230489253997803,6.2408447265625,15.716552734375,-1.190185546875
1.8699999,4.594472885131836,-8.360552787780762,0.7086837291717529,10.19287109375,11.23046875,11.8865966796875
1.8899999,4.570530891418457,-8.358158111572266,0.7015010714530945,16.204833984375,7.2479248046875,17.0440673828125
1.9099999,4.455609321594238,-8.31985092163086,0.7829039692878723,22.216796875,-1.9378662109375,14.5263671875
1.9299998999999999,4.242525577545166,-8.269572257995605,0.9409212470054626,23.8800048828125,-4.9285888671875,9.5977783203125
1.9499999,4.019864559173584,-8.20732307434082,1.2090718746185303,18.951416015625,4.8370361328125,2.9296875
1.9699999,3.8331170082092285,-8.20732307434082,1.525106430053711,10.6201171875,14.5721435546875,-7.293701171875
1.9899999,3.7660791873931885,-8.307879447937012,1.845929503440857,2.50244140625,15.9912109375,-11.7340087890625
2.0099999,3.8163576126098633,-8.489839553833008,2.1045033931732178,-5.7525634765625,13.336181640625,-3.6773681640625
2.0299999,4.0078935623168945,-8.678980827331543,2.2864625453948975,-15.625,13.092041015625,9.765625
2.0499999,4.216189384460449,-8.798690795898438,2.406172752380371,-26.5045166015625,15.3045654296875,19.7296142578125
2.0699999,4.321534156799316,-8.791508674621582,2.3942017555236816,-36.1175537109375,20.751953125,22.8424072265625
2.0899999,4.228160381317139,-8.686163902282715,2.250549554824829,-39.6881103515625,23.86474609375,17.7459716796875
2.1099999,3.993528366088867,-8.59997272491455,1.9823989868164062,-37.0941162109375,9.3231201171875,10.650634765625
2.1299999,3.4955344200134277,-8.683769226074219,1.3551181554794312,-29.388427734375,-17.578125,13.73291015625
2.1499999,3.4308910369873047,-8.918401718139648,1.0893617868423462,-23.0712890625,-16.9219970703125,17.608642578125
2.1699999,3.450044631958008,-9.155426979064941,0.8786720037460327,-14.4805908203125,-23.4832763671875,24.10888671875
2.1899999,3.5625722408294678,-9.38048267364502,0.667982280254364,-5.035400390625,-34.7900390625,27.587890625
2.2099999,3.691859006881714,-9.509769439697266,0.5578489899635315,5.035400390625,-33.3099365234375,26.30615234375
2.2299999,3.845088005065918,-9.53849983215332,0.5291185975074768,11.04736328125,-14.739990234375,21.66748046875
2.2499999,3.957615375518799,-9.481039047241211,0.6655880808830261,12.6800537109375,11.8865966796875,15.4266357421875
2.2699999,3.907337188720703,-9.435548782348633,0.7015010714530945,12.1612548828125,33.5540771484375,6.2103271484375
2.2899999,3.734954595565796,-9.402029991149902,0.811634361743927,13.8702392578125,22.7203369140625,-2.9296875
2.3099999,3.485957622528076,-9.425971984863281,0.7876923680305481,16.54052734375,8.880615234375,-10.0555419921875
2.3299999,3.332728862762451,-9.478644371032715,0.8523358106613159,15.19775390625,9.3231201171875,-14.58740234375
2.3499999,3.335123062133789,-9.579200744628906,0.933738648891449,12.054443359375,17.059326171875,-17.0745849609375
2.3699999,3.4787750244140625,-9.667786598205566,1.0965443849563599,13.00048828125,16.3116455078125,-13.7939453125
2.3899999,3.663128614425659,-9.710882186889648,1.278503656387329,13.4429931640625,6.9427490234375,-7.2784423828125
2.4099999,3.7852327823638916,-9.672574996948242,1.460463047027588,7.598876953125,6.89697265625,-5.9356689453125
2.4299999,3.8091750144958496,-9.53849983215332,1.644816517829895,1.46484375,10.1318359375,-9.521484375
2.4499999,3.7612907886505127,-9.370905876159668,1.7956513166427612,-1.0833740234375,6.8206787109375,-12.6800537109375
2.4699999,3.6367924213409424,-9.224859237670898,1.867477297782898,-2.899169921875,7.2021484375,-12.0697021484375
2.4899999,3.5266590118408203,-9.10993766784668,1.8770540952682495,-5.55419921875,9.552001953125,-12.0697021484375
2.5099999,3.464409828186035,-8.999804496765137,1.8483237028121948,-9.1705322265625,8.3160400390625,-14.2364501953125
2.5299999,3.5458126068115234,-8.856152534484863,1.824381709098816,-16.29638671875,4.0740966796875,-12.51220703125
2.5499999,3.711012601852417,-8.702922821044922,1.7980455160140991,-27.9541015625,3.9520263671875,-3.3111572265625
2.5699999,3.936067581176758,-8.544905662536621,1.7836803197860718,-38.4368896484375,6.103515625,9.1705322265625
2.5899999,4.132391929626465,-8.434772491455078,1.7190368175506592,-44.0826416015625,7.4462890625,17.4407958984375
2.6099999,4.268861770629883,-8.44195556640625,1.601720929145813,-44.281005859375,10.07080078125,21.697998046875
2.6299999,4.364629745483398,-8.614337921142578,1.2832920551300049,-40.5120849609375,11.5966796875,27.923583984375
2.6499999,4.240131378173828,-8.80587387084961,0.871489405632019,-34.332275390625,-9.6893310546875,43.4722900390625
2.6699999,4.1611223220825195,-9.066842079162598,0.4692635238170624,-22.308349609375,-32.6690673828125,60.0738525390625
2.6899999,3.7876269817352295,-9.172186851501465,0.1364694982767105,-12.4359130859375,-18.402099609375,62.6983642578125
2.7099999,3.265691041946411,-9.20091724395752,-0.016759412363171577,-5.6304931640625,5.8441162109375,48.76708984375
2.7299999,2.6001031398773193,-9.191340446472168,-0.07422025501728058,3.0059814453125,12.9852294921875,25.5889892578125
2.7499999,1.8986018896102905,-9.229647636413574,-0.0933738648891449,14.3280029296875,3.2196044921875,2.8533935546875
2.7699999,1.3742717504501343,-9.387664794921875,-0.11252748221158981,25.054931640625,-9.5367431640625,-11.2457275390625
2.7899999,1.2018892765045166,-9.576807022094727,0.014365210197865963,31.67724609375,-19.989013671875,-13.2293701171875
2.8099999,1.3718775510787964,-9.768342971801758,0.22026655077934265,33.1573486328125,-16.754150390625,-17.913818359375
2.8299999,1.86508309841156,-9.86650562286377,0.5841852426528931,31.982421875,-7.1563720703125,-30.45654296875
2.8499999,2.5498247146606445,-9.849745750427246,0.933738648891449,30.364990234375,7.01904296875,-36.7889404296875
2.8699999,3.4332852363586426,-9.730035781860352,1.259350061416626,27.7862548828125,16.1590576171875,-25.482177734375
2.8899999,4.3861775398254395,-9.461885452270508,1.45806884765625,22.1710205078125,15.4266357421875,3.936767578125
2.9099999,5.2265424728393555,-9.184157371520996,1.625662922859192,14.556884765625,13.18359375,39.459228515625
2.9299999,5.583278179168701,-8.772355079650879,1.6615760326385498,5.859375,18.85986328125,69.0765380859375
2.9499999,5.351040840148926,-8.42040729522705,1.6855180263519287,-1.983642578125,20.233154296875,75.9124755859375
2.9699999,4.489128112792969,-8.166622161865234,1.6041151285171509,-5.523681640625,20.263671875,58.10546875
2.9899999,3.3423056602478027,-8.125920295715332,1.53707754611969,-5.7525634765625,12.6953125,39.85595703125
3.0099999,2.209848165512085,-8.322244644165039,1.3934253454208374,-2.13623046875,5.0201416015625,35.675048828125
3.0299999,1.3215993642807007,-8.724471092224121,1.3335703611373901,4.0740966796875,-3.631591796875,34.271240234375
3.0499999,0.751779317855835,-9.232041358947754,1.2832920551300049,11.1236572265625,-7.171630859375,24.4598388671875
3.0699999,0.4213795065879822,-9.708487510681152,1.3455413579940796,17.730712890625,-7.99560546875,13.885498046875
3.0899999,0.29209262132644653,-10.079588890075684,1.4652514457702637,23.406982421875,-1.068115234375,6.0577392578125
3.1099999,0.45010992884635925,-10.314221382141113,1.6184803247451782,28.6102294921875,0.30517578125,1.03759765625
3.1299999,0.7709329724311829,-10.393229484558105,1.843535304069519,28.99169921875,-5.889892578125,2.86865234375
3.1499999,1.2090718746185303,-10.33098030090332,1.9967641830444336,25.69580078125,-5.096435546875,7.8582763671875
3.1699999,1.5897499322891235,-10.163386344909668,2.1930887699127197,23.13232421875,-10.1165771484375,11.16943359375
3.1899999,1.764526605606079,-9.876082420349121,2.3582887649536133,18.951416015625,-14.495849609375,7.38525390625
3.2099999,1.7357962131500244,-9.524134635925293,2.557007312774658,12.02392578125,-6.1492919921875,-3.997802734375
3.2299999,1.5490485429763794,-9.198522567749023,2.647987127304077,4.8370361328125,4.1656494140625,-17.4407958984375
3.2499999,1.3503297567367554,-8.968679428100586,2.698265314102173,2.25830078125,-6.8511962890625,-21.54541015625
3.2699999,1.3694833517074585,-8.884882926940918,2.652775526046753,1.220703125,-28.6865234375,-13.885498046875
3.2899999,1.7190368175506592,-8.911218643188477,2.607285737991333,-4.913330078125,-29.8919677734375,0.5340576171875
3.3099999,2.360682964324951,-8.96389102935791,2.5953147411346436,-15.13671875,1.4190673828125,19.3023681640625
3.3299999000000002,2.889801502227783,-8.93037223815918,2.5546131134033203,-24.10888671875,47.1343994140625,33.599853515625
3.3499999,2.9735984802246094,-8.791508674621582,2.300827741622925,-25.115966796875,60.85205078125,30.6854248046875
3.3699999,2.5019407272338867,-8.540117263793945,2.008735179901123,-19.83642578125,32.3333740234375,13.0157470703125
3.3899999,1.7381904125213623,-8.200140953063965,1.702277421951294,-23.101806640625,10.6048583984375,-5.9051513671875
3.4099999,1.1420341730117798,-7.967903137207031,1.577778935432434,-34.7137451171875,30.914306640625,-21.3623046875
3.4299999,0.8475474119186401,-7.927201747894287,1.5490485429763794,-40.2679443359375,61.248779296875,-26.031494140625
3.4499999,0.790086567401886,-8.226476669311523,1.41257905960083,-37.567138671875,66.0247802734375,-20.3857421875
3.4699999,0.8595184087753296,-8.803479194641113,1.1276689767837524,-19.989013671875,30.09033203125,-6.8817138671875
3.4899999,0.9672574996948242,-9.531316757202148,0.7661445140838623,0.2288818359375,-6.622314453125,11.322021484375
3.5099999,1.1180921792984009,-10.163386344909668,0.5147533416748047,16.021728515625,-21.453857421875,30.3192138671875
3.5299999,1.2952631711959839,-10.60391902923584,0.5123591423034668,27.3590087890625,-27.2369384765625,42.48046875
3.5499999,1.4748282432556152,-10.709263801574707,0.7733271718025208,34.942626953125,-32.5775146484375,44.2047119140625
3.5699999,1.556231141090393,-10.587160110473633,1.194706678390503,36.529541015625,-26.5350341796875,38.360595703125
3.5899999,1.5921441316604614,-10.307038307189941,1.7046716213226318,29.998779296875,-8.544921875,32.3028564453125
3.6099999,1.4939818382263184,-10.012551307678223,2.145204782485962,20.3857421875,3.448486328125,29.72412109375
3.6299999,1.3239935636520386,-9.775525093078613,2.454056739807129,9.6282958984375,6.195068359375,25.360107421875
3.6499999,1.0319008827209473,-9.670180320739746,2.580949544906616,-1.52587890625,9.735107421875,16.7694091796875
3.6699999,0.7852981686592102,-9.607931137084961,2.5905263423919678,-12.14599609375,12.4053955078125,7.7056884765625
3.6899999,0.586579442024231,-9.68694019317627,2.499546527862549,-14.0838623046875,9.7503662109375,4.1351318359375
3.7099999,0.524330198764801,-9.785101890563965,2.367865562438965,-16.0675048828125,8.544921875,2.86865234375
3.7299999,0.5482721924781799,-9.971850395202637,2.2002713680267334,-17.15087890625,8.48388671875,4.8370361328125
3.7499999,0.569819986820221,-10.17296314239502,2.03507137298584,-15.9912109375,8.6822509765625,7.0343017578125
3.7699999,0.6057330369949341,-10.304644584655762,1.900996208190918,-12.5732421875,7.2174072265625,5.401611328125
3.7899999,0.5841852426528931,-10.412383079528809,1.8291701078414917,-9.0789794921875,7.965087890625,-0.4730224609375
3.8099999,0.507570743560791,-10.460267066955566,1.7621324062347412,-7.171630859375,16.0064697265625,-6.7901611328125
3.8299999000000002,0.4213795065879822,-10.488997459411621,1.6855180263519287,-4.3182373046875,20.44677734375,-12.1612548828125
3.8499999,0.31603461503982544,-10.551246643066406,1.5610195398330688,3.35693359375,9.2620849609375,-15.7928466796875
3.8699999,0.26096799969673157,-10.56800651550293,1.4508862495422363,11.5203857421875,-9.46044921875,-16.357421875
3.8899999,0.363918662071228,-10.556035041809082,1.4221558570861816,14.7247314453125,-18.585205078125,-15.07568359375
3.9099999,0.5554547905921936,-10.496180534362793,1.5179238319396973,12.4359130859375,-11.04736328125,-13.3514404296875
3.9299999,0.8427590131759644,-10.3549222946167,1.6663644313812256,8.514404296875,1.8157958984375,-11.4593505859375
3.9499999,1.0821791887283325,-10.213664054870605,1.7860745191574097,5.92041015625,6.561279296875,-9.429931640625
3.9699999,1.216254472732544,-10.038887977600098,1.8171991109848022,5.3253173828125,3.936767578125,-7.50732421875
3.9899999,1.3024457693099976,-9.852140426635742,1.7525556087493896,7.049560546875,-1.5716552734375,-6.4544677734375
4.0099999,1.3335703611373901,-9.670180320739746,1.6711528301239014,7.659912109375,-3.1585693359375,-6.6986083984375
4.029999900000001,1.3335703611373901,-9.502586364746094,1.5897499322891235,6.988525390625,-3.0364990234375,-6.195068359375
4.0499999,1.3311761617660522,-9.378087997436523,1.53707754611969,6.5155029296875,-6.0272216796875,-3.7689208984375
4.069999900000001,1.2713210582733154,-9.315838813781738,1.5514427423477173,6.2408447265625,-8.1024169921875,-1.983642578125
4.0899999000000005,1.1994950771331787,-9.301473617553711,1.599326729774475,5.0811767578125,-7.1868896484375,-1.2054443359375
4.1099999,1.1348515748977661,-9.330204010009766,1.7046716213226318,2.99072265625,-5.3558349609375,0.762939453125
4.1299999000000005,1.0773907899856567,-9.399636268615723,1.8507179021835327,1.4801025390625,-1.28173828125,2.74658203125
4.1499999,1.0678139925003052,-9.469067573547363,1.9752163887023926,0.9918212890625,2.5177001953125,5.0201416015625
4.1699999000000005,1.0965443849563599,-9.550470352172852,2.097320795059204,1.52587890625,-0.9918212890625,10.19287109375
4.1899999,1.1659762859344482,-9.615114212036133,2.1954829692840576,0.762939453125,-3.96728515625,16.5557861328125
4.209999900000001,1.2641384601593018,-9.634267807006836,2.255337953567505,-2.25830078125,5.4168701171875,20.44677734375
4.2299999,1.3215993642807007,-9.674968719482422,2.2433669567108154,-2.3651123046875,17.1356201171875,23.7884521484375
4.249999900000001,1.2473790645599365,-9.691728591918945,2.1475989818573,0.06103515625,21.05712890625,27.89306640625
4.2699999,1.048660397529602,-9.691728591918945,1.9632453918457031,5.218505859375,10.009765625,30.303955078125
4.289999900000001,0.7422025203704834,-9.715670585632324,1.7836803197860718,11.8865966796875,-6.011962890625,26.702880859375
4.3099999,0.3998316824436188,-9.706093788146973,1.656787633895874,17.08984375,-11.5814208984375,16.5557861328125
4.329999900000001,0.181959331035614,-9.701305389404297,1.625662922859192,20.050048828125,-12.4969482421875,8.8348388671875
4.3499999,0.0454898327589035,-9.732429504394531,1.702277421951294,20.9808349609375,-19.073486328125,8.6669921875
4.369999900000001,0.043095629662275314,-9.718064308166504,1.845929503440857,18.890380859375,-22.5982666015625,10.009765625
4.3899999,0.14844051003456116,-9.68933391571045,2.0398597717285156,14.5721435546875,-14.34326171875,4.69970703125
4.409999900000001,0.28730419278144836,-9.63187313079834,2.233790159225464,10.040283203125,-2.838134765625,-4.9285888671875
4.4299999,0.4884171485900879,-9.5408935546875,2.3774423599243164,6.8206787109375,1.7242431640625,-10.4217529296875
4.449999900000001,0.7206547260284424,-9.502586364746094,2.454056739807129,4.57763671875,1.1749267578125,-8.9263916015625
4.4699999,0.8379706144332886,-9.514557838439941,2.47560453414917,3.0670166015625,3.0670166015625,-4.7607421875
4.489999900000001,0.9648633003234863,-9.528923034667969,2.3726539611816406,3.692626953125,5.5694580078125,-3.2806396484375
4.5099999,0.9050082564353943,-9.603142738342285,2.3032219409942627,9.6435546875,-3.7689208984375,-3.6468505859375
4.529999900000001,0.8355764150619507,-9.636661529541016,2.1739351749420166,16.5557861328125,-16.4337158203125,0.1678466796875
4.5499999,0.7469909191131592,-9.66539192199707,2.1595699787139893,20.2178955078125,-17.822265625,3.5400390625
4.569999900000001,0.7469909191131592,-9.653421401977539,2.2649147510528564,21.30126953125,-11.53564453125,4.7149658203125
4.5899999000000005,0.7924807667732239,-9.576807022094727,2.4588451385498047,20.4620361328125,1.2054443359375,4.669189453125
4.609999900000001,0.8738836050033569,-9.445125579833984,2.698265314102173,16.8914794921875,13.519287109375,3.2501220703125
4.6299999000000005,0.8834604024887085,-9.339780807495117,2.8850131034851074,14.1448974609375,18.0206298828125,0.06103515625
4.6499999,0.8331822156906128,-9.224859237670898,3.0142998695373535,11.41357421875,19.500732421875,-4.0283203125
4.6699999000000005,0.7350199222564697,-9.193734169006348,3.090914487838745,7.4462890625,16.9219970703125,-6.2103271484375
4.6899999,0.6392518281936646,-9.210494041442871,3.1220390796661377,2.8839111328125,16.11328125,-6.195068359375
4.709999900000001,0.5817909836769104,-9.260771751403809,3.134010076522827,-0.6103515625,15.472412109375,-5.5084228515625
4.7299999,0.586579442024231,-9.339780807495117,3.114856481552124,-1.40380859375,11.1846923828125,-5.2490234375
4.749999900000001,0.5913678407669067,-9.435548782348633,3.0597896575927734,-2.7313232421875,10.19287109375,-4.241943359375
4.7699999,0.6200982332229614,-9.531316757202148,2.9975404739379883,-2.99072265625,8.30078125,-2.410888671875
4.789999900000001,0.6320692300796509,-9.59596061706543,2.937685489654541,-1.800537109375,4.4097900390625,-1.0223388671875
4.8099999,0.6344634294509888,-9.643844604492188,2.892195701599121,-0.885009765625,1.5106201171875,-0.0457763671875
4.829999900000001,0.6105214357376099,-9.646238327026367,2.875436305999756,-0.8544921875,-0.3204345703125,1.312255859375
4.8499999,0.5889736413955688,-9.619902610778809,2.889801502227783,0.030517578125,-2.5482177734375,1.6021728515625
4.869999900000001,0.5530605912208557,-9.588777542114258,2.935291290283203,1.220703125,-4.08935546875,0.48828125
4.8899999,0.5530605912208557,-9.536105155944824,3.0310592651367188,-0.3509521484375,-4.1046142578125,0.6866455078125
4.909999900000001,0.586579442024231,-9.464279174804688,3.1531636714935303,-5.5999755859375,-0.9002685546875,2.288818359375
4.9299999,0.6033388376235962,-9.39245319366455,3.251325845718384,-11.3372802734375,4.6539306640625,2.13623046875
4.949999900000001,0.586579442024231,-9.334992408752441,3.3063924312591553,-14.16015625,6.1187744140625,0.1983642578125
4.9699999,0.524330198764801,-9.313444137573242,3.265691041946411,-14.16015625,2.1820068359375,-0.5340576171875
4.989999900000001,0.4189853072166443,-9.313444137573242,3.1866824626922607,-14.7552490234375,2.197265625,-0.030517578125
5.0099999,0.3687070608139038,-9.320627212524414,3.093308687210083,-16.021728515625,7.3394775390625,-1.03759765625
5.029999900000001,0.33758243918418884,-9.30386734008789,3.0119056701660156,-18.798828125,16.6473388671875,-4.9896240234375
5.0499999,0.33997663855552673,-9.282320022583008,2.942473888397217,-22.15576171875,24.0478515625,-8.9569091796875
5.069999900000001,0.3232172429561615,-9.265560150146484,2.846705913543701,-24.505615234375,23.162841796875,-10.040283203125
5.0899999000000005,0.3232172429561615,-9.258378028869629,2.75812029838562,-25.634765625,12.4053955078125,-8.4991455078125
5.109999900000001,0.3280056416988373,-9.296685218811035,2.63362193107605,-25.1617431640625,1.2359619140625,-5.8746337890625
5.1299999000000005,0.3519476354122162,-9.35893440246582,2.5115175247192383,-23.681640625,-1.434326171875,-3.1585693359375
5.1499999,0.3663128614425659,-9.464279174804688,2.3535003662109375,-20.44677734375,-1.6021728515625,-0.0152587890625
5.1699999000000005,0.3734954595565796,-9.588777542114258,2.1954829692840576,-14.2974853515625,-7.62939453125,3.11279296875
5.1899999,0.3758896589279175,-9.708487510681152,2.054224967956543,-7.7667236328125,-15.4266357421875,6.8206787109375
5.209999900000001,0.40940847992897034,-9.785101890563965,1.965639591217041,-3.814697265625,-15.045166015625,10.406494140625
5.2299999,0.45250412821769714,-9.81143856048584,1.9393033981323242,-0.6866455078125,-9.918212890625,11.688232421875
5.249999900000001,0.4620809257030487,-9.806650161743164,1.9488801956176758,2.9449462890625,-6.7291259765625,10.3607177734375
5.2699999,0.4118026793003082,-9.78989028930664,1.9728221893310547,6.89697265625,-8.60595703125,9.246826171875
5.289999900000001,0.31603461503982544,-9.792284965515137,2.008735179901123,9.3536376953125,-10.955810546875,8.6822509765625
5.3099999,0.24660277366638184,-9.830592155456543,2.0638017654418945,9.33837890625,-7.99560546875,7.3089599609375
5.329999900000001,0.23702596127986908,-9.921571731567383,2.118868589401245,7.32421875,-2.410888671875,7.1258544921875
5.3499999,0.2585737705230713,-10.041281700134277,2.1739351749420166,4.364013671875,-0.762939453125,9.0789794921875
5.369999900000001,0.27054479718208313,-10.168174743652344,2.2026655673980713,1.373291015625,-5.2032470703125,11.16943359375
5.3899999,0.23702596127986908,-10.24239444732666,2.207453966140747,-1.617431640625,-9.4146728515625,9.6893310546875
5.409999900000001,0.15322890877723694,-10.24239444732666,2.2026655673980713,-4.241943359375,-8.72802734375,3.5400390625
5.4299999,0.08619125932455063,-10.182539939880371,2.2002713680267334,-6.256103515625,-6.3629150390625,-2.3956298828125
5.449999900000001,0.043095629662275314,-10.101137161254883,2.212242364883423,-7.7362060546875,-5.7830810546875,-3.2196044921875
5.4699999,0.05506663769483566,-10.038887977600098,2.2457611560821533,-9.185791015625,-3.2958984375,-1.0986328125
5.489999900000001,0.07661445438861847,-10.007762908935547,2.2673089504241943,-10.7421875,2.74658203125,0.2288818359375
5.5099999,0.06464344263076782,-9.988609313964844,2.27209734916687,-11.077880859375,4.1351318359375,1.495361328125
5.529999900000001,0.019153613597154617,-9.964667320251465,2.248155355453491,-8.941650390625,0.152587890625,1.2359619140625
5.5499999,-0.038307227194309235,-9.938331604003906,2.207453966140747,-6.6070556640625,2.593994140625,-3.6163330078125
5.569999900000001,-0.07422025501728058,-9.919178009033203,2.1547815799713135,-5.1116943359375,9.735107421875,-8.6212158203125
5.5899999000000005,-0.06703764945268631,-9.914389610290527,2.1140801906585693,-3.4637451171875,11.7034912109375,-8.7738037109375
5.609999900000001,-0.014365210197865963,-9.916783332824707,2.094926595687866,-2.3040771484375,9.7503662109375,-6.4544677734375
5.6299999000000005,0.033518824726343155,-9.921571731567383,2.0901381969451904,-3.8909912109375,11.7034912109375,-5.9356689453125
5.6499999,0.038307227194309235,-9.916783332824707,2.094926595687866,-6.9732666015625,16.510009765625,-7.1563720703125
5.6699999000000005,0,-9.923966407775879,2.0925323963165283,-7.75146484375,16.9677734375,-8.8348388671875
5.6899999,-0.05985504388809204,-9.964667320251465,2.075772762298584,-6.4849853515625,17.669677734375,-11.0626220703125
5.709999900000001,-0.0933738648891449,-10.022128105163574,2.0446481704711914,-4.9591064453125,23.223876953125,-12.9547119140625
5.7299999,-0.07422025501728058,-10.086771965026855,2.0159177780151367,-3.41796875,28.1982421875,-13.031005859375
5.749999900000001,0.10295066982507706,-10.038887977600098,2.011129379272461,-0.579833984375,16.0369873046875,-8.9263916015625
5.7699999,0.19632454216480255,-9.90241813659668,2.054224967956543,-1.6021728515625,15.44189453125,-10.4217529296875
5.789999900000001,0.29209262132644653,-9.720458984375,2.094926595687866,-3.2806396484375,18.768310546875,-12.939453125
5.8099999,0.3447650372982025,-9.557653427124023,2.1284453868865967,-4.5928955078125,17.120361328125,-13.61083984375
5.829999900000001,0.38546648621559143,-9.452308654785156,2.1140801906585693,-5.584716796875,13.3209228515625,-12.5274658203125
5.8499999,0.4118026793003082,-9.421183586120605,2.073378562927246,-6.9122314453125,12.3138427734375,-10.772705078125
5.869999900000001,0.4429273009300232,-9.44752025604248,2.006340980529785,-8.209228515625,13.6566162109375,-9.6435546875
5.8899999,0.4908113479614258,-9.500192642211914,1.9297266006469727,-8.7890625,15.1214599609375,-9.27734375
5.909999900000001,0.5482721924781799,-9.545681953430176,1.845929503440857,-8.4381103515625,13.5040283203125,-8.880615234375
5.9299999,0.6177040338516235,-9.57441234588623,1.7597382068634033,-7.5836181640625,11.505126953125,-10.162353515625
5.949999900000001,0.7134721279144287,-9.576807022094727,1.6974890232086182,-6.77490234375,10.650634765625,-12.51220703125
5.9699999,0.8307880163192749,-9.579200744628906,1.644816517829895,-6.40869140625,12.3443603515625,-13.8702392578125
5.989999900000001,0.9672574996948242,-9.57441234588623,1.601720929145813,-6.591796875,14.0533447265625,-14.251708984375
6.0099999,1.1013327836990356,-9.593565940856934,1.558625340461731,-6.4697265625,13.8092041015625,-14.6636962890625
6.029999900000001,1.2282254695892334,-9.643844604492188,1.5155296325683594,-5.7525634765625,12.39013671875,-14.678955078125
6.0499999,1.3503297567367554,-9.720458984375,1.4844050407409668,-4.8675537109375,10.711669921875,-14.2364501953125
6.069999900000001,1.4532804489135742,-9.830592155456543,1.4628572463989258,-5.218505859375,9.3994140625,-13.2598876953125
6.0899999000000005,1.534683346748352,-9.959878921508789,1.4508862495422363,-7.0648193359375,8.4075927734375,-12.0697021484375
6.109999900000001,1.6041151285171509,-10.072406768798828,1.4484920501708984,-9.033203125,7.2784423828125,-12.054443359375
6.1299999000000005,1.659181833267212,-10.17296314239502,1.4389152526855469,-10.345458984375,8.7432861328125,-13.36669921875
6.149999900000001,1.7262194156646729,-10.228029251098633,1.41257905960083,-10.2081298828125,10.0860595703125,-15.3656005859375
6.1699999000000005,1.8148049116134644,-10.256759643554688,1.381454348564148,-8.4228515625,6.9732666015625,-17.8985595703125
6.1899999,1.900996208190918,-10.26394271850586,1.3335703611373901,-6.439208984375,2.655029296875,-19.6380615234375
6.209999900000001,1.9967641830444336,-10.244789123535156,1.2856862545013428,-5.4931640625,-0.0762939453125,-19.47021484375
6.2299999,2.0422539710998535,-10.232817649841309,1.2545616626739502,-4.8675537109375,-0.30517578125,-18.7530517578125
6.249999900000001,2.054224967956543,-10.192116737365723,1.2210428714752197,-4.2877197265625,1.068115234375,-19.1497802734375
6.2699999,2.0398597717285156,-10.134655952453613,1.2066776752471924,-2.838134765625,0.5035400390625,-21.484375
6.289999900000001,2.030282974243164,-10.04846477508545,1.1899182796478271,-1.2969970703125,-0.2288818359375,-23.86474609375
6.3099999,2.03507137298584,-9.93354320526123,1.1683704853057861,-0.946044921875,-1.3275146484375,-24.169921875
6.329999900000001,2.056619167327881,-9.77791976928711,1.158793568611145,-0.42724609375,-6.561279296875,-23.712158203125
6.3499999,2.0925323963165283,-9.59835433959961,1.1803414821624756,-0.732421875,-11.1083984375,-26.611328125
6.369999900000001,2.1308395862579346,-9.41400146484375,1.194706678390503,-3.7689208984375,-7.2479248046875,-31.3873291015625
6.3899999,2.188300371170044,-9.26795482635498,1.216254472732544,-5.92041015625,-2.8076171875,-30.9906005859375
6.409999900000001,2.2457611560821533,-9.181763648986816,1.1994950771331787,-6.9732666015625,-2.197265625,-23.5595703125
6.4299999,2.279279947280884,-9.138668060302734,1.1420341730117798,-6.4544677734375,-1.800537109375,-15.31982421875
6.449999900000001,2.2697031497955322,-9.124302864074707,1.048660397529602,-3.4637451171875,1.9073486328125,-13.0767822265625
6.4699999,2.2194249629974365,-9.095572471618652,0.9409212470054626,2.105712890625,3.11279296875,-15.167236328125
6.489999900000001,2.1954829692840576,-9.066842079162598,0.8547300100326538,7.9193115234375,-3.96728515625,-16.632080078125
6.5099999,2.2577321529388428,-9.033323287963867,0.8092401623725891,11.5966796875,-14.2364501953125,-15.411376953125
6.529999900000001,2.4229321479797363,-9.023746490478516,0.8307880163192749,10.986328125,-17.3492431640625,-12.115478515625
6.5499999,2.650381326675415,-9.030928611755371,0.9097966551780701,6.866455078125,-14.1754150390625,-7.26318359375
6.569999900000001,2.8347349166870117,-9.066842079162598,1.0103530883789062,1.129150390625,-10.0860595703125,-2.5482177734375
6.5899999000000005,2.8850131034851074,-9.131484985351562,1.0678139925003052,-3.96728515625,-5.157470703125,-1.64794921875
6.609999900000001,2.7964274883270264,-9.227252960205078,1.072602391242981,-5.828857421875,-1.4190673828125,-4.669189453125
6.6299999000000005,2.626439332962036,-9.32302188873291,1.0247182846069336,-5.0201416015625,-0.732421875,-8.4991455078125
6.649999900000001,2.4612393379211426,-9.428366661071777,0.9528923034667969,-3.509521484375,0.274658203125,-11.444091796875
6.6699999000000005,2.3918075561523438,-9.521739959716797,0.9002198576927185,-1.312255859375,1.2664794921875,-13.5955810546875
6.6899999,2.406172752380371,-9.622296333312988,0.8595184087753296,1.983642578125,1.9378662109375,-15.045166015625
6.709999900000001,2.5091233253479004,-9.706093788146973,0.8571242094039917,5.37109375,2.105712890625,-14.4195556640625
6.7299999,2.6240451335906982,-9.78989028930664,0.8858546018600464,7.8582763671875,2.3956298828125,-13.8092041015625
6.749999900000001,2.7461493015289307,-9.828198432922363,0.9433154463768005,9.9945068359375,3.23486328125,-15.4876708984375
6.7699999,2.8395233154296875,-9.840168952941895,1.0295066833496094,11.8865966796875,5.889892578125,-17.39501953125
6.789999900000001,2.8826189041137695,-9.804255485534668,1.137245774269104,12.786865234375,7.293701171875,-17.3492431640625
6.8099999,2.9017724990844727,-9.706093788146973,1.2545616626739502,13.3209228515625,6.1492919921875,-17.578125
6.829999900000001,2.875436305999756,-9.583989143371582,1.3742717504501343,13.763427734375,6.9427490234375,-21.0723876953125
6.8499999,2.8395233154296875,-9.41639518737793,1.4867992401123047,14.1754150390625,8.087158203125,-24.3988037109375
6.869999900000001,2.832340717315674,-9.255983352661133,1.6089035272598267,13.8397216796875,6.8817138671875,-24.84130859375
6.8899999,2.849100112915039,-9.095572471618652,1.7190368175506592,12.7410888671875,7.38525390625,-23.651123046875
6.909999900000001,2.9065608978271484,-8.968679428100586,1.8291701078414917,11.7340087890625,10.8184814453125,-22.9339599609375
6.9299999,2.9735984802246094,-8.87051773071289,1.9321208000183105,11.1541748046875,13.0767822265625,-21.636962890625
6.949999900000001,3.0142998695373535,-8.822632789611816,2.006340980529785,11.2152099609375,12.4053955078125,-17.7001953125
6.9699999,3.0166940689086914,-8.803479194641113,2.078166961669922,11.7340087890625,9.5367431640625,-12.51220703125
6.989999900000001,2.9544448852539062,-8.796297073364258,2.1284453868865967,12.054443359375,6.866455078125,-9.9334716796875
7.0099999,2.87064790725708,-8.791508674621582,2.185906171798706,11.7950439453125,4.39453125,-9.27734375
7.029999900000001,2.7748796939849854,-8.789113998413086,2.231395959854126,10.650634765625,0.3204345703125,-6.8359375
7.0499999,2.7461493015289307,-8.762778282165527,2.2673089504241943,8.575439453125,-3.96728515625,-3.35693359375
7.069999900000001,2.7772738933563232,-8.738836288452148,2.293645143508911,5.55419921875,-6.1798095703125,-2.4566650390625
7.0899999000000005,2.8993782997131348,-8.702922821044922,2.3104045391082764,1.617431640625,-6.6375732421875,-4.45556640625
7.109999900000001,3.1052796840667725,-8.65743350982666,2.315192937850952,-2.8839111328125,-6.1187744140625,-6.5155029296875
7.1299999000000005,3.3638534545898438,-8.643068313598633,2.293645143508911,-7.4005126953125,-5.035400390625,-7.0037841796875
7.149999900000001,3.6296098232269287,-8.65982723236084,2.229001760482788,-11.1541748046875,-4.9285888671875,-6.8206787109375
7.1699999000000005,3.8810009956359863,-8.705317497253418,2.145204782485962,-13.1988525390625,-4.3792724609375,-6.6986083984375
7.1899999,4.034229755401611,-8.78193187713623,2.0254945755004883,-13.73291015625,-0.579833984375,-7.14111328125
7.209999900000001,4.094084739685059,-8.87051773071289,1.9081788063049316,-13.24462890625,4.2572021484375,-7.3699951171875
7.2299999,4.048594951629639,-8.968679428100586,1.7884687185287476,-10.528564453125,4.94384765625,-6.6986083984375
7.249999900000001,3.9456443786621094,-9.045293807983398,1.6903064250946045,-5.7830810546875,3.72314453125,-6.5765380859375
7.2699999,3.818751811981201,-9.11233139038086,1.6160861253738403,-0.7781982421875,3.4637451171875,-5.5999755859375
7.289999900000001,3.711012601852417,-9.129091262817383,1.5849615335464478,3.4942626953125,1.6937255859375,-3.41796875
7.3099999,3.6559460163116455,-9.114726066589355,1.601720929145813,7.0343017578125,-0.06103515625,-2.86865234375
7.329999900000001,3.624821424484253,-9.069235801696777,1.656787633895874,9.5672607421875,-0.2899169921875,-3.082275390625
7.3499999,3.667917013168335,-8.975862503051758,1.7597382068634033,10.4522705078125,-0.152587890625,-3.0364990234375
7.369999900000001,3.751713991165161,-8.901641845703125,1.8770540952682495,9.979248046875,0.335693359375,-2.716064453125
7.3899999,3.864241600036621,-8.803479194641113,2.011129379272461,9.063720703125,0.18310546875,-0.4119873046875
7.409999900000001,3.9647979736328125,-8.741230010986328,2.1332337856292725,7.4920654296875,0.518798828125,1.9378662109375
7.4299999,4.015076160430908,-8.674192428588867,2.229001760482788,5.3253173828125,2.44140625,0.579833984375
7.449999900000001,3.998316764831543,-8.640673637390137,2.296039342880249,3.8909912109375,4.08935546875,-2.197265625
7.4699999,3.952826976776123,-8.611943244934082,2.3367409706115723,2.838134765625,4.45556640625,-2.6702880859375
7.489999900000001,3.869029998779297,-8.604761123657227,2.3511061668395996,2.2125244140625,3.9520263671875,-1.739501953125
7.5099999,3.8115692138671875,-8.609549522399902,2.360682964324951,2.5482177734375,3.90625,-1.312255859375
7.529999900000001,3.7397429943084717,-8.621520042419434,2.3487119674682617,3.8299560546875,3.662109375,-1.15966796875
7.5499999,3.689464807510376,-8.621520042419434,2.3487119674682617,4.974365234375,1.434326171875,-0.42724609375
7.569999900000001,3.667917013168335,-8.647856712341309,2.346317768096924,5.5084228515625,-1.0833740234375,-0.0762939453125
7.5899999000000005,3.6727054119110107,-8.678980827331543,2.360682964324951,6.1187744140625,-2.8228759765625,1.068115234375
7.609999900000001,3.689464807510376,-8.743624687194824,2.38462495803833,5.9051513671875,-3.1280517578125,2.7923583984375
7.6299999000000005,3.708618402481079,-8.83699893951416,2.4229321479797363,4.8370361328125,-3.1890869140625,2.777099609375
7.649999900000001,3.670311212539673,-8.932766914367676,2.4636335372924805,3.631591796875,-2.899169921875,0.1983642578125
7.6699999000000005,3.5625722408294678,-9.071630477905273,2.494758129119873,3.1280517578125,-2.1820068359375,-4.669189453125
7.6899999,3.428496837615967,-9.17697525024414,2.513911724090576,3.35693359375,-3.6163330078125,-11.6424560546875
7.709999900000001,3.313575267791748,-9.311050415039062,2.5306711196899414,3.0975341796875,-6.7901611328125,-19.3634033203125
7.7299999,3.2968156337738037,-9.41639518737793,2.5474305152893066,1.6937255859375,-8.5906982421875,-24.3377685546875
7.749999900000001,3.375824451446533,-9.50737476348877,2.559401512145996,-0.213623046875,-9.429931640625,-26.702880859375
7.7699999,3.5482068061828613,-9.548076629638672,2.5546131134033203,-1.64794921875,-11.199951171875,-28.2440185546875
7.789999900000001,3.7181951999664307,-9.521739959716797,2.52109432220459,-2.5787353515625,-13.73291015625,-31.6162109375
7.8099999,3.8762125968933105,-9.437943458557129,2.4684219360351562,-3.6163330078125,-15.1214599609375,-37.0025634765625
7.829999900000001,3.998316764831543,-9.306262016296387,2.406172752380371,-5.1727294921875,-14.373779296875,-41.5802001953125
7.8499999,4.10366153717041,-9.17697525024414,2.341529369354248,-7.080078125,-13.00048828125,-44.7998046875
7.869999900000001,4.230554580688477,-9.064447402954102,2.274491548538208,-8.1024169921875,-14.1143798828125,-47.0123291015625
7.8899999,4.364629745483398,-9.004592895507812,2.205059766769409,-8.6517333984375,-17.4102783203125,-47.66845703125
7.909999900000001,4.532223701477051,-8.951920509338379,2.1356279850006104,-9.1705322265625,-19.1497802734375,-46.5850830078125
7.9299999,4.704606533050537,-8.89445972442627,2.0661959648132324,-9.2010498046875,-19.287109375,-47.6837158203125
7.949999900000001,4.876988887786865,-8.803479194641113,1.98958158493042,-8.3770751953125,-19.287109375,-51.1627197265625
7.9699999,5.051765441894531,-8.652645111083984,1.8938134908676147,-6.89697265625,-20.355224609375,-53.7872314453125
7.989999900000001,5.236119270324707,-8.47547435760498,1.7932571172714233,-5.3253173828125,-23.1475830078125,-53.131103515625
8.0099999,5.458779811859131,-8.252813339233398,1.678335428237915,-4.2877197265625,-23.1170654296875,-51.5594482421875
8.0299999,5.679046630859375,-8.044517517089844,1.5705963373184204,-3.1280517578125,-18.37158203125,-50.537109375
8.049999900000001,5.875370979309082,-7.817068576812744,1.4389152526855469,-1.03759765625,-15.7623291015625,-47.5616455078125
8.069999900000001,6.028599739074707,-7.592013359069824,1.314416766166687,1.9073486328125,-16.6168212890625,-45.8221435546875
8.0899999,6.157886981964111,-7.359776020050049,1.1851298809051514,4.57763671875,-17.1356201171875,-45.7763671875
8.1099999,6.287173748016357,-7.1490864753723145,1.0845733880996704,6.3934326171875,-16.1590576171875,-43.304443359375
8.129999900000001,6.45476770401001,-6.962338447570801,1.0199298858642578,7.965087890625,-16.2200927734375,-35.2020263671875
8.149999900000001,6.584054470062256,-6.825869083404541,0.9768342971801758,9.70458984375,-17.5323486328125,-26.824951171875
8.1699999,6.703764915466309,-6.72531270980835,0.9792284965515137,10.772705078125,-17.6544189453125,-23.98681640625
8.1899999,6.746860504150391,-6.6391215324401855,0.9911994934082031,10.528564453125,-12.847900390625,-24.9481201171875
8.2099999,6.734889507293701,-6.586448669433594,1.0247182846069336,9.4757080078125,-9.3231201171875,-23.4375
8.229999900000001,6.718130111694336,-6.512228488922119,1.0630255937576294,8.4228515625,-9.9639892578125,-22.125244140625
8.2499999,6.718130111694336,-6.485892295837402,1.1037269830703735,7.3089599609375,-9.21630859375,-23.9715576171875
8.2699999,6.7492547035217285,-6.447585105895996,1.137245774269104,5.767822265625,-5.7830810546875,-23.74267578125
8.2899999,6.787561893463135,-6.44279670715332,1.1563993692398071,4.0130615234375,-4.791259765625,-20.0347900390625
8.309999900000001,6.818686485290527,-6.4380083084106445,1.158793568611145,2.6397705078125,-8.8958740234375,-18.402099609375
8.3299999,6.818686485290527,-6.4164605140686035,1.1563993692398071,1.0833740234375,-10.8795166015625,-21.8505859375
8.3499999,6.8593878746032715,-6.3518171310424805,1.1851298809051514,-1.861572265625,-5.615234375,-27.496337890625
8.3699999,6.897695064544678,-6.27280855178833,1.2018892765045166,-6.40869140625,-0.1678466796875,-28.9764404296875
8.389999900000001,7.026981830596924,-6.162675380706787,1.2306196689605713,-11.16943359375,-1.922607421875,-25.2838134765625
8.4099999,7.173028469085693,-6.1267619132995605,1.2449848651885986,-14.373779296875,-7.8277587890625,-21.30126953125
8.4299999,7.319074630737305,-6.0836663246154785,1.1994950771331787,-15.6707763671875,-7.9498291015625,-18.3868408203125
8.4499999,7.481880187988281,-6.088454723358154,1.1492167711257935,-15.93017578125,-4.4708251953125,-15.3350830078125
8.469999900000001,7.544129371643066,-6.088454723358154,1.039083480834961,-14.9383544921875,-3.1585693359375,-12.603759765625
8.4899999,7.539340972900391,-6.078877925872803,0.8978256583213806,-11.9476318359375,-5.7373046875,-11.5509033203125
8.5099999,7.457938194274902,-6.088454723358154,0.7469909191131592,-8.3160400390625,-7.1258544921875,-13.031005859375
8.5299999,7.390900611877441,-6.081272125244141,0.6224924325942993,-4.7760009765625,-6.8817138671875,-14.7247314453125
8.549999900000001,7.362170219421387,-6.066906929016113,0.5195417404174805,-2.01416015625,-6.5460205078125,-13.6871337890625
8.569999900000001,7.402871608734131,-6.0597243309021,0.49320554733276367,0.152587890625,-6.4544677734375,-11.41357421875
8.5899999,7.479485988616943,-6.054935932159424,0.47644615173339844,1.9073486328125,-5.096435546875,-10.498046875
8.6099999,7.55131196975708,-6.081272125244141,0.49799394607543945,3.570556640625,-3.84521484375,-10.0860595703125
8.629999900000001,7.603984832763672,-6.1052141189575195,0.5267243981361389,5.3863525390625,-4.82177734375,-9.8419189453125
8.649999900000001,7.65186882019043,-6.114790916442871,0.5985504388809204,6.3629150390625,-5.950927734375,-10.6658935546875
8.6699999,7.6782050132751465,-6.052541732788086,0.6919242739677429,4.39453125,-2.655029296875,-12.7105712890625
8.6899999,7.673416614532471,-5.985504150390625,0.7996633648872375,-1.373291015625,2.0294189453125,-14.1448974609375
8.709999900000001,7.666234016418457,-5.884947776794434,0.8978256583213806,-5.4931640625,-0.6561279296875,-13.7176513671875
8.729999900000001,7.627926826477051,-5.793968200683594,0.9265560507774353,-6.744384765625,-5.4779052734375,-13.6871337890625
8.7499999,7.60637903213501,-5.748478412628174,0.9217676520347595,-6.378173828125,-2.7923583984375,-16.5252685546875
8.7699999,7.625532627105713,-5.705382823944092,0.8475474119186401,-3.7841796875,-1.2054443359375,-18.035888671875
8.7899999,7.659051418304443,-5.702988624572754,0.768538773059845,-0.3814697265625,-10.3912353515625,-12.542724609375
8.809999900000001,7.735665798187256,-5.679046630859375,0.7086837291717529,2.25830078125,-22.2015380859375,-5.4168701171875
8.8299999,7.7643961906433105,-5.679046630859375,0.6655880808830261,4.1046142578125,-22.216796875,-5.096435546875
8.8499999,7.8098859786987305,-5.609614372253418,0.6584054827690125,4.3792724609375,-13.9007568359375,-8.5601806640625
8.8699999,7.8098859786987305,-5.571307182312012,0.6631938815116882,4.2877197265625,-9.552001953125,-10.1470947265625
8.889999900000001,7.800309181213379,-5.499481201171875,0.608127236366272,4.3792724609375,-12.6800537109375,-9.27734375
8.9099999,7.841010570526123,-5.434837818145752,0.5889736413955688,4.0283203125,-17.2119140625,-7.7667236328125
8.9299999,7.876923561096191,-5.398924827575684,0.524330198764801,3.11279296875,-17.0745849609375,-7.75146484375
8.9499999,7.977479934692383,-5.310339450836182,0.48602294921875,1.8157958984375,-9.7808837890625,-8.97216796875
8.969999900000001,8.087613105773926,-5.322310447692871,0.4572925269603729,0.823974609375,-3.9215087890625,-9.368896484375
8.9899999,8.17141056060791,-5.319916248321533,0.38546648621559143,0.7781982421875,-4.7454833984375,-6.40869140625
9.0099999,8.238448143005371,-5.370194435119629,0.31364041566848755,0.9613037109375,-8.1329345703125,-1.15966796875
9.0299999,8.250418663024902,-5.432443618774414,0.2537853717803955,0.67138671875,-9.1552734375,1.8463134765625
9.049999900000001,8.197746276855469,-5.434837818145752,0.19153612852096558,0.6103515625,-7.2021484375,0.2593994140625
9.069999900000001,8.11634349822998,-5.43723201751709,0.17717093229293823,0.8697509765625,-3.662109375,-2.9754638671875
9.0899999,8.020575523376465,-5.4228668212890625,0.16759411990642548,1.373291015625,-2.3040771484375,-4.913330078125
9.1099999,7.960720539093018,-5.39174222946167,0.15322890877723694,2.3345947265625,-3.082275390625,-4.5013427734375
9.129999900000001,7.977479934692383,-5.446808815002441,0.15562310814857483,3.5400390625,-2.655029296875,-2.7008056640625
9.149999900000001,8.010998725891113,-5.446808815002441,0.15083470940589905,5.06591796875,-0.213623046875,-0.5035400390625
9.1699999,8.08043098449707,-5.475539207458496,0.1604115068912506,6.8206787109375,-0.7476806640625,1.77001953125
9.1899999,8.085219383239746,-5.506663799285889,0.19393034279346466,7.99560546875,-2.410888671875,1.7852783203125
9.209999900000001,8.056488990783691,-5.473145008087158,0.2322375625371933,8.575439453125,-2.0294189453125,0.091552734375
9.229999900000001,8.015787124633789,-5.48272180557251,0.2849099934101105,8.9111328125,-0.518798828125,-0.79345703125
9.2499999,7.967903137207031,-5.477933406829834,0.33039984107017517,9.1094970703125,-0.3509521484375,-0.5645751953125
9.2699999,7.94635534286499,-5.458779811859131,0.3447650372982025,9.1552734375,-0.7476806640625,0.1373291015625
9.2899999,7.960720539093018,-5.48272180557251,0.3878606855869293,8.72802734375,-1.2969970703125,1.28173828125
9.309999900000001,7.94635534286499,-5.463568210601807,0.4165911078453064,7.4462890625,-1.953125,2.9144287109375
9.3299999,7.94635534286499,-5.4444146156311035,0.4596867263317108,5.615234375,-2.86865234375,3.5552978515625
9.3499999,7.908048152923584,-5.458779811859131,0.5099649429321289,3.7384033203125,-2.8228759765625,1.28173828125
9.3699999,7.910442352294922,-5.473145008087158,0.5219359993934631,1.64794921875,-0.4425048828125,-1.6937255859375
9.389999900000001,7.975085735321045,-5.501875400543213,0.5195417404174805,0.7476806640625,-2.3345947265625,1.129150390625
9.4099999,8.04930591583252,-5.51624059677124,0.5003881454467773,-0.1678466796875,-2.38037109375,3.0364990234375
9.4299999,8.099584579467773,-5.5545477867126465,0.47644615173339844,-0.67138671875,-1.007080078125,2.532958984375
9.4499999,8.097189903259277,-5.568912982940674,0.45489832758903503,-0.1983642578125,-0.3814697265625,1.1444091796875
9.469999900000001,8.092401504516602,-5.602431774139404,0.42377370595932007,0.7171630859375,-0.732421875,0.335693359375
9.4899999,8.058882713317871,-5.66228723526001,0.395043283700943,1.1444091796875,-1.2054443359375,0.9613037109375
9.5099999,8.042123794555664,-5.688623428344727,0.3687070608139038,1.495361328125,-2.0294189453125,2.105712890625
9.5299999,8.01339340209961,-5.731719017028809,0.33758243918418884,1.7242431640625,-2.2430419921875,1.8463134765625
9.549999900000001,7.972691535949707,-5.750872611999512,0.2992752194404602,2.62451171875,-2.5482177734375,-0.396728515625
9.569999900000001,7.9415669441223145,-5.758055210113525,0.27054479718208313,4.1656494140625,-3.2501220703125,-1.77001953125
9.5899999,7.943961143493652,-5.7772088050842285,0.26096799969673157,4.1656494140625,-0.67138671875,-1.8310546875
9.6099999,7.948749542236328,-5.750872611999512,0.26336219906806946,3.2501220703125,1.0223388671875,-1.9683837890625
9.629999900000001,7.979874134063721,-5.686229228973389,0.2849099934101105,2.3040771484375,-0.030517578125,-2.777099609375
9.649999900000001,8.003816604614258,-5.621585369110107,0.3256114423274994,1.4190673828125,-0.5645751953125,-3.35693359375
9.6699999,7.999027729034424,-5.521028995513916,0.3495534360408783,-0.030517578125,-0.3204345703125,-1.983642578125
9.6899999,8.010998725891113,-5.458779811859131,0.3878606855869293,-1.8768310546875,0.457763671875,-0.8087158203125
9.709999900000001,8.003816604614258,-5.4252610206604,0.40940847992897034,-3.326416015625,2.3651123046875,-1.52587890625
9.729999900000001,7.977479934692383,-5.406107425689697,0.4118026793003082,-3.96728515625,2.9754638671875,-1.7242431640625
9.7499999,7.972691535949707,-5.418078422546387,0.4141969084739685,-4.119873046875,0.6561279296875,0.1220703125
9.7699999,7.955932140350342,-5.439626216888428,0.4189853072166443,-4.5166015625,-1.678466796875,1.556396484375
9.7899999,7.955932140350342,-5.463568210601807,0.40222588181495667,-4.3792724609375,-0.48828125,1.03759765625
9.809999900000001,7.979874134063721,-5.525817394256592,0.4213795065879822,-3.47900390625,0.762939453125,0.8392333984375
9.8299999,7.970297336578369,-5.571307182312012,0.3878606855869293,-2.532958984375,1.0528564453125,1.7852783203125
9.8499999,7.975085735321045,-5.616796970367432,0.38546648621559143,-1.8768310546875,0.8087158203125,1.0986328125
9.8699999,7.960720539093018,-5.655104637145996,0.363918662071228,-1.495361328125,-0.4730224609375,-0.54931640625
9.889999900000001,7.939172744750977,-5.659893035888672,0.36152446269989014,-1.89208984375,0.213623046875,-0.640869140625
9.9099999,7.934384346008301,-5.652710437774658,0.3758896589279175,-2.7008056640625,1.7242431640625,0.762939453125
9.9299999,7.91283655166626,-5.6455278396606445,0.37828385829925537,-3.265380859375,1.15966796875,0.640869140625
9.9499999,7.893682956695557,-5.614402770996094,0.3687070608139038,-3.662109375,2.1514892578125,-1.1749267578125
9.969999900000001,7.8745293617248535,-5.600037574768066,0.33518823981285095,-3.72314453125,5.2947998046875,-3.1585693359375
9.9899999,7.872135162353516,-5.590460777282715,0.2849099934101105,-3.4027099609375,4.486083984375,-2.899169921875
10.0099999,7.898471355438232,-5.544970989227295,0.2513911724090576,-3.692626953125,2.86865234375,-1.5869140625
10.0299999,7.955932140350342,-5.540182590484619,0.23942017555236816,-4.8065185546875,3.47900390625,-0.823974609375
10.049999900000001,8.003816604614258,-5.5114521980285645,0.21787235140800476,-5.9051513671875,6.134033203125,-0.5340576171875
10.069999900000001,8.054094314575195,-5.5114521980285645,0.21547815203666687,-5.828857421875,8.3160400390625,-0.0152587890625
10.0899999,8.073247909545898,-5.535394191741943,0.1867477297782898,-4.5318603515625,8.0718994140625,0.8087158203125
10.1099999,8.085219383239746,-5.556941986083984,0.17956513166427612,-3.7689208984375,8.270263671875,1.6326904296875
10.129999900000001,8.070854187011719,-5.571307182312012,0.17238251864910126,-4.21142578125,10.8184814453125,1.556396484375
10.149999900000001,8.056488990783691,-5.595249176025391,0.2106897532939911,-4.39453125,12.847900390625,1.800537109375
10.1699999,8.037335395812988,-5.585672378540039,0.26096799969673157,-4.669189453125,13.458251953125,2.197265625
10.1899999,7.979874134063721,-5.614402770996094,0.33997663855552673,-5.2642822265625,13.397216796875,1.9378662109375
10.209999900000001,7.943961143493652,-5.600037574768066,0.4141969084739685,-6.0577392578125,11.566162109375,1.3580322265625
10.229999900000001,7.90086555480957,-5.60722017288208,0.49320554733276367,-6.7901611328125,9.9639892578125,1.068115234375
10.2499999,7.908048152923584,-5.621585369110107,0.5650315880775452,-7.9803466796875,9.1705322265625,1.3580322265625
10.2699999,7.929595947265625,-5.60722017288208,0.629675030708313,-10.1165771484375,10.0860595703125,2.6702880859375
10.2899999,7.977479934692383,-5.655104637145996,0.6991068720817566,-12.5274658203125,11.474609375,3.570556640625
10.309999900000001,7.989450931549072,-5.65031623840332,0.7374141216278076,-14.190673828125,13.3819580078125,3.0517578125
10.3299999,7.953537940979004,-5.674258232116699,0.7493851184844971,-14.22119140625,15.1519775390625,1.007080078125
10.3499999,7.876923561096191,-5.688623428344727,0.706289529800415,-12.725830078125,14.923095703125,-1.5411376953125
10.3699999,7.797914981842041,-5.700594425201416,0.6727706789970398,-10.4522705078125,11.505126953125,-2.227783203125
10.389999900000001,7.735665798187256,-5.717353820800781,0.6631938815116882,-8.453369140625,8.4686279296875,-1.28173828125
10.4099999,7.706935405731201,-5.714959621429443,0.6823474764823914,-7.75146484375,8.6517333984375,-0.8392333984375
10.4299999,7.711723804473877,-5.683835029602051,0.7445967197418213,-7.659912109375,10.07080078125,-0.8392333984375
10.4499999,7.716512203216553,-5.638344764709473,0.7972691655158997,-7.14111328125,9.6588134765625,-1.2969970703125
10.469999900000001,7.726089000701904,-5.6191911697387695,0.8355764150619507,-6.072998046875,7.9193115234375,-0.946044921875
10.4899999,7.735665798187256,-5.5976433753967285,0.8571242094039917,-5.096435546875,4.21142578125,0.518798828125
10.5099999,7.771578788757324,-5.585672378540039,0.8786720037460327,-5.3253173828125,2.86865234375,0.4119873046875
10.5299999,7.807491779327393,-5.583278179168701,0.8810662031173706,-5.8746337890625,3.4332275390625,-0.8544921875
10.549999900000001,7.860164165496826,-5.559336185455322,0.8690952062606812,-6.805419921875,2.0904541015625,-0.8544921875
10.569999900000001,7.91283655166626,-5.552153587341309,0.828393816947937,-8.148193359375,-0.2288818359375,-0.5035400390625
10.5899999,7.924807548522949,-5.57370138168335,0.7422025203704834,-9.6435546875,-1.5106201171875,-0.8392333984375
10.6099999,7.965508937835693,-5.57370138168335,0.6320692300796509,-10.9405517578125,-3.35693359375,-1.2664794921875
10.629999900000001,7.970297336578369,-5.609614372253418,0.5123591423034668,-12.7716064453125,-4.6539306640625,-1.8157958984375
10.649999900000001,8.030152320861816,-5.621585369110107,0.3974374830722809,-15.3656005859375,-2.2735595703125,-3.0670166015625
10.6699999,8.056488990783691,-5.6670756340026855,0.26096799969673157,-17.3797607421875,0.30517578125,-3.0670166015625
10.6899999,8.106766700744629,-5.698200225830078,0.1604115068912506,-18.341064453125,-0.1678466796875,-2.3193359375
10.709999900000001,8.1139497756958,-5.74129581451416,0.05746084079146385,-17.852783203125,1.7547607421875,-4.119873046875
10.729999900000001,8.11634349822998,-5.772420406341553,-0.016759412363171577,-15.6707763671875,5.4168701171875,-7.354736328125
10.7499999,8.130708694458008,-5.791574001312256,-0.038307227194309235,-12.481689453125,6.195068359375,-7.6904296875
10.7699999,8.152256965637207,-5.796362400054932,-0.040701430290937424,-9.063720703125,4.3487548828125,-4.8675537109375
10.7899999,8.188169479370117,-5.772420406341553,-0.014365210197865963,-4.852294921875,2.1514892578125,-1.9378662109375
10.809999900000001,8.214506149291992,-5.724536418914795,0.038307227194309235,-0.3662109375,1.2969970703125,-0.9307861328125
10.8299999,8.226476669311523,-5.638344764709473,0.09576806426048279,3.41796875,2.13623046875,-0.6103515625
10.8499999,8.214506149291992,-5.5760955810546875,0.16519992053508759,6.3323974609375,0.2899169921875,0.335693359375
10.8699999,8.183381080627441,-5.499481201171875,0.21787235140800476,8.1329345703125,-3.448486328125,1.8768310546875
10.889999900000001,8.14028549194336,-5.451597213745117,0.2825157940387726,9.521484375,-8.270263671875,2.227783203125
10.9099999,8.101978302001953,-5.389348030090332,0.3232172429561615,10.68115234375,-12.176513671875,-0.091552734375
10.9299999,8.094796180725098,-5.339069843292236,0.40222588181495667,9.82666015625,-13.153076171875,-3.3721923828125
10.9499999,8.13789176940918,-5.272032260894775,0.42377370595932007,7.1868896484375,-13.0157470703125,-5.615234375
10.969999900000001,8.216899871826172,-5.272032260894775,0.44771572947502136,3.90625,-15.8843994140625,-6.40869140625
10.9899999,8.336610794067383,-5.293580055236816,0.40222588181495667,1.434326171875,-20.7061767578125,-5.157470703125
11.0099999,8.44195556640625,-5.353435039520264,0.3232172429561615,-0.6866455078125,-21.6217041015625,-3.448486328125
11.0299999,8.485051155090332,-5.430049419403076,0.19632454216480255,-2.471923828125,-18.1884765625,-3.387451171875
11.049999900000001,8.451532363891602,-5.468356609344482,0.05267243832349777,-2.7923583984375,-13.7176513671875,-5.645751953125
11.069999900000001,8.315062522888184,-5.499481201171875,-0.12449848651885986,-1.0833740234375,-12.20703125,-9.033203125
11.0899999,8.147468566894531,-5.48272180557251,-0.2753331959247589,1.46484375,-13.5345458984375,-11.2762451171875
11.1099999,7.970297336578369,-5.453991413116455,-0.38307225704193115,3.6773681640625,-14.404296875,-13.2293701171875
11.129999900000001,7.833827972412109,-5.396530628204346,-0.4644751250743866,5.5389404296875,-11.6424560546875,-15.533447265625
11.149999900000001,7.7763671875,-5.324704647064209,-0.5027823448181152,7.8582763671875,-10.8184814453125,-16.5863037109375
11.1699999,7.7763671875,-5.233725070953369,-0.5123591423034668,10.467529296875,-11.9781494140625,-15.4571533203125
11.1899999,7.838616371154785,-5.137956619262695,-0.5171475410461426,11.9781494140625,-14.6484375,-12.542724609375
11.209999900000001,7.934384346008301,-5.0014872550964355,-0.48602294921875,12.3748779296875,-16.693115234375,-9.94873046875
11.229999900000001,8.039729118347168,-4.879383087158203,-0.44771572947502136,12.0391845703125,-16.7694091796875,-8.8653564453125
11.2499999,8.142680168151855,-4.747702121734619,-0.40940847992897034,11.474609375,-17.913818359375,-6.7596435546875
11.2699999,8.24084186553955,-4.639962673187256,-0.38067805767059326,10.2691650390625,-19.744873046875,-2.6092529296875
11.2899999,8.303091049194336,-4.5609540939331055,-0.35913026332855225,7.965087890625,-18.096923828125,1.129150390625
11.309999900000001,8.293514251708984,-4.49870491027832,-0.37828385829925537,5.5694580078125,-14.404296875,2.01416015625
11.3299999,8.24084186553955,-4.489128112792969,-0.43335050344467163,4.3487548828125,-11.871337890625,-0.1983642578125
11.3499999,8.166622161865234,-4.508281707763672,-0.5123591423034668,4.6234130859375,-11.23046875,-2.3040771484375
11.3699999,8.145073890686035,-4.584896087646484,-0.6200982332229614,5.43212890625,-9.5367431640625,-3.0670166015625
11.389999900000001,8.197746276855469,-4.692635536193848,-0.7134721279144287,6.6070556640625,-7.14111328125,-2.25830078125
11.4099999,8.293514251708984,-4.821922302246094,-0.8092401623725891,8.4228515625,-8.2855224609375,1.0528564453125
11.4299999,8.4108304977417,-4.922478675842285,-0.8834604024887085,10.80322265625,-10.2386474609375,3.72314453125
11.4499999,8.482656478881836,-5.018246650695801,-0.9552865028381348,13.73291015625,-8.056640625,2.1514892578125
11.469999900000001,8.525752067565918,-5.061342239379883,-1.0103530883789062,16.6473388671875,-4.302978515625,-0.6103515625
11.4899999,8.537723541259766,-5.097255229949951,-1.0534487962722778,19.1497802734375,-3.84521484375,-1.7242431640625
11.5099999,8.518569946289062,-5.099649429321289,-1.0797849893569946,21.148681640625,-6.1798095703125,-1.64794921875
11.5299999,8.487444877624512,-5.092466831207275,-1.0893617868423462,22.2625732421875,-6.65283203125,-1.8463134765625
11.549999900000001,8.427590370178223,-5.070919036865234,-1.0869675874710083,22.7813720703125,-4.1656494140625,-3.387451171875
11.569999900000001,8.365341186523438,-5.03021764755249,-1.0582371950149536,23.01025390625,-0.579833984375,-6.04248046875
11.5899999,8.29830265045166,-4.9799394607543945,-1.0223240852355957,22.796630859375,1.5716552734375,-8.36181640625
11.6099999,8.250418663024902,-4.9152960777282715,-0.9816226959228516,22.247314453125,2.25830078125,-8.7432861328125
11.629999900000001,8.2312650680542,-4.843470096588135,-0.9385270476341248,21.3165283203125,1.8463134765625,-8.2244873046875
11.649999900000001,8.257601737976074,-4.757278919219971,-0.8906430602073669,20.263671875,0.4119873046875,-8.544921875
11.6699999,8.293514251708984,-4.680664539337158,-0.8451532125473022,19.3634033203125,-0.30517578125,-9.2010498046875
11.6899999,8.358158111572266,-4.599261283874512,-0.7948749661445618,18.2037353515625,-3.1890869140625,-8.697509765625
11.709999900000001,8.42040729522705,-4.527435302734375,-0.7445967197418213,16.41845703125,-8.392333984375,-7.26318359375
11.729999900000001,8.492233276367188,-4.458003520965576,-0.7134721279144287,13.519287109375,-11.505126953125,-6.16455078125
11.7499999,8.564059257507324,-4.402936935424805,-0.6751648783683777,9.46044921875,-13.5345458984375,-5.67626953125
11.7699999,8.631096839904785,-4.333505153656006,-0.6416460275650024,5.126953125,-13.97705078125,-4.8980712890625
11.7899999,8.678980827331543,-4.266467571258545,-0.5913678407669067,-1.4190673828125,-11.8865966796875,-5.462646484375
11.809999900000001,8.664615631103516,-4.211400985717773,-0.5746083855628967,-11.7645263671875,-10.3302001953125,-6.8206787109375
11.8299999,8.62391471862793,-4.151545524597168,-0.5841852426528931,-22.0489501953125,-15.19775390625,-7.659912109375
11.8499999,8.554482460021973,-4.144362926483154,-0.6560112833976746,-30.94482421875,-20.172119140625,-8.5906982421875
11.8699999,8.561665534973145,-4.20421838760376,-0.7805097699165344,-38.9556884765625,-20.0653076171875,-6.744384765625
11.889999900000001,8.504204750061035,-4.338293552398682,-0.9744400978088379,-46.7071533203125,-10.4217529296875,-2.44140625
11.9099999,8.446743965148926,-4.551377296447754,-1.2042834758758545,-47.1343994140625,-5.615234375,2.166748046875
11.9299999,8.221688270568848,-4.750096321105957,-1.4532804489135742,-36.8804931640625,-4.058837890625,2.838134765625
11.9499999,7.931990146636963,-4.90571928024292,-1.7070658206939697,-21.514892578125,4.364013671875,-3.3111572265625
11.969999900000001,7.694964408874512,-5.018246650695801,-1.86508309841156,-3.84521484375,10.55908203125,-9.674072265625
11.9899999,7.613561630249023,-5.0876784324646,-1.922544002532959,13.3819580078125,11.41357421875,-9.6282958984375
12.0099999,7.759607791900635,-5.118803024291992,-1.843535304069519,28.0914306640625,8.0718994140625,-2.7313232421875
12.0299999,8.051700592041016,-5.145139217376709,-1.5969325304031372,37.3992919921875,3.84521484375,4.913330078125
12.049999900000001,8.38688850402832,-5.035006046295166,-1.3120225667953491,42.083740234375,6.927490234375,6.622314453125
12.069999900000001,8.674192428588867,-4.924872875213623,-0.9074024558067322,43.3349609375,15.655517578125,5.8746337890625
12.0899999,8.81784439086914,-4.817133903503418,-0.5650315880775452,41.0308837890625,23.101806640625,9.1400146484375
12.1099999,8.827422142028809,-4.752490520477295,-0.21787235140800476,36.3006591796875,21.0113525390625,15.350341796875
12.129999900000001,8.724471092224121,-4.730942726135254,0.08379705995321274,31.6009521484375,15.5029296875,19.1802978515625
12.149999900000001,8.554482460021973,-4.757278919219971,0.36152446269989014,26.8402099609375,18.06640625,17.3187255859375
12.1699999,8.382100105285645,-4.742913722991943,0.5985504388809204,21.1334228515625,21.9879150390625,13.4429931640625
12.1899999,8.276755332946777,-4.838681697845459,0.811634361743927,15.533447265625,20.2484130859375,11.0931396484375
12.209999900000001,8.214506149291992,-4.948814868927002,0.9409212470054626,11.5203857421875,14.0380859375,12.14599609375
12.229999900000001,8.200140953063965,-5.130774021148682,0.9744400978088379,8.4075927734375,6.3323974609375,15.777587890625
12.2499999,8.192957878112793,-5.506663799285889,0.7852981686592102,18.12744140625,-4.4097900390625,19.012451171875
12.2699999,8.212111473083496,-5.674258232116699,0.706289529800415,38.0401611328125,-3.997802734375,16.29638671875
12.289999900000002,8.209717750549316,-5.889736175537109,0.6129156351089478,39.7186279296875,9.0484619140625,12.725830078125
12.309999900000001,8.219294548034668,-5.834669589996338,0.7637503147125244,28.961181640625,19.04296875,10.7269287109375
12.3299999,8.178592681884766,-5.655104637145996,1.0414776802062988,17.15087890625,18.61572265625,11.23046875
12.3499999,8.075642585754395,-5.458779811859131,1.316810965538025,6.744384765625,12.3748779296875,11.627197265625
12.3699999,7.922413349151611,-5.3127336502075195,1.4891934394836426,-0.5340576171875,6.5155029296875,10.3759765625
12.389999900000001,7.766790390014648,-5.25527286529541,1.5466543436050415,-5.5694580078125,1.9073486328125,6.7138671875
12.4099999,7.659051418304443,-5.298368453979492,1.4987702369689941,-9.21630859375,-1.1444091796875,3.0364990234375
12.4299999,7.637503623962402,-5.420472621917725,1.381454348564148,-10.7879638671875,-2.3956298828125,3.0975341796875
12.4499999,7.69735860824585,-5.588066577911377,1.2258312702178955,-10.3759765625,-3.7078857421875,5.8746337890625
12.469999900000001,7.797914981842041,-5.760449409484863,1.05105459690094,-8.5296630859375,-3.9215087890625,7.781982421875
12.4899999,7.886500358581543,-5.892130374908447,0.8786720037460327,-5.43212890625,-2.105712890625,7.4615478515625
12.5099999,7.931990146636963,-5.963956356048584,0.727837324142456,-1.0833740234375,-0.0457763671875,5.584716796875
12.5299999,7.924807548522949,-5.985504150390625,0.6033388376235962,4.1046142578125,0.42724609375,3.6163330078125
12.549999900000001,7.8960771560668945,-5.975927352905273,0.5219359993934631,9.33837890625,-0.3509521484375,2.2125244140625
12.569999900000001,7.876923561096191,-5.95677375793457,0.4836287498474121,13.9312744140625,-0.3204345703125,0.9307861328125
12.5899999,7.879317760467529,-5.935225963592529,0.49559974670410156,17.1661376953125,0.457763671875,0.396728515625
12.6099999,7.898471355438232,-5.906495571136475,0.5506663918495178,18.798828125,0.4425048828125,1.007080078125
12.629999900000001,7.929595947265625,-5.863399982452393,0.6440402865409851,18.6767578125,0.1068115234375,0.640869140625
12.649999900000001,7.94635534286499,-5.8203043937683105,0.7565677165985107,17.364501953125,2.5177001953125,-2.2430419921875
12.6699999,7.9631147384643555,-5.781997203826904,0.8786720037460327,16.1285400390625,5.7373046875,-5.9967041015625
12.6899999,7.972691535949707,-5.772420406341553,0.9888052940368652,15.350341796875,7.2021484375,-9.4757080078125
12.709999900000001,8.015787124633789,-5.796362400054932,1.0965443849563599,14.862060546875,6.3934326171875,-11.322021484375
12.729999900000001,8.08043098449707,-5.822698593139648,1.173158884048462,13.824462890625,8.9263916015625,-12.51220703125
12.7499999,8.147468566894531,-5.834669589996338,1.2186486721038818,12.4359130859375,13.2598876953125,-13.946533203125
12.7699999,8.17380428314209,-5.791574001312256,1.2282254695892334,10.986328125,13.3056640625,-15.1519775390625
12.789999900000002,8.13789176940918,-5.7125654220581055,1.216254472732544,9.9334716796875,7.965087890625,-16.3726806640625
12.809999900000001,8.027758598327637,-5.5760955810546875,1.1899182796478271,9.674072265625,-0.6256103515625,-16.510009765625
12.8299999,7.893682956695557,-5.449203014373779,1.2210428714752197,11.16943359375,-10.955810546875,-15.5181884765625
12.8499999,7.819462776184082,-5.336675643920898,1.280897855758667,13.0462646484375,-20.2178955078125,-11.6424560546875
12.8699999,7.936778545379639,-5.104437828063965,1.6543933153152466,10.162353515625,-18.98193359375,-5.92041015625
12.889999900000001,8.068459510803223,-4.831499099731445,1.9249382019042969,-10.040283203125,8.1024169921875,-2.7008056640625
12.9099999,8.109161376953125,-4.685452938079834,2.118868589401245,-32.1044921875,14.251708984375,0.7781982421875
12.9299999,8.058882713317871,-4.513070106506348,2.0925323963165283,-36.62109375,-29.84619140625,7.598876953125
12.9499999,7.692570209503174,-4.8602294921875,1.2761094570159912,-24.23095703125,-40.95458984375,6.5155029296875
12.969999900000001,7.666234016418457,-5.118803024291992,0.7876923680305481,-16.7694091796875,-23.4222412109375,0.457763671875
12.9899999,7.73087739944458,-5.398924827575684,0.2537853717803955,-7.293701171875,-12.3443603515625,-4.8828125
13.0099999,7.805097579956055,-5.66228723526001,-0.28730419278144836,2.8076171875,-6.4697265625,-9.307861328125
13.0299999,7.931990146636963,-5.8873419761657715,-0.7661445140838623,13.5498046875,-5.5999755859375,-11.6424560546875
13.049999900000001,8.039729118347168,-6.098031520843506,-1.2617442607879639,25.5126953125,-9.002685546875,-9.4146728515625
13.069999900000001,8.257601737976074,-6.19379997253418,-1.5490485429763794,53.802490234375,-14.3890380859375,-6.195068359375
13.0899999,8.513781547546387,-6.165069580078125,-1.5682021379470825,80.474853515625,-16.387939453125,-5.6610107421875
13.1099999,8.825027465820312,-5.913678169250488,-1.278503656387329,79.7576904296875,-4.8370361328125,-3.4027099609375
13.129999900000001,9.035717010498047,-5.497087001800537,-0.629675030708313,63.2781982421875,8.4686279296875,0.823974609375
13.149999900000001,9.169792175292969,-4.896142482757568,0.2082955539226532,43.88427734375,12.2833251953125,5.126953125
13.1699999,9.126696586608887,-4.235342979431152,1.2737152576446533,14.984130859375,16.693115234375,6.0272216796875
13.1899999,8.899248123168945,-3.665522813796997,2.049436569213867,-29.9530029296875,32.867431640625,2.86865234375
13.209999900000001,8.494627952575684,-3.3686418533325195,2.6240451335906982,-57.9986572265625,20.843505859375,2.3040771484375
13.229999900000001,8.070854187011719,-3.359065055847168,2.734178304672241,-65.887451171875,-18.951416015625,5.9356689453125
13.2499999,7.654263019561768,-3.670311212539673,2.3726539611816406,-64.75830078125,-37.2467041015625,6.4239501953125
13.2699999,7.489062786102295,-4.173093795776367,1.8148049116134644,-58.7615966796875,-22.186279296875,1.3885498046875
13.289999900000002,7.513004779815674,-4.714183330535889,1.137245774269104,-47.7294921875,-1.678466796875,-4.1351318359375
13.309999900000001,7.644686222076416,-5.276820659637451,0.40940847992897034,-32.0587158203125,7.781982421875,-5.9051513671875
13.3299999,7.781155586242676,-5.758055210113525,-0.27054479718208313,-16.4794921875,8.148193359375,-6.2713623046875
13.3499999,7.893682956695557,-6.160281181335449,-0.8762778043746948,0.579833984375,-0.7476806640625,-5.4473876953125
13.3699999,7.970297336578369,-6.481103897094727,-1.381454348564148,18.707275390625,-11.1083984375,-3.3416748046875
13.389999900000001,8.130708694458008,-6.605602264404297,-1.6879122257232666,49.560546875,-14.923095703125,-2.5634765625
13.4099999,8.322244644165039,-6.57926607131958,-1.7046716213226318,82.183837890625,-13.0767822265625,-3.7384033203125
13.4299999,8.559270858764648,-6.301538944244385,-1.460463047027588,89.53857421875,-6.5460205078125,-1.40380859375
13.4499999,8.762778282165527,-5.815515995025635,-0.8786720037460327,78.369140625,4.4097900390625,-0.396728515625
13.469999900000001,8.846575736999512,-5.216965675354004,-0.13168109953403473,61.8133544921875,14.6026611328125,-2.349853515625
13.4899999,8.793902397155762,-4.663905143737793,0.5841852426528931,45.22705078125,20.4315185546875,-4.2572021484375
13.5099999,8.611943244934082,-4.223371982574463,1.1683704853057861,28.6407470703125,21.1944580078125,-5.0048828125
13.5299999,8.35336971282959,-3.955221176147461,1.5538369417190552,13.4124755859375,18.00537109375,-5.1727294921875
13.549999900000001,8.106766700744629,-3.8498764038085938,1.7573440074920654,0.48828125,11.5814208984375,-5.0506591796875
13.569999900000001,7.934384346008301,-3.8714241981506348,1.821987509727478,-9.857177734375,8.9874267578125,-5.18798828125
13.5899999,7.886500358581543,-3.9815573692321777,1.8100165128707886,-16.6473388671875,8.8653564453125,-3.631591796875
13.6099999,7.927201747894287,-4.163516521453857,1.7310078144073486,-20.233154296875,8.60595703125,0.213623046875
13.629999900000001,8.034940719604492,-4.367023944854736,1.623268723487854,-21.759033203125,7.781982421875,4.5013427734375
13.649999900000001,8.130708694458008,-4.5825018882751465,1.482010841369629,-20.477294921875,4.9591064453125,8.056640625
13.6699999,8.192957878112793,-4.776432514190674,1.3335703611373901,-16.937255859375,-0.9002685546875,11.6119384765625
13.6899999,8.212111473083496,-4.946420669555664,1.1971008777618408,-12.4969482421875,-6.866455078125,15.1824951171875
13.709999900000001,8.197746276855469,-5.099649429321289,1.0821791887283325,-7.99560546875,-11.260986328125,17.7459716796875
13.729999900000001,8.169015884399414,-5.243301868438721,0.9959878921508789,-3.1280517578125,-11.749267578125,18.157958984375
13.7499999,8.145073890686035,-5.372588634490967,0.9433154463768005,1.2054443359375,-8.6822509765625,16.6015625
13.7699999,8.13789176940918,-5.501875400543213,0.9097966551780701,3.9215087890625,-7.781982421875,15.68603515625
13.789999900000002,8.133103370666504,-5.6191911697387695,0.8858546018600464,5.6915283203125,-8.1634521484375,15.6402587890625
13.809999900000001,8.123526573181152,-5.731719017028809,0.8547300100326538,6.7291259765625,-8.72802734375,14.0533447265625
13.8299999,8.092401504516602,-5.827486991882324,0.8188169598579407,6.77490234375,-9.7503662109375,10.711669921875
13.8499999,8.051700592041016,-5.892130374908447,0.7829039692878723,5.157470703125,-10.223388671875,7.4920654296875
13.8699999,8.003816604614258,-5.925649166107178,0.768538773059845,2.197265625,-8.1329345703125,4.852294921875
13.889999900000001,7.9631147384643555,-5.928043365478516,0.7781155705451965,-1.3885498046875,-2.471923828125,1.190185546875
13.9099999,7.94635534286499,-5.92325496673584,0.8044517636299133,-4.6234130859375,3.96728515625,-3.4637451171875
13.9299999,7.953537940979004,-5.925649166107178,0.8331822156906128,-7.354736328125,7.568359375,-7.0953369140625
13.9499999,7.994239330291748,-5.9519853591918945,0.849941611289978,-9.4146728515625,8.1329345703125,-8.148193359375
13.969999900000001,8.061277389526367,-5.990292549133301,0.8547300100326538,-10.6658935546875,7.171630859375,-7.6446533203125
13.9899999,8.145073890686035,-6.0190229415893555,0.8619126081466675,-11.6424560546875,6.195068359375,-7.293701171875
14.0099999,8.2312650680542,-6.0190229415893555,0.8786720037460327,-12.7716064453125,6.40869140625,-7.4920654296875
14.0299999,8.307879447937012,-5.975927352905273,0.9097966551780701,-14.1754150390625,7.5836181640625,-8.0413818359375
14.049999900000001,8.360552787780762,-5.9088897705078125,0.9457096457481384,-15.3350830078125,8.1939697265625,-8.8653564453125
14.069999900000001,8.370129585266113,-5.832275390625,0.9648633003234863,-16.082763671875,8.392333984375,-8.575439453125
14.0899999,8.310274124145508,-5.7556610107421875,0.9528923034667969,-15.960693359375,7.1563720703125,-6.7291259765625
14.1099999,8.183381080627441,-5.671864032745361,0.9074024558067322,-15.0909423828125,4.9285888671875,-5.5694580078125
14.129999900000001,7.999027729034424,-5.571307182312012,0.8355764150619507,-13.9312744140625,3.8604736328125,-6.9122314453125
14.149999900000001,7.836222171783447,-5.453991413116455,0.751779317855835,-12.8021240234375,4.33349609375,-10.1165771484375
14.1699999,7.757213592529297,-5.355829238891602,0.6871358752250671,-12.176513671875,6.4697265625,-12.2833251953125
14.1899999,7.800309181213379,-5.2911858558654785,0.6344634294509888,-12.26806640625,8.9569091796875,-10.4217529296875
14.209999900000001,7.939172744750977,-5.272032260894775,0.6200982332229614,-13.580322265625,7.7972412109375,-5.2642822265625
14.229999900000001,8.13789176940918,-5.264849662780762,0.6153098344802856,-16.1285400390625,7.3699951171875,-0.54931640625
14.2499999,8.315062522888184,-5.197812080383301,0.6871358752250671,-18.73779296875,7.965087890625,2.044677734375
14.2699999,8.422801971435547,-5.0685248374938965,0.8595184087753296,-29.266357421875,10.772705078125,2.685546875
14.289999900000002,8.429984092712402,-4.790797710418701,1.0534487962722778,-49.1790771484375,19.2108154296875,1.1138916015625
14.309999900000001,8.343792915344238,-4.6471452713012695,1.1659762859344482,-61.2640380859375,19.6075439453125,-0.4119873046875
14.3299999,8.145073890686035,-4.553771495819092,1.0678139925003052,-67.596435546875,16.8609619140625,-5.5999755859375
14.3499999,7.972691535949707,-4.7189717292785645,0.7781155705451965,-61.4013671875,2.593994140625,-5.8441162109375
14.3699999,7.829039573669434,-5.011064052581787,0.3687070608139038,-49.560546875,-5.5694580078125,-4.0130615234375
14.389999900000001,7.802703380584717,-5.343858242034912,-0.002394201699644327,-37.384033203125,-0.2593994140625,-4.180908203125
14.4099999,7.860164165496826,-5.6455278396606445,-0.2753331959247589,-25.5584716796875,7.8887939453125,-4.3487548828125
14.4299999,7.965508937835693,-5.870582580566406,-0.4620809257030487,-13.8092041015625,11.505126953125,-2.4871826171875
14.4499999,8.066065788269043,-5.95677375793457,-0.545877993106842,-3.3416748046875,10.19287109375,0.457763671875
14.469999900000001,8.133103370666504,-5.932831764221191,-0.5291185975074768,5.18798828125,7.476806640625,2.655029296875
14.4899999,8.159439086914062,-5.7341132164001465,-0.4141969084739685,10.0860595703125,5.2642822265625,2.99072265625
14.5099999,8.188169479370117,-5.453991413116455,-0.18914192914962769,10.8642578125,5.7830810546875,0.6561279296875
14.5299999,8.183381080627441,-5.128379821777344,0.06464344263076782,8.0108642578125,10.8184814453125,-2.2735595703125
14.549999900000001,8.22887134552002,-4.881777286529541,0.35913026332855225,1.953125,11.1541748046875,-2.62451171875
14.569999900000001,8.245630264282227,-4.687847137451172,0.5841852426528931,-5.4779052734375,12.3138427734375,-2.105712890625
14.5899999,8.276755332946777,-4.630385875701904,0.7709329724311829,-13.5955810546875,14.6484375,-1.7852783203125
14.6099999,8.250418663024902,-4.620809078216553,0.8451532125473022,-20.5230712890625,13.458251953125,-0.762939453125
14.629999900000001,8.22887134552002,-4.649539470672607,0.8690952062606812,-26.0772705078125,9.46044921875,-0.4730224609375
14.649999900000001,8.161833763122559,-4.7189717292785645,0.828393816947937,-30.548095703125,7.4005126953125,-1.617431640625
14.6699999,8.130708694458008,-4.771644115447998,0.7374141216278076,-33.5693359375,7.8582763671875,-3.021240234375
14.6899999,8.118738174438477,-4.881777286529541,0.6344634294509888,-34.72900390625,8.60595703125,-2.6092529296875
14.709999900000001,8.121131896972656,-4.953603267669678,0.48602294921875,-33.5235595703125,9.7503662109375,-1.5716552734375
14.729999900000001,8.123526573181152,-5.078101634979248,0.33279404044151306,-30.364990234375,10.07080078125,-1.1444091796875
14.7499999,8.106766700744629,-5.1595048904418945,0.19393034279346466,-26.3671875,7.2479248046875,-0.9002685546875
14.7699999,8.08043098449707,-5.245696067810059,0.08619125932455063,-22.7813720703125,3.570556640625,0.091552734375
14.789999900000002,8.068459510803223,-5.319916248321533,0.043095629662275314,-20.477294921875,1.5869140625,1.1444091796875
14.809999900000001,8.056488990783691,-5.322310447692871,0.028730420395731926,-18.98193359375,3.6773681640625,0.5035400390625
14.8299999,8.056488990783691,-5.343858242034912,0.019153613597154617,-16.9219970703125,5.67626953125,-1.007080078125
14.8499999,8.051700592041016,-5.2911858558654785,0,-14.2822265625,1.9378662109375,-1.4801025390625
14.8699999,8.08282470703125,-5.231330871582031,-0.021547814831137657,-12.63427734375,-3.997802734375,-0.5340576171875
14.889999900000001,8.145073890686035,-5.154716491699219,-0.043095629662275314,-12.5579833984375,-4.7607421875,0.9918212890625
14.9099999,8.26239013671875,-5.051765441894531,-0.043095629662275314,-13.00048828125,-1.6326904296875,1.46484375
14.9299999,8.403648376464844,-5.008669853210449,-0.047884032130241394,-12.4969482421875,2.3193359375,1.3275146484375
14.9499999,8.528146743774414,-4.975151062011719,-0.1149216815829277,-10.3607177734375,5.2490234375,1.922607421875
14.969999900000001,8.607154846191406,-5.008669853210449,-0.18914192914962769,-7.568359375,4.3792724609375,3.509521484375
14.9899999,8.638279914855957,-5.056553840637207,-0.3064578175544739,-5.0506591796875,-1.068115234375,5.340576171875
15.0099999,8.621520042419434,-5.106832027435303,-0.3878606855869293,-2.685546875,-6.195068359375,6.16455078125
15.0299999,8.56645393371582,-5.1331682205200195,-0.42856210470199585,-1.739501953125,-5.06591796875,5.2947998046875
15.049999900000001,8.489839553833008,-5.149928092956543,-0.44532153010368347,-1.77001953125,1.373291015625,2.8533935546875
15.069999900000001,8.396465301513672,-5.142745018005371,-0.4381389021873474,-1.9378662109375,6.7596435546875,-1.15966796875
15.0899999,8.312667846679688,-5.128379821777344,-0.40462008118629456,-1.8463134765625,7.8277587890625,-5.31005859375
15.1099999,8.219294548034668,-5.102043628692627,-0.38067805767059326,-1.4495849609375,6.4239501953125,-7.6751708984375
15.129999900000001,8.197746276855469,-5.063736438751221,-0.33279404044151306,-1.190185546875,5.615234375,-9.368896484375
15.149999900000001,8.176198959350586,-5.051765441894531,-0.4189853072166443,-0.3662109375,7.598876953125,-11.6119384765625
15.1699999,8.157045364379883,-5.20978307723999,-0.6224924325942993,12.451171875,5.0506591796875,-12.1002197265625
15.1899999,8.245630264282227,-5.2696380615234375,-0.8212111592292786,34.576416015625,0.579833984375,-12.1002197265625
15.209999900000001,8.303091049194336,-5.382165431976318,-0.9528923034667969,42.724609375,3.3416748046875,-7.6446533203125
15.229999900000001,8.427590370178223,-5.2672438621521,-0.8619126081466675,33.966064453125,11.90185546875,-3.3416748046875
15.2499999,8.51138687133789,-4.999093055725098,-0.5770025849342346,20.7366943359375,15.2740478515625,-0.2288818359375
15.2699999,8.508993148803711,-4.668693542480469,-0.23942017555236816,7.232666015625,16.11328125,1.0833740234375
15.289999900000002,8.422801971435547,-4.371812343597412,0.06224924325942993,-5.5999755859375,16.3116455078125,0.701904296875
15.309999900000001,8.271966934204102,-4.175487995147705,0.2825157940387726,-15.7318115234375,12.5732421875,0.6561279296875
15.3299999,8.11634349822998,-4.0964789390563965,0.4141969084739685,-23.2696533203125,6.53076171875,1.1444091796875
15.3499999,8.008605003356934,-4.134786128997803,0.4836287498474121,-28.25927734375,3.9825439453125,1.2359619140625
15.3699999,7.965508937835693,-4.280832767486572,0.4836287498474121,-30.364990234375,6.7596435546875,1.5106201171875
15.389999900000001,7.975085735321045,-4.489128112792969,0.45250412821769714,-29.96826171875,8.60595703125,3.936767578125
15.4099999,8.018181800842285,-4.72376012802124,0.37828385829925537,-26.9927978515625,5.3558349609375,7.4310302734375
15.4299999,8.04930591583252,-4.93923807144165,0.2801215946674347,-21.881103515625,1.2054443359375,9.1400146484375
15.4499999,8.063671112060547,-5.082890033721924,0.17956513166427612,-15.655517578125,-0.213623046875,8.758544921875
15.469999900000001,8.085219383239746,-5.178658485412598,0.06464344263076782,-7.8582763671875,-0.274658203125,7.5531005859375
15.4899999,8.106766700744629,-5.240907669067383,-0.021547814831137657,0.1678466796875,-2.716064453125,7.3394775390625
15.5099999,8.17141056060791,-5.298368453979492,-0.08140286058187485,6.011962890625,-3.997802734375,8.819580078125
15.5299999,8.269572257995605,-5.327098846435547,-0.0454898327589035,7.4462890625,-2.8228759765625,11.2152099609375
15.549999900000001,8.358158111572266,-5.331887245178223,0.05506663769483566,0.5645751953125,-1.3885498046875,14.434814453125
15.569999900000001,8.360552787780762,-5.324704647064209,0.17477671802043915,-10.589599609375,0.0152587890625,16.41845703125
15.5899999,8.283937454223633,-5.317522048950195,0.2561795711517334,-18.951416015625,-1.8157958984375,14.83154296875
15.6099999,8.092401504516602,-5.305551052093506,0.22026655077934265,-23.13232421875,-4.5166015625,9.9639892578125
15.629999900000001,7.8745293617248535,-5.353435039520264,0.06703764945268631,-26.3824462890625,-7.0953369140625,5.18798828125
15.649999900000001,7.73087739944458,-5.403713226318359,-0.14365209639072418,-25.8636474609375,-16.357421875,3.814697265625
15.6699999,7.714118003845215,-5.468356609344482,-0.33997663855552673,-22.247314453125,-19.3328857421875,2.9754638671875
15.6899999,7.829039573669434,-5.535394191741943,-0.5027823448181152,-18.524169921875,-13.0615234375,2.5634765625
15.709999900000001,8.010998725891113,-5.5976433753967285,-0.6009446382522583,-14.9078369140625,-4.913330078125,3.509521484375
15.729999900000001,8.188169479370117,-5.595249176025391,-0.6871358752250671,-10.1776123046875,-1.4495849609375,4.4403076171875
15.7499999,8.291120529174805,-5.566518783569336,-0.7637503147125244,-4.2877197265625,-2.8228759765625,4.5928955078125
15.7699999,8.317456245422363,-5.513846397399902,-0.8164227604866028,1.129150390625,-5.6304931640625,6.3934326171875
15.789999900000002,8.310274124145508,-5.410895824432373,-0.8020575642585754,4.5318603515625,-7.1563720703125,10.1318359375
15.809999900000001,8.26478385925293,-5.355829238891602,-0.7350199222564697,6.0577392578125,-4.913330078125,12.847900390625
15.8299999,8.195352554321289,-5.305551052093506,-0.6320692300796509,7.080078125,-1.0833740234375,13.3209228515625
15.8499999,8.094796180725098,-5.329493045806885,-0.5291185975074768,8.4991455078125,-1.556396484375,13.5498046875
15.869999900000002,7.994239330291748,-5.389348030090332,-0.45489832758903503,8.9111328125,-4.241943359375,14.5416259765625
15.889999900000001,7.893682956695557,-5.449203014373779,-0.3902548849582672,7.9498291015625,-6.3323974609375,14.923095703125
15.9099999,7.836222171783447,-5.5329999923706055,-0.3016694188117981,6.40869140625,-7.9498291015625,14.8468017578125
15.9299999,7.7643961906433105,-5.571307182312012,-0.2537853717803955,4.791259765625,-6.7291259765625,13.73291015625
15.9499999,7.726089000701904,-5.635950565338135,-0.18914192914962769,3.7078857421875,-4.486083984375,10.8795166015625
15.969999900000001,7.690176010131836,-5.693411827087402,-0.1843535304069519,3.997802734375,-3.936767578125,8.2244873046875
15.9899999,7.673416614532471,-5.767632007598877,-0.21787235140800476,5.3558349609375,-3.265380859375,6.805419921875
16.0099999,7.692570209503174,-5.856217384338379,-0.2585737705230713,7.904052734375,-2.5177001953125,6.2713623046875
16.0299999,7.740454196929932,-5.91128396987915,-0.31364041566848755,11.5814208984375,-3.5552978515625,6.500244140625
16.0499999,7.773972988128662,-5.992686748504639,-0.35913026332855225,15.56396484375,-4.0435791015625,6.9427490234375
16.0699999,7.817068576812744,-6.030993938446045,-0.3998316824436188,19.1497802734375,-5.1727294921875,7.904052734375
16.089999900000002,7.829039573669434,-6.0836663246154785,-0.4429273009300232,21.8658447265625,-6.256103515625,8.8348388671875
16.109999900000002,7.826645374298096,-6.119579315185547,-0.48602294921875,23.74267578125,-4.6844482421875,9.0484619140625
16.1299999,7.783549785614014,-6.1315507888793945,-0.5602431893348694,24.810791015625,-3.8299560546875,8.97216796875
16.1499999,7.73087739944458,-6.129156112670898,-0.5985504388809204,24.658203125,-5.9967041015625,9.063720703125
16.1699999,7.654263019561768,-6.086060523986816,-0.6512228846549988,23.0712890625,-7.781982421875,8.087158203125
16.1899999,7.594407558441162,-6.00226354598999,-0.6703764796257019,20.538330078125,-6.103515625,5.8441162109375
16.2099999,7.568071365356445,-5.935225963592529,-0.667982280254364,17.6544189453125,-3.0670166015625,3.3721923828125
16.2299999,7.608773231506348,-5.841852188110352,-0.6631938815116882,15.380859375,-0.244140625,1.8157958984375
16.249999900000002,7.661445617675781,-5.832275390625,-0.6440402865409851,14.1448974609375,0.9307861328125,2.3040771484375
16.269999900000002,7.740454196929932,-5.832275390625,-0.6105214357376099,13.1683349609375,0.4119873046875,4.1351318359375
16.2899999,7.7763671875,-5.8657941818237305,-0.5913678407669067,13.427734375,0.30517578125,5.0506591796875
16.3099999,7.778761386871338,-5.9304375648498535,-0.5506663918495178,15.56396484375,0.0762939453125,4.2724609375
16.3299999,7.752425193786621,-5.9974751472473145,-0.5506663918495178,19.47021484375,-2.166748046875,3.143310546875
16.3499999,7.735665798187256,-6.086060523986816,-0.5554547905921936,23.4222412109375,-5.615234375,3.7689208984375
16.3699999,7.750030994415283,-6.172252178192139,-0.5482721924781799,25.7568359375,-8.4228515625,6.4239501953125
16.3899999,7.783549785614014,-6.258443355560303,-0.5171475410461426,26.06201171875,-9.7503662109375,8.880615234375
16.4099999,7.814674377441406,-6.325480937957764,-0.45010992884635925,24.322509765625,-8.3160400390625,10.1318359375
16.429999900000002,7.807491779327393,-6.392518520355225,-0.3758896589279175,21.270751953125,-5.2337646484375,11.3372802734375
16.4499999,7.740454196929932,-6.45476770401001,-0.3208230137825012,17.9901123046875,-6.2713623046875,12.0697021484375
16.4699999,7.661445617675781,-6.507440090179443,-0.26815059781074524,13.5498046875,-10.7879638671875,11.993408203125
16.4899999,7.580042362213135,-6.5481414794921875,-0.22026655077934265,7.6751708984375,-8.056640625,11.260986328125
16.5099999,7.491456985473633,-6.555324077606201,-0.1628057211637497,2.50244140625,0.9613037109375,10.894775390625
16.5299999,7.3693528175354,-6.574477672576904,-0.11971008777618408,-0.0762939453125,7.6446533203125,9.5367431640625
16.5499999,7.079654216766357,-6.493074893951416,-0.09576806426048279,1.9073486328125,6.7596435546875,0.9307861328125
16.5699999,7.038952827453613,-6.4595561027526855,-0.0454898327589035,5.37109375,4.852294921875,-1.2054443359375
16.589999900000002,7.144298076629639,-6.447585105895996,0.028730420395731926,9.33837890625,2.9449462890625,1.007080078125
16.609999900000002,7.3238630294799805,-6.50025749206543,0.15562310814857483,13.0462646484375,2.50244140625,6.7901611328125
16.6299999,7.4770917892456055,-6.562506675720215,0.2801215946674347,15.625,0.0457763671875,13.7786865234375
16.6499999,7.513004779815674,-6.624756336212158,0.43335050344467163,17.822265625,-1.8768310546875,16.9677734375
16.6699999,7.419631004333496,-6.670246124267578,0.5937620401382446,19.59228515625,1.6632080078125,13.580322265625
16.6899999,7.2113356590271,-6.689399719238281,0.7757213711738586,21.1334228515625,7.1563720703125,8.1329345703125
16.7099999,6.957550048828125,-6.71334171295166,0.9145850539207458,22.64404296875,6.40869140625,4.2572021484375
16.7299999,6.730101108551025,-6.744466304779053,1.05105459690094,23.9105224609375,0.885009765625,0.7476806640625
16.749999900000002,6.605602264404297,-6.768408298492432,1.1468225717544556,24.7039794921875,-4.791259765625,-1.556396484375
16.769999900000002,6.581660270690918,-6.7923502922058105,1.2617442607879639,24.35302734375,-6.65283203125,-1.617431640625
16.7899999,6.672640323638916,-6.797138690948486,1.3646949529647827,23.101806640625,-8.4991455078125,-0.3662109375
16.8099999,6.785167694091797,-6.801927089691162,1.4532804489135742,22.2930908203125,-11.16943359375,0.5950927734375
16.8299999,6.878541469573975,-6.787561893463135,1.4987702369689941,22.3236083984375,-14.95361328125,1.0986328125
16.8499999,6.9455790519714355,-6.775590896606445,1.5179238319396973,22.308349609375,-17.547607421875,1.28173828125
16.8699999,6.933608055114746,-6.756437301635742,1.4891934394836426,22.003173828125,-18.6767578125,1.40380859375
16.8899999,6.900089263916016,-6.746860504150391,1.455674648284912,22.5372314453125,-18.5089111328125,0.4730224609375
16.9099999,6.821080684661865,-6.730101108551025,1.3982137441635132,24.200439453125,-18.5546875,-2.197265625
16.929999900000002,6.742072105407715,-6.718130111694336,1.3455413579940796,26.7181396484375,-18.73779296875,-5.4168701171875
16.9499999,6.696582317352295,-6.689399719238281,1.2976573705673218,30.0445556640625,-19.6380615234375,-7.5531005859375
16.9699999,6.658275127410889,-6.7277069091796875,1.1851298809051514,34.85107421875,-20.477294921875,-7.9345703125
16.9899999,6.689399719238281,-6.777985095977783,1.0845733880996704,47.8515625,-24.10888671875,-6.3629150390625
17.0099999,6.75883150100708,-6.801927089691162,1.0271124839782715,66.2689208984375,-29.3426513671875,-4.1046142578125
17.0299999,6.909666061401367,-6.744466304779053,1.091755986213684,71.5789794921875,-24.505615234375,-3.6468505859375
17.0499999,7.105990409851074,-6.5481414794921875,1.3215993642807007,68.450927734375,-19.3634033203125,-3.3416748046875
17.0699999,7.309497833251953,-6.2847795486450195,1.6496049165725708,64.8345947265625,-18.157958984375,-0.8544921875
17.089999900000002,7.450755596160889,-6.038176536560059,1.9608511924743652,60.7757568359375,-18.829345703125,2.716064453125
17.109999900000002,7.510610580444336,-5.849034786224365,2.190694570541382,56.3507080078125,-24.59716796875,6.8359375
17.1299999,7.486668586730957,-5.738901615142822,2.31758713722229,53.192138671875,-33.294677734375,10.223388671875
17.1499999,7.407660007476807,-5.705382823944092,2.3535003662109375,49.835205078125,-38.1622314453125,11.8408203125
17.1699999,7.309497833251953,-5.736507415771484,2.3271639347076416,46.7529296875,-38.330078125,12.237548828125
17.1899999,7.201758861541748,-5.822698593139648,2.2361843585968018,44.73876953125,-35.003662109375,10.7421875
17.2099999,7.105990409851074,-5.9519853591918945,2.1332337856292725,43.2891845703125,-38.9862060546875,8.7127685546875
17.2299999,7.005434036254883,-6.076483726501465,2.0374655723571777,39.8406982421875,-39.8712158203125,5.035400390625
17.249999900000002,6.9240312576293945,-6.196194171905518,1.9632453918457031,36.43798828125,-36.5753173828125,-0.3204345703125
17.269999900000002,6.92881965637207,-6.303933143615723,1.9536685943603516,35.94970703125,-34.97314453125,-5.2490234375
17.2899999,7.050923824310303,-6.435614109039307,1.9967641830444336,32.745361328125,-30.0445556640625,-7.26318359375
17.3099999,7.259219646453857,-6.6391215324401855,2.0470423698425293,25.604248046875,-25.5584716796875,-1.46484375
17.3299999,7.513004779815674,-6.864176273345947,2.099714994430542,17.2576904296875,-25.2685546875,8.2244873046875
17.3499999,7.668628215789795,-7.127538681030273,2.0685901641845703,11.29150390625,-25.4364013671875,13.3056640625
17.3699999,7.661445617675781,-7.354987621307373,1.9345149993896484,8.5906982421875,-24.749755859375,12.1917724609375
17.3899999,7.515398979187012,-7.489062786102295,1.721431016921997,10.5743408203125,-24.749755859375,7.26318359375
17.409999900000003,7.271190643310547,-7.568071365356445,1.4532804489135742,16.0369873046875,-28.533935546875,0.5645751953125
17.429999900000002,7.06528902053833,-7.553706169128418,1.2282254695892334,20.0958251953125,-31.31103515625,-6.8511962890625
17.4499999,6.967126846313477,-7.508216381072998,1.0438719987869263,22.186279296875,-31.5399169921875,-12.5579833984375
17.4699999,7.048529624938965,-7.400477409362793,0.950498104095459,22.9644775390625,-31.8145751953125,-14.373779296875
17.4899999,7.230489253997803,-7.295132637023926,0.9050082564353943,22.369384765625,-33.2489013671875,-13.5955810546875
17.5099999,7.469909191131592,-7.151480674743652,0.8834604024887085,20.5841064453125,-34.0728759765625,-12.847900390625
17.5299999,7.659051418304443,-6.998251438140869,0.8786720037460327,17.120361328125,-32.8216552734375,-13.7176513671875
17.5499999,7.795520782470703,-6.813898086547852,0.8978256583213806,11.71875,-28.6865234375,-16.448974609375
17.5699999,7.8098859786987305,-6.624756336212158,0.871489405632019,6.1798095703125,-24.658203125,-19.1192626953125
17.589999900000002,7.7763671875,-6.435614109039307,0.8355764150619507,1.6937255859375,-23.5595703125,-19.7601318359375
17.609999900000002,7.671022415161133,-6.270414352416992,0.7469909191131592,-1.4190673828125,-24.139404296875,-19.1497802734375
17.6299999,7.580042362213135,-6.107608318328857,0.6488286852836609,-4.180908203125,-21.66748046875,-19.683837890625
17.6499999,7.508216381072998,-5.9735331535339355,0.5434837937355042,-6.7596435546875,-17.1661376953125,-21.17919921875
17.6699999,7.469909191131592,-5.861005783081055,0.42616790533065796,-8.2244873046875,-12.5579833984375,-21.97265625
17.6899999,7.47230339050293,-5.738901615142822,0.2753331959247589,-8.1939697265625,-12.5579833984375,-20.9197998046875
17.7099999,7.46033239364624,-5.6910176277160645,0.1149216815829277,-8.2550048828125,-15.2740478515625,-19.317626953125
17.7299999,7.524975776672363,-5.57370138168335,-0.05746084079146385,-9.58251953125,-13.6260986328125,-19.3634033203125
17.749999900000002,7.613561630249023,-5.501875400543213,-0.1843535304069519,-11.1846923828125,-7.50732421875,-19.775390625
17.769999900000002,7.757213592529297,-5.394136428833008,-0.27054479718208313,-12.5579833984375,-2.716064453125,-18.00537109375
17.7899999,7.9176249504089355,-5.317522048950195,-0.31603461503982544,-14.46533203125,-1.9683837890625,-14.2059326171875
17.8099999,8.030152320861816,-5.281609058380127,-0.31364041566848755,-17.242431640625,-1.3275146484375,-10.5438232421875
17.8299999,8.106766700744629,-5.245696067810059,-0.2753331959247589,-20.538330078125,2.3040771484375,-8.697509765625
17.8499999,8.101978302001953,-5.224148273468018,-0.22026655077934265,-23.92578125,8.3465576171875,-8.514404296875
17.8699999,8.034940719604492,-5.197812080383301,-0.17238251864910126,-26.8096923828125,11.7950439453125,-8.453369140625
17.8899999,7.94635534286499,-5.147533416748047,-0.1388636976480484,-29.266357421875,12.02392578125,-8.1939697265625
17.909999900000003,7.893682956695557,-5.109226226806641,-0.10773907601833344,-31.3873291015625,12.725830078125,-8.1634521484375
17.929999900000002,7.910442352294922,-5.066130638122559,-0.05746084079146385,-33.599853515625,17.303466796875,-7.3699951171875
17.9499999,7.9846625328063965,-5.0469770431518555,0.004788403399288654,-36.19384765625,22.7813720703125,-4.7454833984375
17.9699999,8.073247909545898,-5.027823448181152,0.05746084079146385,-38.87939453125,25.054931640625,-0.762939453125
17.9899999,8.147468566894531,-5.0014872550964355,0.10534487664699554,-41.19873046875,24.2919921875,2.0294189453125
18.0099999,8.149862289428711,-5.011064052581787,0.12449848651885986,-42.1295166015625,26.4892578125,1.03759765625
18.0299999,8.125920295715332,-5.023035049438477,0.12449848651885986,-41.6259765625,28.7322998046875,-0.152587890625
18.0499999,8.075642585754395,-5.080495834350586,0.12928688526153564,-41.3818359375,26.7333984375,2.227783203125
18.0699999,7.994239330291748,-5.197812080383301,0.12689268589019775,-42.816162109375,24.1851806640625,5.92041015625
18.089999900000002,7.927201747894287,-5.315127849578857,0.14844051003456116,-45.83740234375,24.4903564453125,7.965087890625
18.109999900000002,7.862558364868164,-5.463568210601807,0.20111294090747833,-49.713134765625,28.564453125,8.9263916015625
18.1299999,7.781155586242676,-5.633556365966797,0.2585737705230713,-53.5888671875,32.5469970703125,9.979248046875
18.1499999,7.7428483963012695,-5.75326681137085,0.3447650372982025,-56.6558837890625,35.0494384765625,10.0555419921875
18.1699999,7.702147006988525,-5.87776517868042,0.38307225704193115,-58.502197265625,35.7666015625,9.521484375
18.1899999,7.738059997558594,-5.937620162963867,0.42856210470199585,-58.807373046875,34.576416015625,10.284423828125
18.2099999,7.824251174926758,-5.985504150390625,0.42377370595932007,-57.9071044921875,31.6314697265625,12.8021240234375
18.2299999,7.960720539093018,-6.033388137817383,0.4357447028160095,-56.94580078125,29.266357421875,15.167236328125
18.249999900000002,8.075642585754395,-6.110002517700195,0.40701428055763245,-56.5643310546875,29.144287109375,15.838623046875
18.269999900000002,8.154650688171387,-6.145915985107422,0.3902548849582672,-56.0760498046875,29.632568359375,13.85498046875
18.2899999,8.159439086914062,-6.169857978820801,0.3232172429561615,-55.0537109375,27.7862548828125,9.857177734375
18.3099999,8.125920295715332,-6.121973514556885,0.26815059781074524,-53.52783203125,24.3377685546875,5.0811767578125
18.3299999,8.08282470703125,-6.021417140960693,0.2082955539226532,-51.7425537109375,20.8282470703125,0.6866455078125
18.3499999,8.058882713317871,-5.906495571136475,0.19393034279346466,-50.262451171875,19.4091796875,-2.5482177734375
18.3699999,8.054094314575195,-5.805939197540283,0.2322375625371933,-49.591064453125,21.514892578125,-4.425048828125
18.3899999,8.030152320861816,-5.74129581451416,0.2777273952960968,-49.2401123046875,23.8037109375,-4.180908203125
18.409999900000003,7.99184513092041,-5.688623428344727,0.3447650372982025,-48.828125,24.3988037109375,-3.0059814453125
18.429999900000002,7.91283655166626,-5.626373767852783,0.363918662071228,-47.66845703125,25.3143310546875,-2.7618408203125
18.4499999,7.826645374298096,-5.5114521980285645,0.3471592366695404,-45.0897216796875,26.9317626953125,-4.2266845703125
18.4699999,7.740454196929932,-5.386953830718994,0.26336219906806946,-40.9393310546875,27.16064453125,-5.9967041015625
18.4899999,7.69735860824585,-5.238513469696045,0.15562310814857483,-35.5987548828125,22.6898193359375,-5.584716796875
18.5099999,7.6997528076171875,-5.166687488555908,0.021547814831137657,-30.5328369140625,13.61083984375,-3.0670166015625
18.5299999,7.7763671875,-5.1116204261779785,-0.08140286058187485,-27.4200439453125,7.8582763671875,0.2593994140625
18.5499999,7.864952564239502,-5.109226226806641,-0.16998831927776337,-26.85546875,8.60595703125,3.631591796875
18.5699999,7.955932140350342,-5.147533416748047,-0.24660277366638184,-27.0538330078125,8.9874267578125,6.1798095703125
18.589999900000002,7.989450931549072,-5.185841083526611,-0.36152446269989014,-27.0538330078125,8.209228515625,7.080078125
18.609999900000002,7.9631147384643555,-5.260061264038086,-0.4908113479614258,-27.2979736328125,8.7890625,6.9732666015625
18.6299999,7.888894557952881,-5.319916248321533,-0.6655880808830261,-27.9388427734375,9.5977783203125,6.805419921875
18.6499999,7.824251174926758,-5.3342814445495605,-0.8259995579719543,-28.533935546875,10.5133056640625,5.5999755859375
18.6699999,7.773972988128662,-5.372588634490967,-0.9648633003234863,-29.266357421875,11.3372802734375,3.082275390625
18.6899999,7.778761386871338,-5.3797712326049805,-1.0606313943862915,-30.0750732421875,14.7247314453125,1.8157958984375
18.7099999,7.826645374298096,-5.408501625061035,-1.1061211824417114,-30.487060546875,16.29638671875,3.173828125
18.7299999,7.8745293617248535,-5.43723201751709,-1.1204863786697388,-30.2734375,15.4876708984375,5.706787109375
18.749999900000002,7.915230751037598,-5.4444146156311035,-1.091755986213684,-29.7088623046875,13.61083984375,7.8125
18.769999900000002,7.924807548522949,-5.420472621917725,-1.0582371950149536,-29.388427734375,15.13671875,7.7362060546875
18.7899999,7.903259754180908,-5.430049419403076,-1.0295066833496094,-29.022216796875,17.2576904296875,6.8511962890625
18.8099999,7.86734676361084,-5.427655220031738,-1.0079588890075684,-27.8167724609375,19.53125,6.103515625
18.8299999,7.833827972412109,-5.489904403686523,-1.039083480834961,-25.3753662109375,19.1802978515625,6.53076171875
18.8499999,7.785943984985352,-5.580883979797363,-1.0654197931289673,-22.705078125,15.9149169921875,7.6446533203125
18.8699999,7.785943984985352,-5.6670756340026855,-1.113303780555725,-20.538330078125,14.6484375,7.9803466796875
18.8899999,7.7883381843566895,-5.75326681137085,-1.1348515748977661,-18.829345703125,16.510009765625,7.8887939453125
18.909999900000003,7.819462776184082,-5.781997203826904,-1.139639973640442,-17.1966552734375,16.9830322265625,8.1329345703125
18.929999900000002,7.8314337730407715,-5.825092792510986,-1.1324573755264282,-15.869140625,13.336181640625,9.246826171875
18.9499999,7.838616371154785,-5.781997203826904,-1.1013327836990356,-15.9454345703125,9.21630859375,9.09423828125
18.9699999,7.812280178070068,-5.7772088050842285,-1.0893617868423462,-17.181396484375,9.3994140625,7.171630859375
18.9899999,7.829039573669434,-5.70777702331543,-1.0319008827209473,-18.5394287109375,10.8795166015625,5.43212890625
19.0099999,7.838616371154785,-5.669469833374023,-1.0127472877502441,-19.5159912109375,11.4898681640625,4.4097900390625
19.0299999,7.884106159210205,-5.631162166595459,-0.9720458984375,-19.47021484375,10.4522705078125,3.7078857421875
19.0499999,7.927201747894287,-5.592854976654053,-0.9457096457481384,-19.22607421875,11.199951171875,2.960205078125
19.0699999,7.994239330291748,-5.592854976654053,-0.9313444495201111,-19.1497802734375,11.688232421875,3.021240234375
19.089999900000002,8.037335395812988,-5.635950565338135,-0.8954314589500427,-19.0277099609375,10.3302001953125,6.0577392578125
19.109999900000002,8.037335395812988,-5.702988624572754,-0.871489405632019,-17.9443359375,10.467529296875,10.55908203125
19.1299999,7.929595947265625,-5.765237808227539,-0.8762778043746948,-15.1214599609375,11.322021484375,11.077880859375
19.1499999,7.805097579956055,-5.8203043937683105,-0.8379706144332886,-12.603759765625,9.9029541015625,6.5155029296875
19.1699999,7.615955829620361,-5.829881191253662,-0.871489405632019,-12.5885009765625,11.7340087890625,0.3662109375
19.1899999,7.556100368499756,-5.846640586853027,-0.8619126081466675,-11.0321044921875,10.8795166015625,-1.03759765625
19.2099999,7.565677165985107,-5.875370979309082,-0.8882488012313843,-8.2244873046875,7.568359375,1.40380859375
19.2299999,7.682993412017822,-5.96874475479126,-0.8906430602073669,-5.8746337890625,5.6915283203125,2.9754638671875
19.249999900000002,7.829039573669434,-5.96874475479126,-0.9097966551780701,-4.3792724609375,5.6610107421875,3.41796875
19.269999900000002,7.994239330291748,-6.042964935302734,-0.8738836050033569,-3.1585693359375,7.3089599609375,3.9520263671875
19.2899999,8.061277389526367,-6.004657745361328,-0.8643068075180054,-2.3956298828125,5.8746337890625,4.730224609375
19.3099999,8.10437297821045,-6.050147533416748,-0.828393816947937,-2.86865234375,2.8228759765625,4.7454833984375
19.3299999,8.030152320861816,-6.009446144104004,-0.8355764150619507,-4.2572021484375,2.2125244140625,4.57763671875
19.3499999,7.9176249504089355,-6.057330131530762,-0.8403648138046265,-5.6915283203125,3.631591796875,3.387451171875
19.3699999,7.7763671875,-5.978321552276611,-0.8643068075180054,-6.4239501953125,3.7384033203125,0.152587890625
19.3899999,7.620744228363037,-5.980715751647949,-0.8738836050033569,-7.32421875,3.204345703125,-3.4637451171875
19.409999900000003,7.524975776672363,-5.92325496673584,-0.871489405632019,-8.514404296875,3.662109375,-5.31005859375
19.429999900000002,7.496245384216309,-5.892130374908447,-0.849941611289978,-9.3994140625,5.950927734375,-5.340576171875
19.4499999,7.529764175415039,-5.932831764221191,-0.8068459630012512,-9.0789794921875,7.9803466796875,-4.0740966796875
19.4699999,7.582436561584473,-5.863399982452393,-0.7924807667732239,-6.8817138671875,6.4697265625,-2.044677734375
19.4899999,7.642292022705078,-5.920860767364502,-0.7493851184844971,-4.2572021484375,2.899169921875,0.396728515625
19.5099999,7.630321025848389,-5.863399982452393,-0.7374141216278076,-2.25830078125,0.640869140625,2.044677734375
19.5299999,7.642292022705078,-5.853823184967041,-0.6847416758537292,-1.0833740234375,-1.3275146484375,2.8533935546875
19.5499999,7.608773231506348,-5.870582580566406,-0.6416460275650024,-0.640869140625,-2.5482177734375,2.7313232421875
19.5699999,7.5968017578125,-5.8203043937683105,-0.6272808313369751,-0.335693359375,-1.678466796875,2.4566650390625
19.589999900000002,7.577648162841797,-5.904101371765137,-0.6153098344802856,-0.0457763671875,-2.0751953125,2.25830078125
19.609999900000002,7.558494567871094,-5.875370979309082,-0.667982280254364,0.0152587890625,-3.3721923828125,1.922607421875
19.6299999,7.589619159698486,-5.920860767364502,-0.6919242739677429,-0.2899169921875,-3.47900390625,0.9613037109375
19.6499999,7.613561630249023,-5.9519853591918945,-0.7469909191131592,-0.732421875,-0.9307861328125,0.3509521484375
19.6699999,7.68538761138916,-5.942408561706543,-0.7948749661445618,-0.9307861328125,2.01416015625,0.1220703125
19.6899999,7.728483200073242,-6.069301128387451,-0.8595184087753296,-0.2288818359375,3.8604736328125,0.1220703125
19.7099999,7.745242595672607,-6.0597243309021,-0.9457096457481384,1.800537109375,2.288818359375,0.0457763671875
19.7299999,7.747636795043945,-6.1985883712768555,-1.0103530883789062,3.662109375,-0.2593994140625,0.8544921875
19.749999900000002,7.735665798187256,-6.191405773162842,-1.0462661981582642,4.9591064453125,0.244140625,1.129150390625
19.769999900000002,7.718906402587891,-6.217741966247559,-1.0558429956436157,5.7525634765625,3.23486328125,-0.335693359375
19.7899999,7.718906402587891,-6.222530364990234,-1.0199298858642578,6.7138671875,4.4403076171875,-2.5482177734375
19.8099999,7.6997528076171875,-6.172252178192139,-0.993593692779541,7.26318359375,3.4027099609375,-3.0059814453125
19.8299999,7.704541206359863,-6.179434776306152,-0.9481038451194763,7.354736328125,4.7454833984375,-3.0364990234375
19.8499999,7.6782050132751465,-6.1052141189575195,-0.9074024558067322,7.415771484375,6.011962890625,-3.997802734375
19.8699999,7.6782050132751465,-6.081272125244141,-0.8595184087753296,8.3465576171875,7.2021484375,-5.859375
19.8899999,7.666234016418457,-5.980715751647949,-0.8259995579719543,10.223388671875,4.9591064453125,-5.9814453125
19.909999900000003,7.692570209503174,-5.959167957305908,-0.751779317855835,11.3983154296875,0.1068115234375,-3.90625
19.929999900000002,7.718906402587891,-5.9088897705078125,-0.6919242739677429,11.04736328125,-1.28173828125,-1.373291015625
19.9499999,7.778761386871338,-5.872976779937744,-0.5985504388809204,9.7198486328125,1.5869140625,-0.3204345703125
19.9699999,7.812280178070068,-5.834669589996338,-0.5291185975074768,8.392333984375,5.2032470703125,0.2288818359375
19.9899999,7.802703380584717,-5.7772088050842285,-0.4884171485900879,7.1868896484375,5.2947998046875,1.5411376953125
20.0099999,7.771578788757324,-5.714959621429443,-0.47884035110473633,6.622314453125,0.5645751953125,3.6468505859375
20.0299999,7.704541206359863,-5.671864032745361,-0.4812345504760742,5.9051513671875,-3.0670166015625,5.4931640625
20.0499999,7.666234016418457,-5.705382823944092,-0.4812345504760742,4.8828125,-4.94384765625,7.01904296875
20.0699999,7.630321025848389,-5.70777702331543,-0.4668693244457245,3.84521484375,-2.4871826171875,7.0037841796875
20.089999900000002,7.630321025848389,-5.839457988739014,-0.4596867263317108,2.86865234375,2.0904541015625,4.9896240234375
20.109999900000002,7.599195957183838,-5.906495571136475,-0.4644751250743866,2.38037109375,3.0670166015625,4.3487548828125
20.1299999,7.572859764099121,-6.030993938446045,-0.49559974670410156,1.678466796875,-0.0457763671875,4.57763671875
20.1499999,7.539340972900391,-6.102819919586182,-0.524330198764801,0.6256103515625,-1.0833740234375,3.60107421875
20.1699999,7.532158374786377,-6.160281181335449,-0.5339069962501526,-0.3814697265625,-1.1444091796875,1.617431640625
20.1899999,7.55131196975708,-6.268020153045654,-0.5267243981361389,-1.678466796875,1.495361328125,-2.7618408203125
20.2099999,7.568071365356445,-6.289567947387695,-0.5363011956214905,-1.8463134765625,1.2969970703125,-4.2877197265625
20.2299999,7.5968017578125,-6.289567947387695,-0.5434837937355042,-1.8463134765625,0.1983642578125,-5.8746337890625
