# Time (seconds),Accel_X,Accel_Y,Accel_Z,Gyro_X,Gyro_Y,Gyro_Z
0.0099999,3.5386300086975098,-9.35654067993164,1.9345149993896484,9.94873046875,3.2501220703125,-30.029296875
0.029999900000000003,3.6990416049957275,-9.220070838928223,2.097320795059204,7.4005126953125,-3.0059814453125,-25.87890625
0.0499999,3.8307228088378906,-9.0859956741333,2.205059766769409,5.67626953125,-6.7138671875,-25.787353515625
0.0699999,3.955221176147461,-8.932766914367676,2.2601263523101807,5.3863525390625,-4.913330078125,-28.7322998046875
0.08999990000000001,4.108449935913086,-8.765172004699707,2.27209734916687,4.8370361328125,-2.7008056640625,-27.5421142578125
0.10999990000000001,4.256890773773193,-8.614337921142578,2.22660756111145,3.5247802734375,-5.6304931640625,-20.4010009765625
0.1299999,4.3861775398254395,-8.47786808013916,2.140416383743286,3.3111572265625,-12.664794921875,-11.7950439453125
0.14999990000000002,4.443638324737549,-8.372523307800293,2.0159177780151367,5.2947998046875,-14.9688720703125,-7.9803466796875
0.1699999,4.4292731285095215,-8.283937454223633,1.8938134908676147,7.7667236328125,-9.735107421875,-8.209228515625
0.1899999,4.359841346740723,-8.221688270568848,1.7980455160140991,9.5062255859375,-3.2806396484375,-9.307861328125
0.20999990000000002,4.252102375030518,-8.188169479370117,1.721431016921997,10.528564453125,-0.518798828125,-9.8114013671875
0.2299999,4.141968727111816,-8.178592681884766,1.6759412288665771,11.627197265625,-2.105712890625,-10.2081298828125
0.2499999,4.046200752258301,-8.180987358093262,1.656787633895874,12.5732421875,-4.1656494140625,-11.2152099609375
0.2699999,4.0078935623168945,-8.17380428314209,1.6879122257232666,11.749267578125,-5.2337646484375,-12.115478515625
0.28999990000000003,4.046200752258301,-8.152256965637207,1.7812861204147339,8.3160400390625,-4.425048828125,-12.939453125
0.3099999,4.151545524597168,-8.128314971923828,1.900996208190918,2.7923583984375,-1.7547607421875,-12.9547119140625
0.3299999,4.304774761199951,-8.11634349822998,2.0231003761291504,-3.143310546875,0.030517578125,-11.474609375
0.34999990000000003,4.436455726623535,-8.14028549194336,2.0805611610412598,-7.965087890625,-0.396728515625,-8.8958740234375
0.3699999,4.520252704620361,-8.190564155578613,2.0661959648132324,-11.749267578125,-4.8065185546875,-7.537841796875
0.3899999,4.551377296447754,-8.26239013671875,1.9943699836730957,-14.3585205078125,-7.0343017578125,-9.9334716796875
0.40999990000000003,4.565742492675781,-8.346187591552734,1.8938134908676147,-15.899658203125,-2.5177001953125,-14.5111083984375
0.4299999,4.587290287017822,-8.44195556640625,1.7956513166427612,-16.143798828125,3.0670166015625,-15.960693359375
0.4499999,4.608838081359863,-8.537723541259766,1.7046716213226318,-15.5181884765625,3.021240234375,-12.847900390625
0.4699999,4.611232280731201,-8.621520042419434,1.6184803247451782,-13.85498046875,0.2288818359375,-10.7574462890625
0.4899999,4.587290287017822,-8.671798706054688,1.53707754611969,-10.3912353515625,0.030517578125,-12.26806640625
0.5099999,4.546588897705078,-8.688557624816895,1.4628572463989258,-6.2408447265625,-0.1220703125,-12.63427734375
0.5299999,4.508281707763672,-8.681375503540039,1.4077905416488647,-2.99072265625,-2.288818359375,-9.765625
0.5499999,4.481945514678955,-8.664615631103516,1.3646949529647827,-0.2899169921875,-4.08935546875,-7.4310302734375
0.5699999,4.489128112792969,-8.635885238647461,1.3503297567367554,2.655029296875,-4.9591064453125,-7.2174072265625
0.5899998999999999,4.532223701477051,-8.592789649963379,1.357512354850769,4.9591064453125,-5.6304931640625,-6.8206787109375
0.6099998999999999,4.594472885131836,-8.530540466308594,1.3862427473068237,6.04248046875,-4.6234130859375,-5.7525634765625
0.6299999,4.685452938079834,-8.446743965148926,1.4413094520568848,6.011962890625,-1.556396484375,-4.8675537109375
0.6499999,4.750096321105957,-8.372523307800293,1.4844050407409668,5.7220458984375,2.227783203125,-5.4779052734375
0.6699999,4.807557106018066,-8.29590892791748,1.53707754611969,4.39453125,0.732421875,-5.18798828125
0.6899999,4.876988887786865,-8.20492935180664,1.6112977266311646,1.800537109375,-0.030517578125,-4.364013671875
0.7099999,4.944026470184326,-8.13789176940918,1.702277421951294,-4.82177734375,5.767822265625,-4.302978515625
0.7299998999999999,4.927267074584961,-8.061277389526367,1.7573440074920654,-14.1754150390625,10.5743408203125,-3.265380859375
0.7499998999999999,4.886565685272217,-8.044517517089844,1.7597382068634033,-19.866943359375,4.730224609375,-3.265380859375
0.7699999,4.754884719848633,-8.056488990783691,1.6639702320098877,-21.148681640625,-1.495361328125,-6.16455078125
0.7899999,4.668693542480469,-8.123526573181152,1.5203180313110352,-20.0653076171875,-1.3580322265625,-10.8642578125
0.8099999,4.644751071929932,-8.226476669311523,1.3670891523361206,-18.8140869140625,0.1983642578125,-12.4359130859375
0.8299999,4.7189717292785645,-8.358158111572266,1.235408067703247,-17.5628662109375,-0.2593994140625,-9.2926025390625
0.8499998999999999,4.809951305389404,-8.47786808013916,1.1300631761550903,-14.6636962890625,-1.3275146484375,-6.378173828125
0.8699998999999999,4.929661273956299,-8.583212852478027,1.036689281463623,-10.43701171875,-1.3427734375,-5.8441162109375
0.8899999,4.99669885635376,-8.667010307312012,0.9600749015808105,-7.110595703125,-1.3580322265625,-4.6539306640625
0.9099999,5.054159641265869,-8.674192428588867,0.9002198576927185,-4.0283203125,-2.38037109375,-2.44140625
0.9299999,5.061342239379883,-8.647856712341309,0.8738836050033569,-0.152587890625,-4.45556640625,-1.2969970703125
0.9499999,5.056553840637207,-8.607154846191406,0.849941611289978,2.685546875,-7.537841796875,-0.67138671875
0.9699998999999999,5.049371242523193,-8.508993148803711,0.8738836050033569,3.72314453125,-7.598876953125,-1.220703125
0.9899998999999999,5.054159641265869,-8.38449478149414,0.9169792532920837,3.6468505859375,-4.8980712890625,-2.3651123046875
1.0099999,5.085284233093262,-8.312667846679688,0.9696516990661621,2.9296875,-2.6092529296875,-2.99072265625
1.0299999,5.12119722366333,-8.212111473083496,1.0271124839782715,0.9613037109375,-3.753662109375,-2.410888671875
1.0499999,5.157110691070557,-8.190564155578613,1.0582371950149536,-1.8463134765625,-3.7689208984375,-2.0294189453125
1.0699999,5.188235282897949,-8.169015884399414,1.0438719987869263,-3.5858154296875,0.0152587890625,-3.0517578125
1.0899999,5.228936672210693,-8.192957878112793,1.0223240852355957,-3.7841796875,3.35693359375,-4.547119140625
1.1099999,5.2480902671813965,-8.22887134552002,0.9624691009521484,-3.5858154296875,3.3111572265625,-4.5623779296875
1.1299999,5.286397457122803,-8.276755332946777,0.9313444495201111,-3.753662109375,2.593994140625,-3.1280517578125
1.1499999,5.298368453979492,-8.339004516601562,0.8882488012313843,-3.5858154296875,3.0975341796875,-2.0599365234375
1.1699998999999999,5.30076265335083,-8.358158111572266,0.871489405632019,-2.349853515625,3.570556640625,-1.52587890625
1.1899998999999999,5.2696380615234375,-8.38449478149414,0.8451532125473022,-0.91552734375,3.35693359375,-2.13623046875
1.2099999,5.243301868438721,-8.346187591552734,0.8259995579719543,0.9765625,4.3487548828125,-3.9825439453125
1.2299999,5.212177276611328,-8.339004516601562,0.8331822156906128,2.6397705078125,4.7454833984375,-5.31005859375
1.2499999,5.233725070953369,-8.310274124145508,0.9265560507774353,1.6326904296875,2.5177001953125,-0.48828125
1.2699999,5.2480902671813965,-8.279149055480957,1.0055646896362305,0.244140625,3.8604736328125,1.739501953125
1.2899999,5.231330871582031,-8.303091049194336,1.039083480834961,0.732421875,5.7220458984375,1.1444091796875
1.3099999,5.188235282897949,-8.238448143005371,1.0821791887283325,1.7547607421875,5.5999755859375,-0.244140625
1.3299999,5.128379821777344,-8.243236541748047,1.0821791887283325,2.13623046875,5.218505859375,-0.5645751953125
1.3499999,5.082890033721924,-8.243236541748047,1.0989385843276978,2.3193359375,4.82177734375,-0.579833984375
1.3699999,5.051765441894531,-8.243236541748047,1.1037269830703735,2.8228759765625,4.3487548828125,-0.762939453125
1.3899999,5.056553840637207,-8.248024940490723,1.113303780555725,2.9296875,4.547119140625,-0.885009765625
1.4099999,5.07570743560791,-8.22887134552002,1.139639973640442,2.4871826171875,4.638671875,-0.3814697265625
1.4299998999999999,5.106832027435303,-8.197746276855469,1.1540051698684692,1.953125,5.2490234375,-0.091552734375
1.4499999,5.137956619262695,-8.159439086914062,1.1779472827911377,1.922607421875,5.6304931640625,-0.0762939453125
1.4699999,5.166687488555908,-8.133103370666504,1.1971008777618408,1.7242431640625,3.082275390625,0.7781982421875
1.4899999,5.207388877868652,-8.094796180725098,1.2282254695892334,0.701904296875,1.1749267578125,1.46484375
1.5099999,5.2480902671813965,-8.04691219329834,1.2617442607879639,-0.640869140625,3.2501220703125,0.244140625
1.5299999,5.281609058380127,-8.030152320861816,1.2952631711959839,-0.885009765625,6.6070556640625,-1.3580322265625
1.5499999,5.307945251464844,-8.022970199584961,1.3096283674240112,-0.8697509765625,5.3863525390625,-0.518798828125
1.5699999,5.322310447692871,-8.054094314575195,1.3311761617660522,-2.3345947265625,0.2288818359375,3.8909912109375
1.5899999,5.317522048950195,-8.1139497756958,1.3239935636520386,-4.82177734375,-0.1068115234375,8.2244873046875
1.6099999,5.279214859008789,-8.197746276855469,1.3192051649093628,-5.7830810546875,5.2032470703125,8.6212158203125
1.6299999,5.202600479125977,-8.274360656738281,1.2641384601593018,-4.7149658203125,7.1868896484375,7.3699951171875
1.6499999,5.066130638122559,-8.396465301513672,1.1899182796478271,-2.99072265625,3.6468505859375,6.9427490234375
1.6699999,4.924872875213623,-8.523358345031738,1.1109095811843872,-0.79345703125,1.5716552734375,5.1422119140625
1.6899998999999999,4.831499099731445,-8.609549522399902,1.0582371950149536,1.8157958984375,3.0975341796875,2.8076171875
1.7099999,4.797980308532715,-8.712499618530273,1.05105459690094,2.960205078125,4.0283203125,2.5787353515625
1.7299999,4.838681697845459,-8.712499618530273,1.0821791887283325,3.021240234375,3.9215087890625,3.4637451171875
1.7499999,4.912901878356934,-8.705317497253418,1.1276689767837524,3.814697265625,4.9896240234375,3.0975341796875
1.7699999,4.991910457611084,-8.604761123657227,1.1803414821624756,4.638671875,6.2408447265625,1.922607421875
1.7899999,5.049371242523193,-8.53532886505127,1.216254472732544,4.9591064453125,5.401611328125,1.6937255859375
1.8099999,5.061342239379883,-8.422801971435547,1.2449848651885986,5.0506591796875,4.0435791015625,1.8463134765625
1.8299999,5.066130638122559,-8.377311706542969,1.2545616626739502,6.40869140625,3.41796875,0.823974609375
1.8499999,5.0469770431518555,-8.29590892791748,1.2761094570159912,7.4920654296875,1.7852783203125,-0.244140625
1.8699999,5.073313236236572,-8.26239013671875,1.3120225667953491,5.9814453125,2.0904541015625,0.3204345703125
1.8899999,5.061342239379883,-8.233659744262695,1.3694833517074585,3.11279296875,4.2572021484375,2.2430419921875
1.9099999,5.063736438751221,-8.17380428314209,1.4293384552001953,0.8392333984375,3.1585693359375,4.669189453125
1.9299998999999999,5.006275653839111,-8.188169479370117,1.4748282432556152,-0.762939453125,0.6866455078125,5.2337646484375
1.9499999,4.929661273956299,-8.178592681884766,1.501164436340332,-1.7852783203125,0.3662109375,3.5247802734375
1.9699999,4.8482584953308105,-8.24084186553955,1.5131354331970215,-2.7618408203125,2.2125244140625,1.4495849609375
1.9899999,4.795586109161377,-8.307879447937012,1.50355863571167,-3.41796875,3.9825439453125,0.396728515625
2.0099999,4.754884719848633,-8.401253700256348,1.482010841369629,-3.4332275390625,3.6163330078125,-0.244140625
2.0299999,4.750096321105957,-8.458714485168457,1.4317326545715332,-3.3111572265625,2.7313232421875,-0.640869140625
2.0499999,4.757278919219971,-8.504204750061035,1.381454348564148,-3.0517578125,2.5177001953125,-0.762939453125
2.0699999,4.790797710418701,-8.525752067565918,1.335964560508728,-2.6092529296875,2.349853515625,-1.1138916015625
2.0899999,4.836287498474121,-8.544905662536621,1.314416766166687,-1.8310546875,3.6773681640625,-1.7547607421875
2.1099999,4.8937482833862305,-8.552088737487793,1.316810965538025,-0.885009765625,3.60107421875,-1.64794921875
2.1299999,4.941632270812988,-8.561665534973145,1.3239935636520386,0.18310546875,2.8839111328125,-1.5106201171875
2.1499999,4.970362663269043,-8.549694061279297,1.335964560508728,1.46484375,1.4801025390625,-1.8768310546875
2.1699999,4.972756862640381,-8.520963668823242,1.357512354850769,2.1209716796875,0.3509521484375,-1.495361328125
2.1899999,4.99669885635376,-8.47547435760498,1.3646949529647827,1.8463134765625,0.9613037109375,-0.732421875
2.2099999,4.960785865783691,-8.40843677520752,1.381454348564148,1.8768310546875,3.0975341796875,-0.18310546875
2.2299999,4.975151062011719,-8.310274124145508,1.3958195447921753,2.227783203125,1.3275146484375,1.007080078125
2.2499999,4.944026470184326,-8.26478385925293,1.3982137441635132,1.739501953125,-1.5411376953125,2.9296875
2.2699999,4.944026470184326,-8.166622161865234,1.414973258972168,1.4190673828125,-2.0294189453125,4.39453125
2.2899999,4.934449672698975,-8.183381080627441,1.4460978507995605,1.251220703125,-1.190185546875,5.1116943359375
2.3099999,4.927267074584961,-8.180987358093262,1.460463047027588,0.9002685546875,-0.3509521484375,5.126953125
2.3299999,4.898536682128906,-8.236053466796875,1.4867992401123047,0.2593994140625,0.0762939453125,5.1116943359375
2.3499999,4.850652694702148,-8.339004516601562,1.482010841369629,-0.5340576171875,1.6021728515625,4.150390625
2.3699999,4.793191909790039,-8.429984092712402,1.4532804489135742,-0.732421875,2.3193359375,2.6092529296875
2.3899999,4.730942726135254,-8.585607528686523,1.4221558570861816,-0.396728515625,1.190185546875,1.9683837890625
2.4099999,4.699818134307861,-8.635885238647461,1.3934253454208374,-0.3509521484375,-0.8087158203125,1.9989013671875
2.4299999,4.683058738708496,-8.707711219787598,1.3742717504501343,-0.579833984375,-0.30517578125,1.2969970703125
2.4499999,4.704606533050537,-8.686163902282715,1.3742717504501343,-0.06103515625,1.77001953125,-0.06103515625
2.4699999,4.730942726135254,-8.683769226074219,1.3766659498214722,0.6256103515625,1.8310546875,-0.5035400390625
2.4899999,4.759673118591309,-8.655038833618164,1.3694833517074585,1.0223388671875,0.030517578125,-0.2288818359375
2.5099999,4.778826713562012,-8.614337921142578,1.3718775510787964,1.03759765625,-0.5340576171875,-1.007080078125
2.5299999,4.793191909790039,-8.561665534973145,1.37906014919281,1.0223388671875,0.762939453125,-2.9449462890625
2.5499999,4.819528102874756,-8.489839553833008,1.3886369466781616,0.3204345703125,1.2969970703125,-3.997802734375
2.5699999,4.857835292816162,-8.425195693969727,1.414973258972168,-0.8087158203125,-0.3204345703125,-2.7923583984375
2.5899999,4.900930881500244,-8.391676902770996,1.4437036514282227,-2.0751953125,-1.3275146484375,-1.2359619140625
2.6099999,4.941632270812988,-8.362946510314941,1.460463047027588,-2.777099609375,1.0528564453125,-1.3580322265625
2.6299999,4.953603267669678,-8.348581314086914,1.460463047027588,-2.593994140625,3.3721923828125,-1.8463134765625
2.6499999,4.941632270812988,-8.355764389038086,1.4413094520568848,-2.2430419921875,2.6092529296875,-1.1138916015625
2.6699999,4.903325080871582,-8.360552787780762,1.4101848602294922,-1.8768310546875,1.0986328125,-0.3814697265625
2.6899999,4.8602294921875,-8.377311706542969,1.381454348564148,-1.220703125,1.5716552734375,-0.54931640625
2.7099999,4.812345504760742,-8.418013572692871,1.357512354850769,-0.54931640625,2.0599365234375,-0.244140625
2.7299999,4.76924991607666,-8.446743965148926,1.338358759880066,-0.0457763671875,0.9613037109375,0.213623046875
2.7499999,4.733336925506592,-8.489839553833008,1.3263877630233765,0.8087158203125,0.335693359375,0.0152587890625
2.7699999,4.716577529907227,-8.520963668823242,1.3263877630233765,1.495361328125,0.579833984375,-0.3662109375
2.7899999,4.72376012802124,-8.520963668823242,1.3431471586227417,1.434326171875,0.5950927734375,0.1373291015625
2.8099999,4.766855716705322,-8.516175270080566,1.3623007535934448,1.0223388671875,0.48828125,0.9613037109375
2.8299999,4.809951305389404,-8.497021675109863,1.3862427473068237,0.9307861328125,1.0986328125,1.007080078125
2.8499999,4.850652694702148,-8.463502883911133,1.3958195447921753,1.0528564453125,1.556396484375,0.2899169921875
2.8699999,4.888959884643555,-8.44434928894043,1.4077905416488647,0.5645751953125,1.46484375,-0.7171630859375
2.8899999,4.9152960777282715,-8.389283180236816,1.4293384552001953,-0.7476806640625,2.3956298828125,-1.6937255859375
2.9099999,4.934449672698975,-8.372523307800293,1.4413094520568848,-2.197265625,2.7923583984375,-1.251220703125
2.9299999,4.946420669555664,-8.348581314086914,1.45806884765625,-3.326416015625,1.068115234375,0.7781982421875
2.9499999,4.927267074584961,-8.365341186523438,1.4532804489135742,-3.5247802734375,0.946044921875,1.8157958984375
2.9699999,4.888959884643555,-8.377311706542969,1.4269442558288574,-2.38037109375,3.0059814453125,1.251220703125
2.9899999,4.836287498474121,-8.42040729522705,1.3910311460494995,-0.8087158203125,3.8299560546875,0.91552734375
3.0099999,4.778826713562012,-8.494627952575684,1.2832920551300049,1.708984375,3.96728515625,0.79345703125
3.0299999,4.752490520477295,-8.571242332458496,1.2330138683319092,9.8876953125,1.373291015625,1.2359619140625
3.0499999,4.764461517333984,-8.647856712341309,1.1899182796478271,14.6331787109375,2.0751953125,2.166748046875
3.0699999,4.812345504760742,-8.667010307312012,1.2473790645599365,13.5498046875,4.57763671875,4.0435791015625
3.0899999,4.8722004890441895,-8.621520042419434,1.3718775510787964,11.2152099609375,3.4637451171875,6.89697265625
3.1099999,4.910507678985596,-8.530540466308594,1.522712230682373,8.1024169921875,1.1749267578125,8.3770751953125
3.1299999,4.896142482757568,-8.437167167663574,1.6496049165725708,5.706787109375,1.708984375,6.9427490234375
3.1499999,4.833893299102783,-8.358158111572266,1.7334020137786865,3.9825439453125,2.38037109375,4.6234130859375
3.1699999,4.742913722991943,-8.31985092163086,1.7741034030914307,1.953125,0.3814697265625,3.1585693359375
3.1899999,4.654327869415283,-8.327033042907715,1.7860745191574097,0.0152587890625,-0.9918212890625,1.4495849609375
3.2099999,4.58968448638916,-8.358158111572266,1.7836803197860718,-1.6632080078125,1.8463134765625,-0.762939453125
3.2299999,4.565742492675781,-8.401253700256348,1.7693150043487549,-3.204345703125,5.4473876953125,-2.2125244140625
3.2499999,4.570530891418457,-8.44434928894043,1.742978811264038,-4.547119140625,6.34765625,-2.532958984375
3.2699999,4.6040496826171875,-8.482656478881836,1.7094600200653076,-4.7607421875,6.5765380859375,-2.838134765625
3.2899999,4.642356872558594,-8.51138687133789,1.6663644313812256,-3.7994384765625,8.636474609375,-3.5858154296875
3.3099999,4.687847137451172,-8.540117263793945,1.625662922859192,-2.166748046875,9.1094970703125,-3.448486328125
3.3299999000000002,4.726154327392578,-8.554482460021973,1.5945383310317993,-0.42724609375,6.500244140625,-1.922607421875
3.3499999,4.750096321105957,-8.554482460021973,1.5705963373184204,1.5106201171875,4.852294921875,-0.701904296875
3.3699999,4.764461517333984,-8.542511940002441,1.5658079385757446,3.570556640625,4.8980712890625,-0.4119873046875
3.3899999,4.76924991607666,-8.523358345031738,1.580173134803772,4.8370361328125,3.5247802734375,0.701904296875
3.4099999,4.764461517333984,-8.494627952575684,1.6136919260025024,4.8675537109375,-0.1983642578125,3.47900390625
3.4299999,4.752490520477295,-8.461109161376953,1.6639702320098877,4.21142578125,-2.8076171875,5.2947998046875
3.4499999,4.72376012802124,-8.422801971435547,1.7142484188079834,3.3111572265625,-1.0223388671875,4.7454833984375
3.4699999,4.67827033996582,-8.38449478149414,1.7573440074920654,2.6092529296875,0.1220703125,3.7384033203125
3.4899999,4.6255974769592285,-8.35336971282959,1.7836803197860718,1.7242431640625,-3.0517578125,3.7994384765625
3.5099999,4.577713489532471,-8.339004516601562,1.7980455160140991,0.335693359375,-6.500244140625,3.96728515625
3.5299999,4.553771495819092,-8.346187591552734,1.8124107122421265,-1.5411376953125,-5.5389404296875,3.0975341796875
3.5499999,4.548983097076416,-8.370129585266113,1.8195933103561401,-3.1890869140625,-1.3885498046875,1.8768310546875
3.5699999,4.55616569519043,-8.415618896484375,1.8100165128707886,-4.5623779296875,0.5645751953125,1.708984375
3.5899999,4.568136692047119,-8.470685958862305,1.7812861204147339,-5.096435546875,-0.48828125,1.5716552734375
3.6099999,4.570530891418457,-8.528146743774414,1.7310078144073486,-4.45556640625,-1.03759765625,0.3204345703125
3.6299999,4.577713489532471,-8.580819129943848,1.6735470294952393,-3.5858154296875,-0.6256103515625,-0.762939453125
3.6499999,4.58968448638916,-8.619126319885254,1.6208745241165161,-2.8228759765625,-0.457763671875,-0.7476806640625
3.6699999,4.608838081359863,-8.645462036132812,1.580173134803772,-2.3193359375,-0.5645751953125,-0.823974609375
3.6899999,4.632780075073242,-8.655038833618164,1.5490485429763794,-1.5411376953125,-0.030517578125,-1.6937255859375
3.7099999,4.656722068786621,-8.652645111083984,1.525106430053711,-0.640869140625,1.1444091796875,-2.2125244140625
3.7299999,4.683058738708496,-8.633491516113281,1.5131354331970215,-0.1678466796875,1.3885498046875,-1.6937255859375
3.7499999,4.707000732421875,-8.60236644744873,1.5179238319396973,-0.30517578125,1.220703125,-1.4495849609375
3.7699999,4.730942726135254,-8.561665534973145,1.5394717454910278,-0.8392333984375,3.509521484375,-2.6702880859375
3.7899999,4.757278919219971,-8.530540466308594,1.5705963373184204,-1.03759765625,6.6986083984375,-3.936767578125
3.8099999,4.771644115447998,-8.506598472595215,1.601720929145813,-1.3427734375,6.1798095703125,-3.173828125
3.8299999000000002,4.764461517333984,-8.497021675109863,1.623268723487854,-1.89208984375,2.8076171875,-1.373291015625
3.8499999,4.73573112487793,-8.489839553833008,1.6352397203445435,-2.25830078125,0.823974609375,-1.3580322265625
3.8699999,4.697423934936523,-8.485051155090332,1.647210717201233,-2.1209716796875,1.312255859375,-2.8533935546875
3.8899999,4.666299343109131,-8.473079681396484,1.6711528301239014,-2.44140625,2.7008056640625,-3.9825439453125
3.9099999,4.642356872558594,-8.463502883911133,1.699883222579956,-3.5400390625,4.486083984375,-3.997802734375
3.9299999,4.620809078216553,-8.456320762634277,1.7166426181793213,-4.6539306640625,4.913330078125,-4.241943359375
3.9499999,4.606443881988525,-8.453926086425781,1.7286136150360107,-5.55419921875,4.2572021484375,-4.791259765625
3.9699999,4.5825018882751465,-8.456320762634277,1.7070658206939697,-6.16455078125,5.157470703125,-5.4779052734375
3.9899999,4.575319290161133,-8.458714485168457,1.6735470294952393,-5.9967041015625,3.6773681640625,-6.317138671875
4.0099999,4.584896087646484,-8.456320762634277,1.644816517829895,-5.584716796875,2.50244140625,-8.056640625
4.029999900000001,4.613626480102539,-8.449137687683105,1.625662922859192,-5.3558349609375,4.2572021484375,-10.3607177734375
4.0499999,4.661510944366455,-8.429984092712402,1.6519991159439087,-6.04248046875,6.317138671875,-10.7879638671875
4.069999900000001,4.72376012802124,-8.389283180236816,1.6711528301239014,-10.4827880859375,5.523681640625,-9.8114013671875
4.0899999000000005,4.786009311676025,-8.348581314086914,1.7142484188079834,-15.167236328125,4.638671875,-10.4522705078125
4.1099999,4.8602294921875,-8.29830265045166,1.7142484188079834,-16.571044921875,5.462646484375,-12.8936767578125
4.1299999000000005,4.90571928024292,-8.281543731689453,1.678335428237915,-17.7764892578125,3.2501220703125,-13.0767822265625
4.1499999,4.944026470184326,-8.293514251708984,1.6065093278884888,-19.8211669921875,-4.4708251953125,-9.5062255859375
4.1699999000000005,4.9799394607543945,-8.29830265045166,1.501164436340332,-20.08056640625,-9.58251953125,-6.683349609375
4.1899999,4.98472785949707,-8.324639320373535,1.3742717504501343,-17.8375244140625,-10.8795166015625,-5.9356689453125
4.209999900000001,4.999093055725098,-8.377311706542969,1.237802267074585,-15.594482421875,-11.4898681640625,-5.0048828125
4.2299999,4.999093055725098,-8.434772491455078,1.113303780555725,-13.4429931640625,-10.0555419921875,-4.1351318359375
4.249999900000001,4.99669885635376,-8.487444877624512,0.9768342971801758,-9.674072265625,-6.011962890625,-4.058837890625
4.2699999,4.95120906829834,-8.592789649963379,0.9026140570640564,-5.645751953125,-6.7901611328125,-3.41796875
4.289999900000001,4.963180065155029,-8.556877136230469,0.8355764150619507,-3.2958984375,-9.3994140625,-3.23486328125
4.3099999,4.955997467041016,-8.544905662536621,0.8307880163192749,-1.6937255859375,-9.1705322265625,-3.84521484375
4.329999900000001,4.982333660125732,-8.465897560119629,0.8259995579719543,-0.5340576171875,-9.6435546875,-3.4332275390625
4.3499999,5.049371242523193,-8.389283180236816,0.8738836050033569,-1.0223388671875,-9.7808837890625,-2.5787353515625
4.369999900000001,5.12119722366333,-8.303091049194336,0.8786720037460327,-2.4566650390625,-6.8359375,-2.6702880859375
4.3899999,5.195417881011963,-8.26478385925293,0.9002198576927185,-3.5552978515625,-4.1046142578125,-2.4261474609375
4.409999900000001,5.233725070953369,-8.238448143005371,0.9050082564353943,-5.0201416015625,-7.2021484375,-0.762939453125
4.4299999,5.264849662780762,-8.185775756835938,0.9002198576927185,-7.3089599609375,-10.223388671875,0.79345703125
4.449999900000001,5.236119270324707,-8.226476669311523,0.8786720037460327,-8.941650390625,-7.080078125,0.274658203125
4.4699999,5.195417881011963,-8.221688270568848,0.8451532125473022,-9.58251953125,-0.6256103515625,-1.89208984375
4.489999900000001,5.149928092956543,-8.271966934204102,0.7589619159698486,-8.819580078125,2.6702880859375,-3.753662109375
4.5099999,5.114014625549316,-8.367734909057617,0.667982280254364,-6.4544677734375,1.800537109375,-4.1961669921875
4.529999900000001,5.130774021148682,-8.42040729522705,0.5602431893348694,-3.3111572265625,1.0833740234375,-3.143310546875
4.5499999,5.171475887298584,-8.487444877624512,0.49320554733276367,-0.5340576171875,-0.244140625,-0.5645751953125
4.569999900000001,5.228936672210693,-8.461109161376953,0.4668693244457245,1.0223388671875,-3.1280517578125,2.8228759765625
4.5899999000000005,5.257667064666748,-8.422801971435547,0.4668693244457245,2.38037109375,-3.3416748046875,4.45556640625
4.609999900000001,5.2696380615234375,-8.379706382751465,0.49320554733276367,3.4027099609375,-1.9378662109375,4.0740966796875
4.6299999000000005,5.25527286529541,-8.374917984008789,0.5171475410461426,3.9825439453125,1.312255859375,3.173828125
4.6499999,5.231330871582031,-8.372523307800293,0.5434837937355042,5.1727294921875,4.0283203125,2.8228759765625
4.6699999000000005,5.214571475982666,-8.429984092712402,0.5722141861915588,6.89697265625,2.7008056640625,4.425048828125
4.6899999,5.169081687927246,-8.434772491455078,0.6200982332229614,7.2021484375,-0.8087158203125,6.866455078125
4.709999900000001,5.152322292327881,-8.415618896484375,0.6703764796257019,6.2713623046875,0.7781982421875,6.8206787109375
4.7299999,5.102043628692627,-8.437167167663574,0.7374141216278076,5.584716796875,5.2947998046875,4.4403076171875
4.749999900000001,5.0900726318359375,-8.370129585266113,0.7781155705451965,5.0811767578125,6.256103515625,2.9754638671875
4.7699999,5.051765441894531,-8.374917984008789,0.8140285611152649,4.57763671875,3.9825439453125,4.1961669921875
4.789999900000001,5.063736438751221,-8.35097599029541,0.828393816947937,4.058837890625,2.685546875,6.3629150390625
4.8099999,5.044582843780518,-8.293514251708984,0.8523358106613159,3.570556640625,4.0130615234375,7.1258544921875
4.829999900000001,5.027823448181152,-8.329427719116211,0.871489405632019,3.0517578125,3.7841796875,6.7291259765625
4.8499999,5.0014872550964355,-8.279149055480957,0.9074024558067322,2.2125244140625,1.922607421875,6.40869140625
4.869999900000001,4.9583916664123535,-8.348581314086914,0.9193734526634216,1.251220703125,0.8087158203125,6.805419921875
4.8899999,4.9368438720703125,-8.401253700256348,0.9313444495201111,0.9765625,1.3580322265625,7.2784423828125
4.909999900000001,4.884171485900879,-8.451532363891602,0.9097966551780701,2.0599365234375,4.5166015625,6.6375732421875
4.9299999,4.8602294921875,-8.549694061279297,0.8667010068893433,4.82177734375,7.049560546875,5.7373046875
4.949999900000001,4.807557106018066,-8.59997272491455,0.8236053586006165,8.087158203125,3.8909912109375,6.3323974609375
4.9699999,4.771644115447998,-8.678980827331543,0.7805097699165344,11.077880859375,-0.732421875,8.23974609375
4.989999900000001,4.742913722991943,-8.743624687194824,0.7565677165985107,14.2059326171875,-2.9449462890625,10.284423828125
5.0099999,4.668693542480469,-9.004592895507812,0.4908113479614258,22.6593017578125,-6.89697265625,11.53564453125
5.029999900000001,4.7189717292785645,-9.097966194152832,0.3902548849582672,50.4150390625,-17.8985595703125,13.153076171875
5.0499999,4.788403511047363,-9.289502143859863,0.28730419278144836,69.3817138671875,-15.533447265625,18.463134765625
5.069999900000001,4.972756862640381,-9.165003776550293,0.5267243981361389,63.079833984375,0.244140625,23.223876953125
5.0899999000000005,5.161899089813232,-8.468291282653809,1.6328455209732056,31.982421875,19.4854736328125,25.69580078125
5.109999900000001,5.0014872550964355,-8.068459510803223,2.1092917919158936,18.06640625,15.31982421875,22.2625732421875
5.1299999000000005,4.699818134307861,-7.7763671875,2.3942017555236816,6.8359375,6.317138671875,17.2271728515625
5.1499999,4.345476150512695,-7.649474620819092,2.5091233253479004,-2.3193359375,1.0986328125,9.918212890625
5.1699999000000005,4.046200752258301,-7.692570209503174,2.513911724090576,-10.8184814453125,3.90625,2.3345947265625
5.1899999,3.8498764038085938,-7.872135162353516,2.454056739807129,-18.3258056640625,9.918212890625,-2.4566650390625
5.209999900000001,3.77565598487854,-8.13789176940918,2.346317768096924,-23.3001708984375,13.3209228515625,-5.18798828125
5.2299999,3.7852327823638916,-8.432378768920898,2.205059766769409,-24.7344970703125,13.0767822265625,-7.0953369140625
5.249999900000001,3.861847400665283,-8.700529098510742,2.0422539710998535,-23.49853515625,11.566162109375,-7.080078125
5.2699999,3.9647979736328125,-8.918401718139648,1.8746598958969116,-20.56884765625,9.002685546875,-5.0506591796875
5.289999900000001,4.079719543457031,-9.059659004211426,1.7262194156646729,-16.2811279296875,5.55419921875,-2.6397705078125
5.3099999,4.177882194519043,-9.14345645904541,1.599326729774475,-10.68115234375,3.3721923828125,-1.556396484375
5.329999900000001,4.24970817565918,-9.169792175292969,1.501164436340332,-4.2724609375,2.288818359375,-0.9002685546875
5.3499999,4.299986362457275,-9.153033256530762,1.4484920501708984,1.0528564453125,0.8392333984375,0.3662109375
5.369999900000001,4.333505153656006,-9.107542991638184,1.4389152526855469,4.82177734375,0.1983642578125,1.739501953125
5.3899999,4.352658748626709,-9.038111686706543,1.479616641998291,7.6751708984375,1.15966796875,2.4871826171875
5.409999900000001,4.357447147369385,-8.956708908081055,1.5442601442337036,9.490966796875,3.0059814453125,2.6092529296875
5.4299999,4.338293552398682,-8.87051773071289,1.6184803247451782,10.1470947265625,2.8533935546875,2.716064453125
5.449999900000001,4.311957359313965,-8.779537200927734,1.6903064250946045,9.82666015625,0.8087158203125,2.9296875
5.4699999,4.280832767486572,-8.695740699768066,1.7621324062347412,8.7432861328125,0.2288818359375,2.0904541015625
5.489999900000001,4.256890773773193,-8.621520042419434,1.8291701078414917,6.9122314453125,2.13623046875,0.5950927734375
5.5099999,4.247313976287842,-8.564059257507324,1.8938134908676147,4.608154296875,3.509521484375,-0.244140625
5.529999900000001,4.247313976287842,-8.528146743774414,1.946485996246338,2.0599365234375,3.47900390625,-0.6561279296875
5.5499999,4.244919776916504,-8.513781547546387,1.9800047874450684,-0.1373291015625,2.777099609375,-1.007080078125
5.569999900000001,4.24970817565918,-8.516175270080566,1.9943699836730957,-1.9683837890625,2.044677734375,-1.4801025390625
5.5899999000000005,4.252102375030518,-8.530540466308594,1.987187385559082,-3.5858154296875,1.800537109375,-2.01416015625
5.609999900000001,4.261679172515869,-8.554482460021973,1.965639591217041,-4.6234130859375,1.1749267578125,-1.9989013671875
5.6299999000000005,4.264073371887207,-8.5903959274292,1.9249382019042969,-4.9896240234375,-0.274658203125,-1.068115234375
5.6499999,4.271255970001221,-8.633491516113281,1.8794482946395874,-4.638671875,-0.8087158203125,-0.3509521484375
5.6699999000000005,4.271255970001221,-8.681375503540039,1.824381709098816,-3.41796875,0.2899169921875,-0.9765625
5.6899999,4.2760443687438965,-8.722076416015625,1.7764976024627686,-2.166748046875,1.2359619140625,-1.5411376953125
5.709999900000001,4.28322696685791,-8.760383605957031,1.7381904125213623,-1.40380859375,2.105712890625,-1.4190673828125
5.7299999,4.2951979637146,-8.786720275878906,1.7166426181793213,-0.3662109375,2.50244140625,-1.068115234375
5.749999900000001,4.307168960571289,-8.798690795898438,1.7094600200653076,0.6866455078125,1.922607421875,-0.67138671875
5.7699999,4.309563159942627,-8.796297073364258,1.7142484188079834,0.8087158203125,0.5035400390625,-0.18310546875
5.789999900000001,4.302380561828613,-8.769960403442383,1.7310078144073486,0.4119873046875,-0.274658203125,0.0457763671875
5.8099999,4.290409564971924,-8.731653213500977,1.7549498081207275,0.4425048828125,0.946044921875,-1.068115234375
5.829999900000001,4.280832767486572,-8.688557624816895,1.7812861204147339,0.4730224609375,2.4261474609375,-2.44140625
5.8499999,4.2760443687438965,-8.647856712341309,1.800439715385437,0.2288818359375,1.9378662109375,-2.3040771484375
5.869999900000001,4.285621166229248,-8.616731643676758,1.8171991109848022,-0.274658203125,-0.3509521484375,-1.03759765625
5.8899999,4.2951979637146,-8.595184326171875,1.8291701078414917,-0.8392333984375,-0.579833984375,-0.5340576171875
5.909999900000001,4.307168960571289,-8.585607528686523,1.8363527059555054,-1.556396484375,1.0223388671875,-0.732421875
5.9299999,4.309563159942627,-8.580819129943848,1.8387469053268433,-2.3345947265625,1.3580322265625,-0.579833984375
5.949999900000001,4.2951979637146,-8.5903959274292,1.8291701078414917,-2.685546875,0.396728515625,-0.1373291015625
5.9699999,4.266467571258545,-8.59997272491455,1.802833914756775,-2.2430419921875,0.3509521484375,-0.6256103515625
5.989999900000001,4.240131378173828,-8.609549522399902,1.7860745191574097,-1.678466796875,0.2288818359375,-2.0294189453125
6.0099999,4.225766181945801,-8.614337921142578,1.7836803197860718,-2.2735595703125,-0.7171630859375,-2.8839111328125
6.029999900000001,4.23773717880249,-8.616731643676758,1.800439715385437,-4.180908203125,0.0762939453125,-2.62451171875
6.0499999,4.256890773773193,-8.62391471862793,1.8267759084701538,-5.92041015625,1.800537109375,-3.448486328125
6.069999900000001,4.285621166229248,-8.635885238647461,1.8555063009262085,-7.7972412109375,4.1961669921875,-5.767822265625
6.0899999000000005,4.288015365600586,-8.664615631103516,1.8315643072128296,-8.758544921875,7.2174072265625,-7.537841796875
6.109999900000001,4.2951979637146,-8.695740699768066,1.800439715385437,-9.1094970703125,3.1890869140625,-7.26318359375
6.1299999000000005,4.311957359313965,-8.71489429473877,1.7621324062347412,-9.9639892578125,1.28173828125,-7.3699951171875
6.149999900000001,4.335899353027344,-8.698134422302246,1.745373010635376,-12.9241943359375,5.1116943359375,-9.307861328125
6.1699999000000005,4.359841346740723,-8.688557624816895,1.7166426181793213,-17.08984375,9.918212890625,-11.7034912109375
6.1899999,4.37420654296875,-8.671798706054688,1.6639702320098877,-17.7001953125,9.429931640625,-13.153076171875
6.209999900000001,4.359841346740723,-8.676587104797363,1.5634137392044067,-14.9688720703125,3.875732421875,-13.214111328125
6.2299999,4.371812343597412,-8.695740699768066,1.4269442558288574,-11.260986328125,0.946044921875,-14.1754150390625
6.249999900000001,4.422090530395508,-8.707711219787598,1.3311761617660522,-7.415771484375,1.3427734375,-14.9078369140625
6.2699999,4.525041103363037,-8.71489429473877,1.2856862545013428,-5.4168701171875,0.8544921875,-11.90185546875
6.289999900000001,4.6471452713012695,-8.683769226074219,1.3000515699386597,-5.0201416015625,-1.03759765625,-6.134033203125
6.3099999,4.745307922363281,-8.65982723236084,1.3120225667953491,-4.5623779296875,-3.2958984375,-1.3427734375
6.329999900000001,4.774038314819336,-8.604761123657227,1.3407529592514038,-2.9144287109375,-4.547119140625,0.4425048828125
6.3499999,4.788403511047363,-8.53532886505127,1.335964560508728,-1.1749267578125,-4.3792724609375,0.06103515625
6.369999900000001,4.747702121734619,-8.506598472595215,1.3239935636520386,-0.1373291015625,-3.173828125,-1.190185546875
6.3899999,4.747702121734619,-8.437167167663574,1.3311761617660522,0.79345703125,-2.3040771484375,-1.434326171875
6.409999900000001,4.728548526763916,-8.446743965148926,1.3192051649093628,1.3885498046875,-1.953125,-0.18310546875
6.4299999,4.745307922363281,-8.425195693969727,1.338358759880066,1.129150390625,-2.9449462890625,1.739501953125
6.449999900000001,4.7620673179626465,-8.461109161376953,1.3192051649093628,0.1068115234375,-4.2724609375,3.4942626953125
6.4699999,4.7836151123046875,-8.456320762634277,1.3431471586227417,-1.190185546875,-2.349853515625,3.082275390625
6.489999900000001,4.790797710418701,-8.47547435760498,1.316810965538025,-1.678466796875,0.823974609375,1.3580322265625
6.5099999,4.764461517333984,-8.492233276367188,1.292868971824646,-1.678466796875,1.5716552734375,0.0762939453125
6.529999900000001,4.721365928649902,-8.516175270080566,1.2832920551300049,-1.8310546875,-0.7781982421875,0.2288818359375
6.5499999,4.687847137451172,-8.571242332458496,1.2521674633026123,-2.3040771484375,-1.5106201171875,0.0457763671875
6.569999900000001,4.663905143737793,-8.583212852478027,1.2545616626739502,-3.0364990234375,1.739501953125,-2.0294189453125
6.5899999000000005,4.671087741851807,-8.59997272491455,1.2497732639312744,-3.60107421875,3.570556640625,-3.5552978515625
6.609999900000001,4.67827033996582,-8.607154846191406,1.2761094570159912,-4.3182373046875,1.129150390625,-3.0975341796875
6.6299999000000005,4.687847137451172,-8.578424453735352,1.2832920551300049,-5.2337646484375,-1.7547607421875,-2.197265625
6.649999900000001,4.692635536193848,-8.614337921142578,1.3072341680526733,-5.4779052734375,-1.6021728515625,-2.3345947265625
6.6699999000000005,4.716577529907227,-8.580819129943848,1.3287819623947144,-5.401611328125,0.5950927734375,-3.2958984375
6.6899999,4.730942726135254,-8.564059257507324,1.3000515699386597,-5.3558349609375,1.7852783203125,-2.838134765625
6.709999900000001,4.730942726135254,-8.571242332458496,1.2976573705673218,-5.035400390625,-0.6561279296875,-0.5340576171875
6.7299999,4.709394931793213,-8.576030731201172,1.2186486721038818,-4.3487548828125,-2.6092529296875,0.4730224609375
6.749999900000001,4.666299343109131,-8.576030731201172,1.1779472827911377,-2.7313232421875,-0.8697509765625,-1.15966796875
6.7699999,4.642356872558594,-8.62391471862793,1.1204863786697388,-0.7781982421875,0.1373291015625,-2.3651123046875
6.789999900000001,4.630385875701904,-8.611943244934082,1.1061211824417114,0.2899169921875,-1.800537109375,-0.6103515625
6.8099999,4.649539470672607,-8.628703117370605,1.1109095811843872,0.3204345703125,-2.532958984375,1.5869140625
6.829999900000001,4.659116744995117,-8.62630844116211,1.1252747774124146,0.885009765625,-0.518798828125,1.9989013671875
6.8499999,4.668693542480469,-8.604761123657227,1.1228805780410767,1.4495849609375,-0.9613037109375,1.983642578125
6.869999900000001,4.67827033996582,-8.573636054992676,1.1276689767837524,1.4495849609375,-3.1585693359375,2.25830078125
6.8899999,4.67827033996582,-8.518569946289062,1.1109095811843872,0.79345703125,-3.90625,1.8157958984375
6.909999900000001,4.685452938079834,-8.506598472595215,1.113303780555725,-0.0457763671875,-1.8463134765625,0.9613037109375
6.9299999,4.685452938079834,-8.506598472595215,1.1037269830703735,-1.0223388671875,0.030517578125,0
6.949999900000001,4.683058738708496,-8.544905662536621,1.1085153818130493,-1.7242431640625,0.8544921875,-0.518798828125
6.9699999,4.67827033996582,-8.578424453735352,1.0845733880996704,-1.9073486328125,0.6866455078125,-0.7781982421875
6.989999900000001,4.69024133682251,-8.62630844116211,1.0749965906143188,-1.8310546875,-0.5645751953125,-0.5035400390625
7.0099999,4.69024133682251,-8.60236644744873,1.072602391242981,-1.6326904296875,-0.457763671875,-0.54931640625
7.029999900000001,4.72376012802124,-8.592789649963379,1.0558429956436157,-1.434326171875,1.3580322265625,-0.7171630859375
7.0499999,4.738125324249268,-8.564059257507324,1.0749965906143188,-1.2664794921875,0.6866455078125,0.640869140625
7.069999900000001,4.747702121734619,-8.547300338745117,1.0749965906143188,-1.2359619140625,-1.068115234375,2.685546875
7.0899999000000005,4.7405195236206055,-8.53532886505127,1.091755986213684,-0.7476806640625,-0.823974609375,2.7618408203125
7.109999900000001,4.707000732421875,-8.580819129943848,1.094150185585022,0.1678466796875,0.823974609375,1.7852783203125
7.1299999000000005,4.6734819412231445,-8.573636054992676,1.1013327836990356,0.7781982421875,1.312255859375,1.4801025390625
7.149999900000001,4.63517427444458,-8.619126319885254,1.0989385843276978,0.946044921875,1.2664794921875,1.3275146484375
7.1699999000000005,4.611232280731201,-8.614337921142578,1.1037269830703735,1.251220703125,1.2664794921875,0.9765625
7.1899999,4.5825018882751465,-8.614337921142578,1.1204863786697388,0.885009765625,-0.5950927734375,1.28173828125
7.209999900000001,4.577713489532471,-8.611943244934082,1.1348515748977661,-0.335693359375,-2.105712890625,2.01416015625
7.2299999,4.55616569519043,-8.635885238647461,1.161187767982483,-1.739501953125,-2.0751953125,1.861572265625
7.249999900000001,4.575319290161133,-8.611943244934082,1.1683704853057861,-2.7008056640625,0.0762939453125,0.244140625
7.2699999,4.568136692047119,-8.643068313598633,1.173158884048462,-2.8533935546875,1.89208984375,-1.4190673828125
7.289999900000001,4.587290287017822,-8.604761123657227,1.1468225717544556,-2.3956298828125,-0.1678466796875,-0.7171630859375
7.3099999,4.599261283874512,-8.633491516113281,1.1252747774124146,-2.1820068359375,-2.0599365234375,0.640869140625
7.329999900000001,4.599261283874512,-8.645462036132812,1.0845733880996704,-1.9378662109375,-1.4190673828125,-0.2899169921875
7.3499999,4.606443881988525,-8.667010307312012,1.072602391242981,-1.9073486328125,-0.1678466796875,-2.0904541015625
7.369999900000001,4.6040496826171875,-8.695740699768066,1.0821791887283325,-2.99072265625,-1.953125,-2.2125244140625
7.3899999,4.611232280731201,-8.643068313598633,1.137245774269104,-5.3253173828125,-2.5787353515625,-1.1749267578125
7.409999900000001,4.613626480102539,-8.616731643676758,1.1851298809051514,-9.2010498046875,2.685546875,-2.7923583984375
7.4299999,4.596867084503174,-8.53293514251709,1.2282254695892334,-12.939453125,7.537841796875,-5.615234375
7.449999900000001,4.558559894561768,-8.506598472595215,1.2042834758758545,-12.7410888671875,1.2359619140625,-5.950927734375
7.4699999,4.491522312164307,-8.449137687683105,1.1563993692398071,-11.7340087890625,-7.9803466796875,-5.462646484375
7.489999900000001,4.4723687171936035,-8.540117263793945,1.0654197931289673,-10.68115234375,-9.0789794921875,-7.3089599609375
7.5099999,4.489128112792969,-8.5903959274292,0.9385270476341248,-9.1400146484375,-4.5318603515625,-9.185791015625
7.529999900000001,4.584896087646484,-8.686163902282715,0.8643068075180054,-7.6904296875,-2.4261474609375,-7.476806640625
7.5499999,4.675876140594482,-8.71489429473877,0.7637503147125244,-6.89697265625,-6.8511962890625,-3.021240234375
7.569999900000001,4.797980308532715,-8.676587104797363,0.7326257228851318,-6.6375732421875,-10.25390625,-0.79345703125
7.5899999000000005,4.888959884643555,-8.604761123657227,0.6967126727104187,-5.5084228515625,-4.425048828125,-1.77001953125
7.609999900000001,4.960785865783691,-8.549694061279297,0.6320692300796509,-2.899169921875,3.9215087890625,-2.1209716796875
7.6299999000000005,4.975151062011719,-8.528146743774414,0.5339069962501526,0.6256103515625,-0.0457763671875,0.1983642578125
7.649999900000001,4.953603267669678,-8.520963668823242,0.4596867263317108,2.9449462890625,-12.4053955078125,3.3416748046875
7.6699999000000005,4.922478675842285,-8.49941635131836,0.40940847992897034,2.899169921875,-16.9677734375,3.8299560546875
7.6899999,4.900930881500244,-8.497021675109863,0.4620809257030487,1.3427734375,-7.659912109375,1.129150390625
7.709999900000001,4.90571928024292,-8.504204750061035,0.49559974670410156,-1.03759765625,3.47900390625,-0.6866455078125
7.7299999,4.922478675842285,-8.537723541259766,0.5363011956214905,-2.532958984375,4.7454833984375,0.1678466796875
7.749999900000001,4.9152960777282715,-8.59997272491455,0.5147533416748047,-2.288818359375,3.2196044921875,1.1138916015625
7.7699999,4.888959884643555,-8.650250434875488,0.47405192255973816,-1.0986328125,3.8604736328125,0.885009765625
7.789999900000001,4.865017890930176,-8.681375503540039,0.43335050344467163,0.3662109375,3.8909912109375,0.1373291015625
7.8099999,4.850652694702148,-8.705317497253418,0.44532153010368347,1.1444091796875,2.4566650390625,0.1983642578125
7.829999900000001,4.8602294921875,-8.712499618530273,0.4692635238170624,1.8463134765625,1.7852783203125,1.8768310546875
7.8499999,4.896142482757568,-8.71728801727295,0.5554547905921936,2.6397705078125,2.6397705078125,4.9896240234375
7.869999900000001,4.912901878356934,-8.712499618530273,0.6248866319656372,3.265380859375,5.218505859375,7.14111328125
7.8899999,4.917690277099609,-8.698134422302246,0.6775590777397156,4.8828125,8.6517333984375,7.080078125
7.909999900000001,4.850652694702148,-8.700529098510742,0.6727706789970398,7.965087890625,7.5225830078125,7.3089599609375
7.9299999,4.788403511047363,-8.69095230102539,0.6392518281936646,11.0321044921875,3.35693359375,8.5296630859375
7.949999900000001,4.6950297355651855,-8.69095230102539,0.6129156351089478,13.214111328125,2.7313232421875,9.1400146484375
7.9699999,4.649539470672607,-8.683769226074219,0.6224924325942993,14.3280029296875,3.72314453125,9.307861328125
7.989999900000001,4.592078685760498,-8.686163902282715,0.667982280254364,13.9923095703125,3.84521484375,10.650634765625
8.0099999,4.537012100219727,-8.69334602355957,0.7158663272857666,13.73291015625,-0.1373291015625,12.8021240234375
8.0299999,4.505887508392334,-8.650250434875488,0.7805097699165344,15.1824951171875,-5.645751953125,13.9312744140625
8.049999900000001,4.4723687171936035,-8.640673637390137,0.8523358106613159,16.876220703125,-4.4708251953125,13.7786865234375
8.069999900000001,4.378994941711426,-8.683769226074219,0.8164227604866028,17.7459716796875,-2.1514892578125,13.519287109375
8.0899999,4.259284973144531,-8.884882926940918,0.6368576288223267,30.5633544921875,-9.918212890625,12.847900390625
8.1099999,4.225766181945801,-9.093177795410156,0.5171475410461426,60.7757568359375,-21.1639404296875,10.162353515625
8.129999900000001,4.247313976287842,-9.315838813781738,0.5003881454467773,75.927734375,-11.23046875,11.9781494140625
8.149999900000001,4.455609321594238,-9.284713745117188,0.8403648138046265,64.9871826171875,7.01904296875,17.791748046875
8.1699999,4.6950297355651855,-9.05487060546875,1.4508862495422363,45.95947265625,18.61572265625,25.054931640625
8.1899999,4.795586109161377,-8.681375503540039,2.1045033931732178,27.64892578125,20.6298828125,27.7252197265625
8.2099999,4.668693542480469,-8.283937454223633,2.5785553455352783,11.90185546875,17.08984375,24.566650390625
8.229999900000001,4.350264549255371,-7.9631147384643555,2.808398485183716,0.4119873046875,7.110595703125,17.4713134765625
8.2499999,3.9384617805480957,-7.805097579956055,2.8347349166870117,-8.4075927734375,-2.655029296875,6.9580078125
8.2699999,3.5936968326568604,-7.812280178070068,2.741360902786255,-16.9677734375,-1.922607421875,-2.99072265625
8.2899999,3.4141316413879395,-7.970297336578369,2.607285737991333,-24.566650390625,7.080078125,-9.27734375
8.309999900000001,3.40216064453125,-8.238448143005371,2.4636335372924805,-29.7393798828125,15.716552734375,-11.5966796875
8.3299999,3.4979286193847656,-8.544905662536621,2.2912509441375732,-32.0587158203125,18.1732177734375,-10.7574462890625
8.3499999,3.622427225112915,-8.829815864562988,2.0877439975738525,-31.1126708984375,14.3280029296875,-8.85009765625
8.3699999,3.734954595565796,-9.05487060546875,1.8698714971542358,-27.1148681640625,8.3160400390625,-7.5225830078125
8.389999900000001,3.821146011352539,-9.205705642700195,1.6615760326385498,-20.8740234375,3.47900390625,-6.072998046875
8.4099999,3.8953661918640137,-9.289502143859863,1.4963760375976562,-14.22119140625,-0.213623046875,-4.1351318359375
8.4299999,3.957615375518799,-9.32302188873291,1.3766659498214722,-7.6904296875,-2.44140625,-2.166748046875
8.4499999,4.0078935623168945,-9.318233489990234,1.3048399686813354,-1.2359619140625,-2.685546875,-0.579833984375
8.469999900000001,4.043806552886963,-9.284713745117188,1.2713210582733154,4.57763671875,-2.044677734375,0.5035400390625
8.4899999,4.072536945343018,-9.220070838928223,1.280897855758667,9.09423828125,-2.532958984375,1.0223388671875
8.5099999,4.091690540313721,-9.136273384094238,1.3263877630233765,11.8408203125,-3.3721923828125,1.0986328125
8.5299999,4.1180267333984375,-9.040505409240723,1.41257905960083,12.2222900390625,-2.6092529296875,1.007080078125
8.549999900000001,4.134786128997803,-8.947132110595703,1.5107412338256836,10.986328125,0.30517578125,0.8392333984375
8.569999900000001,4.137180328369141,-8.860940933227539,1.6041151285171509,8.6822509765625,2.105712890625,0.48828125
8.5899999,4.125209331512451,-8.786720275878906,1.678335428237915,6.1492919921875,1.129150390625,-0.5340576171875
8.6099999,4.106055736541748,-8.7268648147583,1.7262194156646729,3.7994384765625,0.4119873046875,-2.3956298828125
8.629999900000001,4.094084739685059,-8.678980827331543,1.7549498081207275,1.5716552734375,2.7008056640625,-4.21142578125
8.649999900000001,4.101267337799072,-8.65743350982666,1.766920804977417,-0.4425048828125,4.3792724609375,-4.669189453125
8.6699999,4.1156325340271,-8.65982723236084,1.7621324062347412,-2.3651123046875,3.60107421875,-3.72314453125
8.6899999,4.129997730255127,-8.674192428588867,1.742978811264038,-3.692626953125,2.899169921875,-2.9144287109375
8.709999900000001,4.141968727111816,-8.695740699768066,1.7166426181793213,-4.1656494140625,4.608154296875,-3.265380859375
8.729999900000001,4.14915132522583,-8.722076416015625,1.6855180263519287,-3.875732421875,6.5155029296875,-3.6163330078125
8.7499999,4.144362926483154,-8.7484130859375,1.6496049165725708,-2.8839111328125,5.462646484375,-2.2735595703125
8.7699999,4.132391929626465,-8.78193187713623,1.6184803247451782,-1.129150390625,3.2501220703125,-0.732421875
8.7899999,4.10366153717041,-8.813055992126465,1.5873557329177856,1.129150390625,2.716064453125,-0.4119873046875
8.809999900000001,4.082113742828369,-8.83699893951416,1.577778935432434,3.021240234375,3.2958984375,-0.7781982421875
8.8299999,4.072536945343018,-8.848969459533691,1.5921441316604614,4.0130615234375,4.45556640625,-1.0986328125
8.8499999,4.072536945343018,-8.844181060791016,1.6304513216018677,4.45556640625,5.645751953125,-0.9613037109375
8.8699999,4.077325344085693,-8.827422142028809,1.678335428237915,4.2877197265625,5.2642822265625,-0.3204345703125
8.889999900000001,4.079719543457031,-8.801085472106934,1.7286136150360107,4.0740966796875,3.143310546875,0.1373291015625
8.9099999,4.07014274597168,-8.767566680908203,1.7717092037200928,3.47900390625,1.64794921875,0.06103515625
8.9299999,4.07014274597168,-8.729259490966797,1.8171991109848022,2.044677734375,1.9378662109375,-0.5950927734375
8.9499999,4.07014274597168,-8.700529098510742,1.8531121015548706,0.274658203125,5.401611328125,-2.166748046875
8.969999900000001,4.0749311447143555,-8.678980827331543,1.8818424940109253,-1.1444091796875,7.0343017578125,-3.173828125
8.9899999,4.067748546600342,-8.676587104797363,1.8938134908676147,-3.7994384765625,1.953125,-2.0751953125
9.0099999,4.062960147857666,-8.683769226074219,1.8842366933822632,-4.5928955078125,2.105712890625,-2.3956298828125
9.0299999,4.062960147857666,-8.695740699768066,1.8602946996688843,-5.2032470703125,3.509521484375,-3.11279296875
9.049999900000001,4.0749311447143555,-8.712499618530273,1.8363527059555054,-5.462646484375,3.5858154296875,-3.509521484375
9.069999900000001,4.086902141571045,-8.731653213500977,1.802833914756775,-5.157470703125,2.25830078125,-2.899169921875
9.0899999,4.101267337799072,-8.753201484680176,1.7717092037200928,-4.8675537109375,0.48828125,-1.9683837890625
9.1099999,4.113238334655762,-8.765172004699707,1.742978811264038,-4.364013671875,0.5340576171875,-2.13623046875
9.129999900000001,4.129997730255127,-8.765172004699707,1.7166426181793213,-3.7384033203125,2.410888671875,-3.3416748046875
9.149999900000001,4.151545524597168,-8.746018409729004,1.7070658206939697,-3.60107421875,4.8675537109375,-4.3487548828125
9.1699999,4.175487995147705,-8.729259490966797,1.7070658206939697,-3.3721923828125,6.8359375,-5.035400390625
9.1899999,4.185064792633057,-8.698134422302246,1.7190368175506592,-2.62451171875,4.39453125,-5.645751953125
9.209999900000001,4.220977783203125,-8.652645111083984,1.7764976024627686,-3.082275390625,2.4871826171875,-7.62939453125
9.229999900000001,4.323928356170654,-8.607154846191406,2.011129379272461,-5.67626953125,12.451171875,-10.284423828125
9.2499999,4.422090530395508,-8.434772491455078,2.3726539611816406,-21.7742919921875,37.8265380859375,-9.8114013671875
9.2699999,4.446032524108887,-8.216899871826172,2.58813214302063,-52.581787109375,53.4210205078125,-8.026123046875
9.2899999,4.2951979637146,-8.044517517089844,2.6144683361053467,-64.788818359375,31.4788818359375,-11.993408203125
9.309999900000001,4.027047157287598,-8.003816604614258,2.205059766769409,-58.929443359375,2.9144287109375,-19.622802734375
9.3299999,3.7612907886505127,-8.192957878112793,1.6041151285171509,-44.6014404296875,-19.4244384765625,-22.064208984375
9.3499999,3.711012601852417,-8.609549522399902,1.0438719987869263,-33.14208984375,-24.6429443359375,-20.4010009765625
9.3699999,3.883395195007324,-9.014169692993164,0.6344634294509888,-23.651123046875,-8.5601806640625,-17.3492431640625
9.389999900000001,4.180276393890381,-9.339780807495117,0.42377370595932007,-12.3291015625,3.5247802734375,-10.8184814453125
9.4099999,4.469974517822266,-9.509769439697266,0.304063618183136,-0.9613037109375,-8.9874267578125,-0.701904296875
9.4299999,4.687847137451172,-9.519346237182617,0.3208230137825012,7.232666015625,-27.8167724609375,6.9427490234375
9.4499999,4.838681697845459,-9.375694274902344,0.4118026793003082,11.23046875,-27.313232421875,8.3160400390625
9.469999900000001,4.891354084014893,-9.184157371520996,0.5482721924781799,13.3056640625,-7.0343017578125,5.1727294921875
9.4899999,4.881777286529541,-8.944737434387207,0.7038952708244324,14.4500732421875,0.8544921875,3.35693359375
9.5099999,4.821922302246094,-8.69334602355957,0.8188169598579407,13.18359375,-10.223388671875,4.547119140625
9.5299999,4.73573112487793,-8.508993148803711,0.9265560507774353,9.5977783203125,-14.95361328125,4.9896240234375
9.549999900000001,4.661510944366455,-8.358158111572266,1.0127472877502441,5.43212890625,-6.378173828125,2.8228759765625
9.569999900000001,4.606443881988525,-8.286332130432129,1.0678139925003052,1.1138916015625,1.5869140625,0.0762939453125
9.5899999,4.541800498962402,-8.291120529174805,1.0965443849563599,-3.5552978515625,-5.615234375,-0.030517578125
9.6099999,4.481945514678955,-8.35336971282959,1.070208191871643,-7.5836181640625,-10.162353515625,-0.7476806640625
9.629999900000001,4.458003520965576,-8.453926086425781,1.036689281463623,-8.72802734375,-3.5400390625,-3.96728515625
9.649999900000001,4.4723687171936035,-8.56884765625,0.9911994934082031,-8.36181640625,1.6021728515625,-5.6915283203125
9.6699999,4.525041103363037,-8.678980827331543,0.9145850539207458,-8.4686279296875,-0.5645751953125,-3.204345703125
9.6899999,4.55616569519043,-8.774748802185059,0.828393816947937,-8.3770751953125,-3.8604736328125,-0.335693359375
9.709999900000001,4.58968448638916,-8.863334655761719,0.6967126727104187,-6.0577392578125,-1.983642578125,-0.9307861328125
9.729999900000001,4.584896087646484,-8.89445972442627,0.6105214357376099,-2.0599365234375,-2.685546875,-1.64794921875
9.7499999,4.584896087646484,-8.916007041931152,0.5530605912208557,0.274658203125,-8.697509765625,0.518798828125
9.7699999,4.587290287017822,-8.9064302444458,0.5650315880775452,0.244140625,-10.68115234375,3.1280517578125
9.7899999,4.592078685760498,-8.89445972442627,0.6129156351089478,0.2288818359375,-4.9285888671875,3.2806396484375
9.809999900000001,4.6040496826171875,-8.901641845703125,0.6248866319656372,2.166748046875,2.685546875,2.288818359375
9.8299999,4.587290287017822,-8.93037223815918,0.5793967843055725,6.4544677734375,6.0577392578125,2.349853515625
9.8499999,4.469974517822266,-8.975862503051758,0.43095630407333374,13.5345458984375,2.4871826171875,2.227783203125
9.8699999,4.364629745483398,-9.040505409240723,0.17477671802043915,22.8271484375,-6.591796875,2.3193359375
9.889999900000001,4.247313976287842,-9.32541561126709,-0.2346317619085312,39.5660400390625,-23.4222412109375,6.40869140625
9.9099999,4.32871675491333,-9.442731857299805,-0.36152446269989014,72.4334716796875,-32.8369140625,12.8631591796875
9.9299999,4.553771495819092,-9.581595420837402,-0.3734954595565796,94.7265625,-24.4598388671875,22.705078125
9.9499999,4.8937482833862305,-9.394847869873047,0.14844051003456116,88.165283203125,-9.27734375,31.5399169921875
9.969999900000001,5.171475887298584,-8.947132110595703,0.9385270476341248,66.986083984375,4.0435791015625,37.689208984375
9.9899999,5.228936672210693,-8.374917984008789,1.8148049116134644,42.8619384765625,14.2974853515625,39.6270751953125
10.0099999,4.999093055725098,-7.8314337730407715,2.535459518432617,19.9737548828125,17.9443359375,35.6903076171875
10.0299999,4.527435302734375,-7.441178798675537,2.9712042808532715,1.373291015625,13.73291015625,26.06201171875
10.049999900000001,3.9480385780334473,-7.2783732414245605,3.1076738834381104,-13.3514404296875,8.7890625,13.0615234375
10.069999900000001,3.4189200401306152,-7.354987621307373,2.999934673309326,-25.299072265625,8.85009765625,1.2054443359375
10.0899999,3.0621838569641113,-7.63989782333374,2.7557260990142822,-33.782958984375,11.1846923828125,-7.110595703125
10.1099999,2.9161376953125,-8.066065788269043,2.451662540435791,-38.787841796875,12.9241943359375,-11.9781494140625
10.129999900000001,2.96162748336792,-8.537723541259766,2.145204782485962,-40.5120849609375,13.8092041015625,-13.397216796875
10.149999900000001,3.1292216777801514,-8.983044624328613,1.8579005002975464,-39.215087890625,13.73291015625,-12.4664306640625
10.1699999,3.35667085647583,-9.344569206237793,1.6089035272598267,-34.8052978515625,12.0391845703125,-10.101318359375
10.1899999,3.581725835800171,-9.593565940856934,1.3886369466781616,-27.6641845703125,8.48388671875,-7.26318359375
10.209999900000001,3.7660791873931885,-9.727641105651855,1.1994950771331787,-18.3868408203125,4.2572021484375,-4.6234130859375
10.229999900000001,3.9001545906066895,-9.765948295593262,1.048660397529602,-8.148193359375,0.06103515625,-2.3651123046875
10.2499999,3.9863457679748535,-9.730035781860352,0.9481038451194763,1.28173828125,-3.3416748046875,0.0152587890625
10.2699999,4.046200752258301,-9.641449928283691,0.9050082564353943,9.2010498046875,-5.7525634765625,2.166748046875
10.2899999,4.084507942199707,-9.514557838439941,0.9241618514060974,15.1214599609375,-6.622314453125,3.41796875
10.309999900000001,4.1180267333984375,-9.370905876159668,1.0007762908935547,18.402099609375,-4.638671875,3.41796875
10.3299999,4.134786128997803,-9.222464561462402,1.113303780555725,19.134521484375,-0.1983642578125,2.6397705078125
10.3499999,4.132391929626465,-9.08838939666748,1.2401964664459229,18.3563232421875,3.448486328125,2.197265625
10.3699999,4.098873138427734,-8.980650901794434,1.357512354850769,16.8609619140625,4.1961669921875,1.9378662109375
10.389999900000001,4.050989151000977,-8.89445972442627,1.4652514457702637,14.678955078125,4.8828125,0.701904296875
10.4099999,3.998316764831543,-8.822632789611816,1.558625340461731,11.7034912109375,7.2479248046875,-1.068115234375
10.4299999,3.9624037742614746,-8.772355079650879,1.647210717201233,8.0413818359375,9.6893310546875,-1.861572265625
10.4499999,3.928884983062744,-8.736441612243652,1.721431016921997,3.8604736328125,10.406494140625,-0.6561279296875
10.469999900000001,3.890577793121338,-8.722076416015625,1.7693150043487549,0.2899169921875,9.2010498046875,0.8087158203125
10.4899999,3.840299606323242,-8.71728801727295,1.7980455160140991,-2.0751953125,8.331298828125,0.1220703125
10.5099999,3.799597978591919,-8.71728801727295,1.8076223134994507,-3.509521484375,9.613037109375,-2.1514892578125
10.5299999,3.773261785507202,-8.7268648147583,1.8171991109848022,-4.33349609375,10.6201171875,-2.9144287109375
10.549999900000001,3.758896589279175,-8.7484130859375,1.8171991109848022,-4.8828125,9.6893310546875,-1.1749267578125
10.569999900000001,3.754108190536499,-8.78432559967041,1.8171991109848022,-5.06591796875,8.1634521484375,0.2899169921875
10.5899999,3.737348794937134,-8.827422142028809,1.8052281141281128,-4.1046142578125,7.26318359375,0.030517578125
10.6099999,3.7253777980804443,-8.87291145324707,1.7932571172714233,-2.655029296875,5.645751953125,-0.3662109375
10.629999900000001,3.7181951999664307,-8.911218643188477,1.7884687185287476,-1.5411376953125,4.0435791015625,0.244140625
10.649999900000001,3.7229835987091064,-8.939949035644531,1.7908629179000854,-0.1983642578125,4.364013671875,0.701904296875
10.6699999,3.7277719974517822,-8.96389102935791,1.7956513166427612,1.220703125,5.523681640625,-0.0457763671875
10.6899999,3.7421371936798096,-8.973467826843262,1.8100165128707886,2.3345947265625,5.3863525390625,-0.7476806640625
10.709999900000001,3.758896589279175,-8.975862503051758,1.8267759084701538,2.8533935546875,4.7760009765625,-0.5340576171875
10.729999900000001,3.7660791873931885,-8.96389102935791,1.8507179021835327,2.6397705078125,4.241943359375,0.3814697265625
10.7499999,3.7469255924224854,-8.923190116882324,1.8794482946395874,1.983642578125,4.241943359375,-0.732421875
10.7699999,3.687070608139038,-8.856152534484863,1.9129672050476074,1.4190673828125,4.9285888671875,-5.43212890625
10.7899999,3.6320040225982666,-8.762778282165527,1.9800047874450684,-0.274658203125,7.232666015625,-11.962890625
10.809999900000001,3.7014358043670654,-8.59997272491455,2.2026655673980713,-4.1656494140625,15.0146484375,-18.218994140625
10.8299999,3.797203779220581,-8.40843677520752,2.4396915435791016,-23.0865478515625,34.7442626953125,-21.331787109375
10.8499999,3.8953661918640137,-8.248024940490723,2.6862943172454834,-54.046630859375,43.670654296875,-18.7530517578125
10.8699999,3.9025487899780273,-8.188169479370117,2.6455929279327393,-67.2607421875,24.444580078125,-19.53125
10.889999900000001,3.8115692138671875,-8.300697326660156,2.31758713722229,-62.68310546875,-2.6397705078125,-22.5372314453125
10.9099999,3.711012601852417,-8.647856712341309,1.7142484188079834,-47.210693359375,-17.120361328125,-23.590087890625
10.9299999,3.734954595565796,-8.954314231872559,1.113303780555725,-30.853271484375,-18.402099609375,-20.8740234375
10.9499999,3.931279182434082,-9.41639518737793,0.6033388376235962,-15.9454345703125,-10.8642578125,-15.9912109375
10.969999900000001,4.206612586975098,-9.655815124511719,0.31364041566848755,-3.11279296875,-4.5318603515625,-8.8043212890625
10.9899999,4.481945514678955,-9.775525093078613,0.22505496442317963,6.805419921875,-3.6468505859375,-0.0457763671875
11.0099999,4.651933670043945,-9.684545516967773,0.26575639843940735,15.5181884765625,-4.180908203125,6.103515625
11.0299999,4.675876140594482,-9.41639518737793,0.4357447028160095,21.9268798828125,-10.3912353515625,9.09423828125
11.049999900000001,4.606443881988525,-9.081207275390625,0.6703764796257019,23.6358642578125,-15.13671875,9.1552734375
11.069999900000001,4.5154643058776855,-8.793902397155762,0.9385270476341248,21.97265625,-9.6588134765625,6.3018798828125
11.0899999,4.436455726623535,-8.60236644744873,1.1875240802764893,18.7225341796875,0.1678466796875,3.8909912109375
11.1099999,4.350264549255371,-8.485051155090332,1.3862427473068237,13.2904052734375,1.5716552734375,3.692626953125
11.129999900000001,4.28322696685791,-8.429984092712402,1.5107412338256836,5.615234375,-4.547119140625,3.84521484375
11.149999900000001,4.213795185089111,-8.38449478149414,1.5682021379470825,-1.8463134765625,-5.18798828125,2.01416015625
11.1699999,4.163516521453857,-8.372523307800293,1.5658079385757446,-7.0343017578125,0.67138671875,-0.9918212890625
11.1899999,4.1395745277404785,-8.372523307800293,1.5298948287963867,-10.4827880859375,3.4637451171875,-2.716064453125
11.209999900000001,4.113238334655762,-8.434772491455078,1.460463047027588,-13.5345458984375,-0.6561279296875,-2.7008056640625
11.229999900000001,4.086902141571045,-8.542511940002441,1.3431471586227417,-14.984130859375,-5.4779052734375,-2.44140625
11.2499999,4.079719543457031,-8.674192428588867,1.2090718746185303,-13.5040283203125,-4.791259765625,-3.3416748046875
11.2699999,4.110844135284424,-8.803479194641113,1.0773907899856567,-10.2386474609375,-0.701904296875,-4.3487548828125
11.2899999,4.156333923339844,-8.911218643188477,0.9744400978088379,-6.8817138671875,-1.0833740234375,-3.265380859375
11.309999900000001,4.223371982574463,-8.98543930053711,0.8954314589500427,-3.814697265625,-5.1727294921875,-1.2969970703125
11.3299999,4.2951979637146,-9.040505409240723,0.8547300100326538,-0.2593994140625,-5.5389404296875,-0.8087158203125
11.3499999,4.355052947998047,-9.083600997924805,0.8259995579719543,2.9144287109375,-3.41796875,-0.1678466796875
11.3699999,4.4292731285095215,-9.08838939666748,0.8379706144332886,5.035400390625,-1.251220703125,1.2054443359375
11.389999900000001,4.455609321594238,-9.069235801696777,0.8810662031173706,6.40869140625,-0.5035400390625,2.4261474609375
11.4099999,4.46518611907959,-9.016563415527344,0.950498104095459,6.7291259765625,-1.52587890625,2.7313232421875
11.4299999,4.438849925994873,-8.937555313110352,1.0295066833496094,5.584716796875,-1.373291015625,2.50244140625
11.4499999,4.3861775398254395,-8.87291145324707,1.0989385843276978,3.23486328125,-1.2054443359375,2.5482177734375
11.469999900000001,4.338293552398682,-8.789113998413086,1.1468225717544556,1.1138916015625,-0.2593994140625,1.9989013671875
11.4899999,4.290409564971924,-8.729259490966797,1.192312479019165,-0.4425048828125,0.946044921875,0.823974609375
11.5099999,4.24970817565918,-8.671798706054688,1.235408067703247,-2.288818359375,0.54931640625,-0.06103515625
11.5299999,4.2090067863464355,-8.647856712341309,1.2617442607879639,-4.45556640625,-0.5645751953125,-0.335693359375
11.549999900000001,4.180276393890381,-8.65743350982666,1.2521674633026123,-6.16455078125,-2.3345947265625,0.5950927734375
11.569999900000001,4.170699596405029,-8.681375503540039,1.1827356815338135,-6.561279296875,-2.044677734375,0.8544921875
11.5899999,4.156333923339844,-8.729259490966797,1.1037269830703735,-5.06591796875,-0.274658203125,0.42724609375
11.6099999,4.168305397033691,-8.757989883422852,1.015141487121582,-3.662109375,-2.5177001953125,0.823974609375
11.629999900000001,4.175487995147705,-8.796297073364258,0.9624691009521484,-3.021240234375,-5.3558349609375,0.7781982421875
11.649999900000001,4.201824188232422,-8.834604263305664,0.9481038451194763,-2.166748046875,-4.94384765625,-0.457763671875
11.6699999,4.24970817565918,-8.863334655761719,0.9313444495201111,-0.9613037109375,-2.3040771484375,-0.79345703125
11.6899999,4.273650169372559,-8.916007041931152,0.9050082564353943,-0.579833984375,-2.4566650390625,0.9002685546875
11.709999900000001,4.309563159942627,-8.937555313110352,0.8882488012313843,-1.3275146484375,-5.096435546875,2.1514892578125
11.729999900000001,4.32871675491333,-8.96149730682373,0.8738836050033569,-1.8310546875,-3.0517578125,0.701904296875
11.7499999,4.338293552398682,-8.98543930053711,0.8906430602073669,-1.495361328125,1.5106201171875,-0.9307861328125
11.7699999,4.350264549255371,-9.011775016784668,0.8571242094039917,-0.701904296875,2.655029296875,-0.3509521484375
11.7899999,4.316745758056641,-9.038111686706543,0.8068459630012512,1.89208984375,-1.3885498046875,1.1444091796875
11.809999900000001,4.244919776916504,-9.030928611755371,0.6799532771110535,5.0506591796875,-5.9356689453125,1.15966796875
11.8299999,4.1874589920043945,-8.990227699279785,0.5889736413955688,9.8419189453125,-8.3160400390625,-0.396728515625
11.8499999,4.1180267333984375,-9.196128845214844,0.2801215946674347,19.775390625,-12.4969482421875,2.3345947265625
11.8699999,4.170699596405029,-9.253589630126953,0.11013327538967133,50.2777099609375,-21.026611328125,9.09423828125
11.889999900000001,4.32871675491333,-9.473855972290039,-0.011971008032560349,77.8656005859375,-24.3377685546875,19.561767578125
11.9099999,4.568136692047119,-9.423578262329102,0.1628057211637497,78.9642333984375,-13.7481689453125,29.388427734375
11.9299999,4.824316501617432,-9.167398452758789,0.6943184733390808,65.4296875,3.35693359375,36.041259765625
11.9499999,4.941632270812988,-8.757989883422852,1.381454348564148,49.1180419921875,17.02880859375,39.642333984375
11.969999900000001,4.831499099731445,-8.327033042907715,2.0015525817871094,33.99658203125,21.4385986328125,38.970947265625
11.9899999,4.49870491027832,-7.989450931549072,2.4229321479797363,22.4609375,17.1966552734375,33.660888671875
12.0099999,4.022258758544922,-7.817068576812744,2.612074136734009,13.4735107421875,13.671875,25.3143310546875
12.0299999,3.550601005554199,-7.841010570526123,2.626439332962036,6.2713623046875,13.275146484375,17.2576904296875
12.049999900000001,3.1938650608062744,-8.037335395812988,2.5713725090026855,1.434326171875,11.8408203125,12.298583984375
12.069999900000001,3.004723072052002,-8.341399192810059,2.5091233253479004,-2.655029296875,13.5955810546875,10.345458984375
12.0899999,2.959233283996582,-8.681375503540039,2.4684219360351562,-6.2103271484375,20.3094482421875,10.1318359375
12.1099999,2.985569477081299,-8.983044624328613,2.4396915435791016,-8.209228515625,24.383544921875,11.3525390625
12.129999900000001,3.021482467651367,-9.208099365234375,2.3918075561523438,-7.232666015625,21.331787109375,13.1378173828125
12.149999900000001,3.0166940689086914,-9.342175483703613,2.3056161403656006,-3.0364990234375,13.4124755859375,14.617919921875
12.1699999,2.9688100814819336,-9.385271072387695,2.1978771686553955,2.899169921875,5.9051513671875,15.6402587890625
12.1899999,2.896984100341797,-9.366117477416992,2.099714994430542,8.9874267578125,0.54931640625,15.960693359375
12.209999900000001,2.8443117141723633,-9.301473617553711,2.032677173614502,14.434814453125,-2.8228759765625,15.167236328125
12.229999900000001,2.8347349166870117,-9.21288776397705,2.006340980529785,19.683837890625,-3.0670166015625,14.2974853515625
12.2499999,2.87064790725708,-9.119514465332031,1.9943699836730957,24.5819091796875,-1.556396484375,15.6707763671875
12.2699999,2.9233202934265137,-9.028534889221191,1.9752163887023926,28.7933349609375,-2.838134765625,20.050048828125
12.289999900000002,2.9735984802246094,-8.951920509338379,1.920149803161621,33.203125,-7.2479248046875,25.6500244140625
12.309999900000001,2.9927520751953125,-8.875306129455566,1.8076223134994507,38.8031005859375,-11.6729736328125,31.036376953125
12.3299999,2.985569477081299,-8.793902397155762,1.647210717201233,45.47119140625,-16.5557861328125,36.7584228515625
12.3499999,2.9735984802246094,-8.69334602355957,1.482010841369629,51.7120361328125,-21.17919921875,41.961669921875
12.3699999,2.9664158821105957,-8.5903959274292,1.359906554222107,56.2591552734375,-22.88818359375,45.5474853515625
12.389999900000001,2.999934673309326,-8.51138687133789,1.3886369466781616,56.976318359375,-16.17431640625,47.66845703125
12.4099999,3.0334534645080566,-8.489839553833008,1.6089035272598267,54.9774169921875,5.79833984375,48.7060546875
12.4299999,3.0119056701660156,-8.53532886505127,1.9823989868164062,51.544189453125,33.660888671875,48.248291015625
12.4499999,2.8610711097717285,-8.633491516113281,2.449268341064453,48.0804443359375,50.933837890625,47.1038818359375
12.469999900000001,2.540247917175293,-8.755595207214355,2.913743495941162,45.59326171875,58.563232421875,44.1436767578125
12.4899999,2.027888774871826,-8.877699851989746,3.3207578659057617,42.6177978515625,62.347412109375,38.63525390625
12.5099999,1.403002142906189,-8.978256225585938,3.6535518169403076,38.5894775390625,57.2052001953125,32.77587890625
12.5299999,0.7781155705451965,-9.05487060546875,3.9911341667175293,32.5469970703125,42.54150390625,26.0162353515625
12.549999900000001,0.2537853717803955,-9.078812599182129,4.37420654296875,21.1029052734375,37.41455078125,16.7694091796875
12.569999900000001,-0.12689268589019775,-9.069235801696777,4.766855716705322,4.21142578125,50.2471923828125,5.9814453125
12.5899999,-0.33518823981285095,-9.030928611755371,5.149928092956543,-14.34326171875,61.553955078125,-5.3253173828125
12.6099999,-0.42856210470199585,-8.992621421813965,5.485116004943848,-31.8603515625,66.436767578125,-17.9901123046875
12.629999900000001,-0.45010992884635925,-8.959102630615234,5.693411827087402,-52.9632568359375,77.667236328125,-33.294677734375
12.649999900000001,-0.3902548849582672,-8.959102630615234,5.760449409484863,-75.3326416015625,92.2088623046875,-49.3011474609375
12.6699999,-0.24660277366638184,-9.02135181427002,5.66228723526001,-94.7113037109375,96.9696044921875,-62.19482421875
12.6899999,-0.038307227194309235,-9.162610054016113,5.329493045806885,-109.649658203125,93.3990478515625,-68.4967041015625
12.709999900000001,0.2106897532939911,-9.363722801208496,4.800374507904053,-117.7215576171875,84.442138671875,-69.000244140625
12.729999900000001,0.47884035110473633,-9.564835548400879,4.156333923339844,-120.819091796875,73.822021484375,-69.854736328125
12.7499999,0.7613561153411865,-9.751583099365234,3.4979286193847656,-121.5972900390625,66.6961669921875,-71.9757080078125
12.7699999,1.0606313943862915,-9.895236015319824,2.896984100341797,-120.208740234375,64.5751953125,-70.3582763671875
12.789999900000002,1.3623007535934448,-10.014945983886719,2.3702597618103027,-115.5548095703125,65.5670166015625,-62.43896484375
12.809999900000001,1.6352397203445435,-10.08198356628418,1.9177556037902832,-108.21533203125,65.2008056640625,-52.55126953125
12.8299999,1.8722656965255737,-10.055646896362305,1.558625340461731,-100.433349609375,65.155029296875,-45.1202392578125
12.8499999,2.03507137298584,-9.93354320526123,1.2545616626739502,-94.4366455078125,70.5108642578125,-39.61181640625
12.8699999,2.1356279850006104,-9.715670585632324,1.0079588890075684,-89.0045166015625,72.540283203125,-31.8145751953125
12.889999900000001,2.1811177730560303,-9.454702377319336,0.7972691655158997,-80.9326171875,65.032958984375,-20.8282470703125
12.9099999,2.049436569213867,-8.96149730682373,0.40462008118629456,-58.013916015625,40.7562255859375,6.622314453125
12.9299999,1.8986018896102905,-8.791508674621582,0.24660277366638184,-43.2281494140625,30.09033203125,20.660400390625
12.9499999,1.702277421951294,-8.69334602355957,0.12928688526153564,-27.557373046875,22.0489501953125,33.660888671875
12.969999900000001,1.479616641998291,-8.645462036132812,0.06224924325942993,-16.1285400390625,13.5040283203125,47.607421875
12.9899999,1.292868971824646,-8.583212852478027,0.05267243832349777,-9.429931640625,5.06591796875,61.004638671875
13.0099999,1.1348515748977661,-8.473079681396484,0.06703764945268631,-2.7008056640625,1.312255859375,71.1212158203125
13.0299999,1.036689281463623,-8.31985092163086,0.0933738648891449,3.997802734375,-2.8839111328125,80.8868408203125
13.049999900000001,0.9217676520347595,-8.183381080627441,0.08140286058187485,7.0343017578125,-13.3209228515625,93.7042236328125
13.069999900000001,0.8307880163192749,-8.063671112060547,0.05985504388809204,6.378173828125,-23.7579345703125,106.536865234375
13.0899999,0.7158663272857666,-8.020575523376465,0.035913024097681046,6.103515625,-22.8118896484375,112.518310546875
13.1099999,0.5722141861915588,-8.022970199584961,0.009576806798577309,4.2572021484375,-14.0228271484375,116.4398193359375
13.129999900000001,0.3687070608139038,-8.085219383239746,-0.033518824726343155,-0.946044921875,-10.7421875,124.3896484375
13.149999900000001,0.06464344263076782,-8.188169479370117,-0.08619125932455063,-5.5084228515625,-12.8173828125,132.38525390625
13.1699999,-0.3256114423274994,-8.271966934204102,-0.14365209639072418,-8.3465576171875,-8.1787109375,134.8114013671875
13.1899999,-0.7757213711738586,-8.293514251708984,-0.20350714027881622,-13.0462646484375,1.2359619140625,133.5601806640625
13.209999900000001,-1.2832920551300049,-8.243236541748047,-0.26815059781074524,-21.2554931640625,3.6773681640625,133.1024169921875
13.229999900000001,-1.7860745191574097,-8.180987358093262,-0.33279404044151306,-27.252197265625,5.9661865234375,129.2724609375
13.2499999,-2.2649147510528564,-8.125920295715332,-0.42616790533065796,-30.1971435546875,15.350341796875,125.9765625
13.2699999,-2.8371291160583496,-8.152256965637207,-0.5650315880775452,-35.1104736328125,18.5394287109375,131.2408447265625
13.289999900000002,-3.354276657104492,-8.13789176940918,-0.6943184733390808,-40.2069091796875,17.547607421875,134.4146728515625
13.309999900000001,-3.9217023849487305,-8.118738174438477,-0.8882488012313843,-38.0706787109375,29.693603515625,122.8179931640625
13.3299999,-4.369418144226074,-8.020575523376465,-1.0582371950149536,-31.73828125,42.2210693359375,111.6485595703125
13.3499999,-4.831499099731445,-7.977479934692383,-1.2186486721038818,-29.1748046875,40.863037109375,114.776611328125
13.3699999,-5.188235282897949,-7.8960771560668945,-1.2832920551300049,-32.7911376953125,35.5377197265625,124.45068359375
13.389999900000001,-5.571307182312012,-7.850587368011475,-1.2952631711959839,-34.7747802734375,42.694091796875,125.5645751953125
13.4099999,-5.963956356048584,-7.783549785614014,-1.256955862045288,-35.430908203125,49.6826171875,124.51171875
13.4299999,-6.40927791595459,-7.668628215789795,-1.256955862045288,-41.7633056640625,43.853759765625,130.584716796875
13.4499999,-6.8593878746032715,-7.489062786102295,-1.3263877630233765,-50.4913330078125,36.56005859375,132.6141357421875
13.469999900000001,-7.371747016906738,-7.2568254470825195,-1.4724340438842773,-56.5338134765625,40.252685546875,123.1842041015625
13.4899999,-7.977479934692383,-6.981492042541504,-1.7405846118927002,-62.3321533203125,49.8046875,114.1510009765625
13.5099999,-8.62391471862793,-6.610390663146973,-2.121262788772583,-67.2607421875,51.483154296875,106.9183349609375
13.5299999,-9.260771751403809,-6.186617374420166,-2.6431987285614014,-64.6514892578125,50.0640869140625,87.615966796875
13.549999900000001,-9.751583099365234,-5.7125654220581055,-3.222595453262329,-55.389404296875,48.492431640625,61.3555908203125
13.569999900000001,-9.919178009033203,-5.2265424728393555,-3.751713991165161,-48.2635498046875,45.6085205078125,44.00634765625
13.5899999,-9.732429504394531,-4.7836151123046875,-4.137180328369141,-48.0804443359375,43.51806640625,40.6341552734375
13.6099999,-9.351752281188965,-4.4508209228515625,-4.352658748626709,-52.0477294921875,45.562744140625,44.7540283203125
13.629999900000001,-8.9064302444458,-4.261679172515869,-4.4723687171936035,-58.502197265625,48.614501953125,52.67333984375
13.649999900000001,-8.698134422302246,-4.134786128997803,-4.584896087646484,-67.3065185546875,45.3948974609375,65.8111572265625
13.6699999,-8.69334602355957,-4.089296340942383,-4.764461517333984,-72.8759765625,40.71044921875,72.69287109375
13.6899999,-8.959102630615234,-4.031835556030273,-5.04218864440918,-70.5108642578125,37.04833984375,66.10107421875
13.709999900000001,-9.378087997436523,-3.9863457679748535,-5.317522048950195,-61.309814453125,32.2418212890625,49.468994140625
13.729999900000001,-9.837775230407715,-3.840299606323242,-5.556941986083984,-59.234619140625,28.2135009765625,30.4412841796875
13.7499999,-10.18493366241455,-3.8331170082092285,-5.7341132164001465,-64.453125,31.3720703125,10.25390625
13.7699999,-10.326191902160645,-3.7828385829925537,-5.736507415771484,-63.9495849609375,31.3568115234375,-8.392333984375
13.789999900000002,-10.187328338623047,-3.9600095748901367,-5.813121795654297,-65.1702880859375,23.9715576171875,-20.6298828125
13.809999900000001,-9.75397777557373,-4.194641590118408,-5.892130374908447,-61.2335205078125,9.4757080078125,-21.8963623046875
13.8299999,-9.141061782836914,-4.537012100219727,-6.069301128387451,-48.675537109375,-0.06103515625,-11.6729736328125
13.8499999,-8.365341186523438,-4.920084476470947,-6.294356346130371,-35.797119140625,-6.134033203125,1.5411376953125
13.8699999,-7.654263019561768,-5.190629482269287,-6.550535678863525,-23.5443115234375,-11.7340087890625,15.0909423828125
13.889999900000001,-7.220912456512451,-5.4228668212890625,-6.799532890319824,-10.4522705078125,-13.9007568359375,24.658203125
13.9099999,-7.010222434997559,-5.449203014373779,-7.005434036254883,4.9591064453125,-15.380859375,25.1617431640625
13.9299999,-7.117961883544922,-5.30076265335083,-7.113173484802246,24.139404296875,-14.434814453125,24.383544921875
13.9499999,-7.304709434509277,-5.099649429321289,-7.072471618652344,39.703369140625,-5.2947998046875,25.848388671875
13.969999900000001,-7.513004779815674,-4.817133903503418,-6.926425457000732,47.760009765625,-0.30517578125,27.2979736328125
13.9899999,-7.702147006988525,-4.54419469833374,-6.646304130554199,49.774169921875,-5.31005859375,30.426025390625
14.0099999,-7.893682956695557,-4.261679172515869,-6.347028732299805,46.5240478515625,-11.90185546875,33.782958984375
14.0299999,-8.058882713317871,-3.936067581176758,-5.9974751472473145,41.2445068359375,-12.20703125,32.9132080078125
14.049999900000001,-8.26478385925293,-3.579331636428833,-5.647922039031982,37.2161865234375,-7.659912109375,25.5584716796875
14.069999900000001,-8.432378768920898,-3.2154128551483154,-5.310339450836182,34.9578857421875,-2.44140625,16.937255859375
14.0899999,-8.561665534973145,-2.940079689025879,-5.061342239379883,28.80859375,1.800537109375,9.8724365234375
14.1099999,-8.650250434875488,-2.7700912952423096,-4.867412090301514,20.2789306640625,5.9661865234375,3.5552978515625
14.129999900000001,-8.621520042419434,-2.6144683361053467,-4.745307922363281,14.129638671875,6.9580078125,-1.3885498046875
14.149999900000001,-8.585607528686523,-2.5689783096313477,-4.680664539337158,7.5836181640625,4.7149658203125,-3.84521484375
14.1699999,-8.465897560119629,-2.542642116546631,-4.663905143737793,1.5716552734375,2.593994140625,-5.584716796875
14.1899999,-8.341399192810059,-2.52109432220459,-4.738125324249268,-2.655029296875,2.62451171875,-7.904052734375
14.209999900000001,-8.157045364379883,-2.5282769203186035,-4.795586109161377,-4.9285888671875,5.6915283203125,-9.6282958984375
14.229999900000001,-7.94635534286499,-2.5306711196899414,-4.900930881500244,-5.1727294921875,10.3759765625,-8.575439453125
14.2499999,-7.757213592529297,-2.492363929748535,-4.994304656982422,-4.6539306640625,12.481689453125,-4.9285888671875
14.2699999,-7.613561630249023,-2.477998733520508,-5.092466831207275,-2.8839111328125,13.1988525390625,-1.15966796875
14.289999900000002,-7.544129371643066,-2.497152328491211,-5.216965675354004,0.885009765625,11.2457275390625,2.86865234375
14.309999900000001,-7.575253963470459,-2.559401512145996,-5.348646640777588,5.2490234375,7.6904296875,7.568359375
14.3299999,-7.666234016418457,-2.6623523235321045,-5.473145008087158,8.6669921875,1.6021728515625,12.87841796875
14.3499999,-7.785943984985352,-2.782062292098999,-5.51624059677124,11.260986328125,-5.279541015625,17.791748046875
14.3699999,-7.927201747894287,-2.8993782997131348,-5.523423194885254,13.8702392578125,-8.1787109375,20.3094482421875
14.389999900000001,-8.022970199584961,-2.96162748336792,-5.509057998657227,16.41845703125,-8.72802734375,21.087646484375
14.4099999,-8.092401504516602,-2.956839084625244,-5.449203014373779,18.06640625,-7.415771484375,20.2484130859375
14.4299999,-8.147468566894531,-2.8778305053710938,-5.382165431976318,19.3939208984375,-4.1961669921875,17.913818359375
14.4499999,-8.180987358093262,-2.7700912952423096,-5.286397457122803,20.0958251953125,-2.6702880859375,15.8538818359375
14.469999900000001,-8.221688270568848,-2.650381326675415,-5.190629482269287,18.8446044921875,-2.7618408203125,14.7247314453125
14.4899999,-8.26239013671875,-2.5522189140319824,-5.094861030578613,16.204833984375,-4.0283203125,14.678955078125
14.5099999,-8.286332130432129,-2.492363929748535,-5.063736438751221,13.397216796875,-4.4403076171875,12.969970703125
14.5299999,-8.334216117858887,-2.4660277366638184,-5.037400245666504,10.8795166015625,-5.6304931640625,10.467529296875
14.549999900000001,-8.346187591552734,-2.4612393379211426,-5.0014872550964355,8.3465576171875,-7.293701171875,8.72802734375
14.569999900000001,-8.355764389038086,-2.5019407272338867,-4.955997467041016,4.8980712890625,-4.638671875,7.232666015625
14.5899999,-8.339004516601562,-2.5713725090026855,-4.929661273956299,1.1138916015625,-0.06103515625,6.2103271484375
14.6099999,-8.315062522888184,-2.6575639247894287,-4.9368438720703125,-1.7852783203125,3.84521484375,5.6915283203125
14.629999900000001,-8.303091049194336,-2.7269957065582275,-4.9583916664123535,-3.3111572265625,4.57763671875,5.7525634765625
14.649999900000001,-8.312667846679688,-2.762908697128296,-4.9799394607543945,-4.730224609375,1.953125,4.5013427734375
14.6699999,-8.324639320373535,-2.75812029838562,-4.999093055725098,-6.134033203125,-0.30517578125,2.044677734375
14.6899999,-8.324639320373535,-2.738966703414917,-5.0469770431518555,-7.7362060546875,-0.2288818359375,0.79345703125
14.709999900000001,-8.291120529174805,-2.6862943172454834,-5.102043628692627,-8.7738037109375,1.8768310546875,0.8087158203125
14.729999900000001,-8.252813339233398,-2.6360161304473877,-5.157110691070557,-8.9569091796875,3.60107421875,1.7852783203125
14.7499999,-8.20732307434082,-2.583343744277954,-5.183446884155273,-8.8653564453125,2.50244140625,2.3040771484375
14.7699999,-8.190564155578613,-2.5498247146606445,-5.197812080383301,-7.99560546875,2.3651123046875,2.1209716796875
14.789999900000002,-8.195352554321289,-2.5450363159179688,-5.20978307723999,-6.1798095703125,2.9449462890625,2.2430419921875
14.809999900000001,-8.212111473083496,-2.559401512145996,-5.2911858558654785,-3.7689208984375,2.99072265625,1.953125
14.8299999,-8.224082946777344,-2.580949544906616,-5.341464042663574,-1.0833740234375,2.01416015625,1.9683837890625
14.8499999,-8.257601737976074,-2.5905263423919678,-5.382165431976318,0.7171630859375,-0.4425048828125,2.7008056640625
14.8699999,-8.271966934204102,-2.626439332962036,-5.367800235748291,1.983642578125,-1.46484375,3.11279296875
14.889999900000001,-8.29830265045166,-2.655169725418091,-5.331887245178223,3.448486328125,-0.3509521484375,3.0670166015625
14.9099999,-8.343792915344238,-2.719813108444214,-5.310339450836182,5.18798828125,0.8392333984375,3.082275390625
14.9299999,-8.324639320373535,-2.7724854946136475,-5.262455463409424,6.317138671875,0.6103515625,3.7689208984375
14.9499999,-8.324639320373535,-2.82515811920166,-5.202600479125977,6.40869140625,-2.3193359375,5.8135986328125
14.969999900000001,-8.2312650680542,-2.87064790725708,-5.2049946784973145,6.4849853515625,-2.99072265625,5.950927734375
14.9899999,-8.106766700744629,-2.8634653091430664,-5.135562419891357,9.1705322265625,-2.13623046875,6.40869140625
15.0099999,-8.111555099487305,-2.9975404739379883,-5.523423194885254,17.3492431640625,-2.0751953125,11.5966796875
15.0299999,-8.051700592041016,-3.071760892868042,-5.688623428344727,45.806884765625,-13.7786865234375,20.233154296875
15.049999900000001,-8.075642585754395,-3.157952070236206,-5.983109951019287,71.319580078125,-22.8271484375,31.3720703125
15.069999900000001,-8.037335395812988,-3.1076738834381104,-5.892130374908447,69.9920654296875,-19.989013671875,42.5872802734375
15.0899999,-7.955932140350342,-2.8610711097717285,-5.504269599914551,56.304931640625,-12.14599609375,51.055908203125
15.1099999,-7.910442352294922,-2.5258827209472656,-4.982333660125732,43.39599609375,-3.143310546875,53.466796875
15.129999900000001,-8.008605003356934,-2.1715409755706787,-4.513070106506348,34.515380859375,0.701904296875,50.567626953125
15.149999900000001,-8.252813339233398,-1.9177556037902832,-4.2329487800598145,29.327392578125,0.946044921875,44.4793701171875
15.1699999,-8.628703117370605,-1.7908629179000854,-4.151545524597168,26.67236328125,-1.708984375,35.6903076171875
15.1899999,-9.062053680419922,-1.7956513166427612,-4.2090067863464355,24.90234375,-4.1351318359375,25.5584716796875
15.209999900000001,-9.461885452270508,-1.8986018896102905,-4.323928356170654,24.3988037109375,-4.364013671875,15.6097412109375
15.229999900000001,-9.787496566772461,-2.0590133666992188,-4.417302131652832,25.390625,-6.65283203125,7.171630859375
15.2499999,-9.99100399017334,-2.233790159225464,-4.477157115936279,25.7110595703125,-12.9547119140625,0.54931640625
15.2699999,-10.0580415725708,-2.382230758666992,-4.474762916564941,25.2532958984375,-21.2249755859375,-4.94384765625
15.289999900000002,-9.962273597717285,-2.4899697303771973,-4.402936935424805,24.23095703125,-26.611328125,-10.162353515625
15.309999900000001,-9.725247383117676,-2.5498247146606445,-4.264073371887207,22.4609375,-27.28271484375,-14.404296875
15.3299999,-9.385271072387695,-2.561795711517334,-4.089296340942383,20.7366943359375,-27.1759033203125,-16.7083740234375
15.3499999,-9.014169692993164,-2.557007312774658,-3.890577793121338,19.0582275390625,-29.937744140625,-17.39501953125
15.3699999,-8.667010307312012,-2.5330653190612793,-3.7229835987091064,15.899658203125,-30.5023193359375,-16.4947509765625
15.389999900000001,-8.374917984008789,-2.497152328491211,-3.5673606395721436,12.3291015625,-26.9622802734375,-15.2740478515625
15.4099999,-8.149862289428711,-2.4612393379211426,-3.406949043273926,9.5977783203125,-17.913818359375,-14.95361328125
15.4299999,-8.006210327148438,-2.4229321479797363,-3.24414324760437,7.415771484375,-7.6751708984375,-12.4969482421875
15.4499999,-8.042123794555664,-2.4372973442077637,-3.134010076522827,4.2877197265625,-4.39453125,-5.7525634765625
15.469999900000001,-8.190564155578613,-2.4636335372924805,-3.0813376903533936,-0.7171630859375,-8.636474609375,4.364013671875
15.4899999,-8.4108304977417,-2.5234885215759277,-3.0621838569641113,-9.033203125,-8.575439453125,13.885498046875
15.5099999,-8.633491516113281,-2.5450363159179688,-3.0861260890960693,-18.6920166015625,6.8817138671875,20.20263671875
15.5299999,-8.767566680908203,-2.516305923461914,-3.1052796840667725,-24.6124267578125,26.1383056640625,21.97265625
15.549999900000001,-8.89445972442627,-2.4372973442077637,-3.1890766620635986,-25.87890625,38.909912109375,20.2178955078125
15.569999900000001,-8.954314231872559,-2.389413356781006,-3.421314239501953,-25.2838134765625,38.848876953125,16.632080078125
15.5899999,-9.114726066589355,-2.3104045391082764,-3.622427225112915,-24.2919921875,24.5819091796875,15.3656005859375
15.6099999,-9.23682975769043,-2.315192937850952,-3.8714241981506348,-25.7110595703125,24.23095703125,10.7269287109375
15.629999900000001,-9.47146224975586,-2.3558945655822754,-4.0533833503723145,-22.1099853515625,30.09033203125,3.4027099609375
15.649999900000001,-9.773131370544434,-2.4396915435791016,-4.244919776916504,-15.411376953125,25.69580078125,-1.2664794921875
15.6699999,-10.127472877502441,-2.5665841102600098,-4.484339714050293,-10.8642578125,17.88330078125,-6.28662109375
15.6899999,-10.54406452178955,-2.6360161304473877,-4.78122091293335,-10.650634765625,14.5111083984375,-15.19775390625
15.709999900000001,-10.879252433776855,-2.6862943172454834,-5.039794445037842,-11.3677978515625,9.246826171875,-26.4739990234375
15.729999900000001,-11.106701850891113,-2.7269957065582275,-5.1810526847839355,-9.1705322265625,-5.0811767578125,-39.3829345703125
15.7499999,-11.195286750793457,-2.808398485183716,-5.200206279754639,-5.1422119140625,-16.4031982421875,-53.9398193359375
15.7699999,-11.171344757080078,-2.9448680877685547,-5.118803024291992,-0.9307861328125,-17.7001953125,-69.6258544921875
15.789999900000002,-11.092336654663086,-3.1675288677215576,-4.910507678985596,0.8392333984375,-18.8751220703125,-82.366943359375
15.809999900000001,-11.015722274780273,-3.4308910369873047,-4.639962673187256,-1.1444091796875,-22.369384765625,-89.7674560546875
15.8299999,-10.939107894897461,-3.7636849880218506,-4.331110954284668,-3.8604736328125,-25.8636474609375,-94.8028564453125
15.8499999,-10.802638053894043,-4.165910720825195,-3.993528366088867,-7.4462890625,-27.374267578125,-95.672607421875
15.869999900000002,-10.675745010375977,-4.587290287017822,-3.7229835987091064,-17.2882080078125,-24.3072509765625,-92.6971435546875
15.889999900000001,-10.54645824432373,-4.867412090301514,-3.529053211212158,-33.87451171875,-20.20263671875,-90.0421142578125
15.9099999,-10.500968933105469,-5.102043628692627,-3.4979286193847656,-23.2391357421875,-20.7977294921875,-97.71728515625
15.9299999,-10.618284225463867,-5.161899089813232,-3.6128504276275635,3.814697265625,-35.0341796875,-113.58642578125
15.9499999,-10.776301383972168,-5.190629482269287,-3.84269380569458,9.3841552734375,-60.6536865234375,-116.14990234375
15.969999900000001,-10.864887237548828,-5.193023681640625,-4.022258758544922,8.4991455078125,-69.03076171875,-125.2593994140625
15.9899999,-10.778696060180664,-5.264849662780762,-4.0533833503723145,-1.1138916015625,-59.6923828125,-137.939453125
16.0099999,-10.512939453125,-5.367800235748291,-3.9025487899780273,-10.6658935546875,-44.281005859375,-142.303466796875
16.0299999,-10.180145263671875,-5.5114521980285645,-3.598485231399536,-4.638671875,-43.731689453125,-152.069091796875
16.0499999,-9.883264541625977,-5.688623428344727,-3.2968156337738037,9.857177734375,-51.81884765625,-167.388916015625
16.0699999,-9.612719535827637,-5.7772088050842285,-3.155557870864868,22.0947265625,-64.94140625,-177.2918701171875
16.089999900000002,-9.210494041442871,-5.815515995025635,-2.980781078338623,10.6964111328125,-78.5675048828125,-190.2008056640625
16.109999900000002,-8.583212852478027,-5.906495571136475,-2.87064790725708,5.767822265625,-67.9931640625,-201.8280029296875
16.1299999,-7.762001991271973,-5.995080947875977,-2.7317841053009033,6.0577392578125,-52.520751953125,-199.40185546875
16.1499999,-6.904877662658691,-6.232107162475586,-2.631227731704712,4.8675537109375,-48.065185546875,-191.5283203125
16.1699999,-6.0836663246154785,-6.478709697723389,-2.631227731704712,2.2430419921875,-52.7191162109375,-184.661865234375
16.1899999,-5.348646640777588,-6.675034523010254,-2.7126305103302,0.1678466796875,-58.319091796875,-179.50439453125
16.2099999,-4.666299343109131,-6.8043212890625,-2.7892448902130127,-1.0833740234375,-57.647705078125,-176.20849609375
16.2299999,-4.0533833503723145,-6.828263282775879,-2.8778305053710938,-1.15966796875,-52.5665283203125,-174.163818359375
16.249999900000002,-3.5458126068115234,-6.833051681518555,-2.9688100814819336,2.1209716796875,-51.81884765625,-175.1556396484375
16.269999900000002,-3.043030261993408,-6.981492042541504,-3.064578056335449,11.8408203125,-53.314208984375,-180.633544921875
16.2899999,-2.5761611461639404,-7.0988078117370605,-3.1292216777801514,27.1453857421875,-54.412841796875,-188.232421875
16.3099999,-1.9919757843017578,-7.299921035766602,-3.1292216777801514,39.9932861328125,-57.7850341796875,-194.0460205078125
16.3299999,-1.2018892765045166,-7.422025203704834,-2.9448680877685547,46.56982421875,-68.9544677734375,-190.1092529296875
16.3499999,-0.23942017555236816,-7.508216381072998,-2.6024973392486572,45.5780029296875,-73.272705078125,-176.0406494140625
16.3699999,0.8475474119186401,-7.659051418304443,-2.1739351749420166,40.1763916015625,-54.7332763671875,-153.5491943359375
16.3899999,1.922544002532959,-7.888894557952881,-1.742978811264038,33.7982177734375,-32.3333740234375,-123.3062744140625
16.4099999,2.7676970958709717,-8.164227485656738,-1.460463047027588,29.998779296875,-22.9644775390625,-95.5963134765625
16.429999900000002,3.224989652633667,-8.374917984008789,-1.4293384552001953,32.1807861328125,-25.2685546875,-79.4677734375
16.4499999,3.3518824577331543,-8.482656478881836,-1.5825673341751099,38.6962890625,-36.8804931640625,-71.7010498046875
16.4699999,3.2393548488616943,-8.520963668823242,-1.8124107122421265,44.647216796875,-51.7425537109375,-64.849853515625
16.4899999,3.043030261993408,-8.540117263793945,-2.0015525817871094,49.346923828125,-56.2286376953125,-59.0057373046875
16.5099999,2.873042106628418,-8.571242332458496,-2.070984363555908,55.11474609375,-48.095703125,-60.3179931640625
16.5299999,2.782062292098999,-8.619126319885254,-1.98958158493042,61.6607666015625,-38.2080078125,-65.5364990234375
16.5499999,2.782062292098999,-8.664615631103516,-1.7860745191574097,65.49072265625,-32.928466796875,-67.9473876953125
16.5699999,2.8371291160583496,-8.698134422302246,-1.4915876388549805,66.40625,-30.3802490234375,-68.4814453125
16.589999900000002,2.920926094055176,-8.712499618530273,-1.1540051698684692,66.95556640625,-30.1971435546875,-71.9146728515625
16.609999900000002,3.026270866394043,-8.676587104797363,-0.8164227604866028,65.5975341796875,-34.454345703125,-77.8656005859375
16.6299999,3.201047658920288,-8.564059257507324,-0.4836287498474121,62.042236328125,-35.6903076171875,-85.357666015625
16.6499999,3.4739866256713867,-8.370129585266113,-0.16519992053508759,58.4869384765625,-26.30615234375,-96.9696044921875
16.6699999,3.8283286094665527,-8.152256965637207,0.12928688526153564,55.450439453125,-12.14599609375,-108.5052490234375
16.6899999,4.252102375030518,-7.9176249504089355,0.3734954595565796,50.7965087890625,-6.561279296875,-112.3809814453125
16.7099999,4.680664539337158,-7.694964408874512,0.5674257874488831,45.9747314453125,-8.1024169921875,-112.1826171875
16.7299999,5.054159641265869,-7.405265808105469,0.6799532771110535,43.121337890625,-8.2855224609375,-113.3880615234375
16.749999900000002,5.872976779937744,-6.512228488922119,0.8834604024887085,36.285400390625,-23.101806640625,-115.66162109375
16.769999900000002,6.607996463775635,-6.004657745361328,1.3096283674240112,22.491455078125,-21.97265625,-104.3701171875
16.7899999,7.374141216278076,-5.492298603057861,1.8794482946395874,-4.730224609375,17.5933837890625,-83.55712890625
16.8099999,8.027758598327637,-5.0876784324646,2.3343467712402344,-46.0662841796875,37.200927734375,-54.046630859375
16.8299999,8.276755332946777,-4.8267107009887695,2.4157495498657227,-64.4683837890625,6.7596435546875,-34.48486328125
16.8499999,8.001421928405762,-4.7620673179626465,1.9369091987609863,-57.18994140625,-10.68115234375,-33.9202880859375
16.8699999,7.438784599304199,-5.039794445037842,0.9792284965515137,-38.2080078125,-9.6588134765625,-37.7044677734375
16.8899999,6.926425457000732,-5.544970989227295,0.023942016065120697,-17.303466796875,-13.18359375,-34.332275390625
16.9099999,6.682217121124268,-6.09324312210083,-0.7254431247711182,2.62451171875,-9.5062255859375,-28.3660888671875
16.929999900000002,6.722918510437012,-6.555324077606201,-1.1468225717544556,18.798828125,4.180908203125,-20.81298828125
16.9499999,6.950367450714111,-6.854599475860596,-1.2018892765045166,28.8848876953125,4.8675537109375,-7.720947265625
16.9699999,7.223306655883789,-6.955155849456787,-1.0127472877502441,32.9437255859375,-7.9345703125,6.591796875
16.9899999,7.448361396789551,-6.94079065322876,-0.6368576288223267,35.2020263671875,-14.373779296875,12.908935546875
17.0099999,7.5632829666137695,-6.789956092834473,-0.2513911724090576,36.6058349609375,-6.683349609375,10.8489990234375
17.0299999,7.572859764099121,-6.528987884521484,0.1843535304069519,35.7513427734375,3.6163330078125,6.34765625
17.0499999,7.503427982330322,-6.203376770019531,0.545877993106842,32.0281982421875,5.79833984375,2.685546875
17.0699999,7.393294811248779,-5.884947776794434,0.8619126081466675,26.702880859375,1.129150390625,0.213623046875
17.089999900000002,7.285555839538574,-5.640739440917969,1.1204863786697388,20.294189453125,-0.0457763671875,-2.5634765625
17.109999900000002,7.2352776527404785,-5.504269599914551,1.3455413579940796,13.6260986328125,3.7841796875,-4.974365234375
17.1299999,7.228095054626465,-5.449203014373779,1.5394717454910278,6.683349609375,6.1798095703125,-5.157470703125
17.1499999,7.2352776527404785,-5.5114521980285645,1.6831238269805908,0.0457763671875,9.2315673828125,-4.94384765625
17.1699999,7.230489253997803,-5.631162166595459,1.7836803197860718,-4.94384765625,8.0108642578125,-4.94384765625
17.1899999,7.252037048339844,-5.781997203826904,1.7836803197860718,-8.7890625,2.7008056640625,-4.1351318359375
17.2099999,7.2568254470825195,-5.9304375648498535,1.7310078144073486,-10.406494140625,1.6021728515625,-3.8604736328125
17.2299999,7.285555839538574,-6.064512729644775,1.6424223184585571,-9.8419189453125,3.41796875,-4.058837890625
17.249999900000002,7.304709434509277,-6.167463779449463,1.556231141090393,-9.33837890625,2.0294189453125,-3.2806396484375
17.269999900000002,7.309497833251953,-6.224924564361572,1.460463047027588,-9.3231201171875,-4.5166015625,-1.0986328125
17.2899999,7.307103633880615,-6.2632317543029785,1.3287819623947144,-8.2855224609375,-7.9498291015625,-0.3204345703125
17.3099999,7.299921035766602,-6.232107162475586,1.1875240802764893,-5.9051513671875,-4.7454833984375,-1.9073486328125
17.3299999,7.3238630294799805,-6.18182897567749,1.0845733880996704,-3.5858154296875,-2.4566650390625,-3.11279296875
17.3499999,7.38132381439209,-6.1052141189575195,1.048660397529602,-3.692626953125,-4.2877197265625,-1.6632080078125
17.3699999,7.469909191131592,-6.038176536560059,1.0678139925003052,-4.94384765625,-3.1890869140625,0.2899169921875
17.3899999,7.5848307609558105,-5.983109951019287,1.0869675874710083,-5.6304931640625,1.4190673828125,2.6397705078125
17.409999900000003,7.668628215789795,-5.942408561706543,1.0558429956436157,-4.5623779296875,3.84521484375,5.8441162109375
17.429999900000002,7.69735860824585,-5.8657941818237305,0.9888052940368652,-2.9144287109375,-0.3814697265625,9.4757080078125
17.4499999,7.687781810760498,-5.827486991882324,0.8978256583213806,-1.77001953125,-2.899169921875,9.9029541015625
17.4699999,7.632715225219727,-5.813121795654297,0.8236053586006165,-0.091552734375,0.274658203125,9.0484619140625
17.4899999,7.60637903213501,-5.875370979309082,0.7445967197418213,1.28173828125,2.960205078125,9.979248046875
17.5099999,7.60637903213501,-5.985504150390625,0.6919242739677429,2.288818359375,6.0882568359375,12.3291015625
17.5299999,7.620744228363037,-6.090848922729492,0.6727706789970398,1.9989013671875,7.1258544921875,15.31982421875
17.5499999,7.632715225219727,-6.143521785736084,0.6919242739677429,-0.4730224609375,7.5836181640625,18.00537109375
17.5699999,7.625532627105713,-6.145915985107422,0.7565677165985107,-2.9754638671875,10.650634765625,18.85986328125
17.589999900000002,7.592013359069824,-6.090848922729492,0.7829039692878723,-4.5013427734375,12.6800537109375,17.9595947265625
17.609999900000002,7.603984832763672,-6.004657745361328,0.7924807667732239,-5.2490234375,14.4500732421875,17.1661376953125
17.6299999,7.666234016418457,-5.880159378051758,0.7829039692878723,-6.6070556640625,15.869140625,18.8140869140625
17.6499999,7.793126583099365,-5.762843608856201,0.8044517636299133,-10.986328125,16.2811279296875,24.5513916015625
17.6699999,8.01339340209961,-5.669469833374023,0.8786720037460327,-17.3797607421875,16.2200927734375,30.609130859375
17.6899999,8.324639320373535,-5.6910176277160645,1.0031704902648926,-23.712158203125,19.6380615234375,34.3017578125
17.7099999,8.686163902282715,-5.793968200683594,1.1180921792984009,-28.4576416015625,30.120849609375,39.9322509765625
17.7299999,9.05487060546875,-5.983109951019287,1.2282254695892334,-31.3720703125,35.6903076171875,52.2308349609375
17.749999900000002,9.265560150146484,-6.234501361846924,1.2761094570159912,-33.447265625,35.0494384765625,66.10107421875
17.769999900000002,9.287108421325684,-6.478709697723389,1.3120225667953491,-32.3028564453125,35.5072021484375,73.150634765625
17.7899999,9.14585018157959,-6.701370716094971,1.3527239561080933,-26.85546875,38.4674072265625,71.1669921875
17.8099999,8.746018409729004,-6.933608055114746,1.3048399686813354,-20.782470703125,38.26904296875,69.2901611328125
17.8299999,8.300697326660156,-7.151480674743652,1.2976573705673218,-17.181396484375,15.6707763671875,72.0977783203125
17.8499999,7.876923561096191,-7.424419403076172,1.3239935636520386,-13.9923095703125,1.0223388671875,66.2689208984375
17.8699999,7.46033239364624,-7.73087739944458,1.4245500564575195,-14.2059326171875,5.4168701171875,66.8487548828125
17.8899999,7.058106422424316,-8.032546997070312,1.5921441316604614,-19.7601318359375,3.2806396484375,80.291748046875
17.909999900000003,6.617573261260986,-8.257601737976074,1.7262194156646729,-22.0947265625,2.5787353515625,81.390380859375
17.929999900000002,6.100425720214844,-8.40843677520752,1.8124107122421265,-19.6075439453125,10.5743408203125,70.526123046875
17.9499999,5.348646640777588,-8.537723541259766,1.7046716213226318,-20.81298828125,6.317138671875,74.0509033203125
17.9699999,4.575319290161133,-8.583212852478027,1.556231141090393,-24.169921875,-8.941650390625,85.2813720703125
17.9899999,3.751713991165161,-8.62391471862793,1.3215993642807007,-19.287109375,-5.9814453125,76.995849609375
18.0099999,2.9544448852539062,-8.635885238647461,1.115697979927063,-11.3525390625,5.9051513671875,65.8416748046875
18.0299999,2.229001760482788,-8.621520042419434,0.8690952062606812,-11.23046875,1.922607421875,75.6378173828125
18.0499999,1.6328455209732056,-8.59997272491455,0.6631938815116882,-9.94873046875,-5.92041015625,83.3892822265625
18.0699999,1.1085153818130493,-8.607154846191406,0.49799394607543945,0.18310546875,1.129150390625,74.0814208984375
18.089999900000002,0.586579442024231,-8.65743350982666,0.363918662071228,7.720947265625,10.9100341796875,67.3370361328125
18.109999900000002,0.15322890877723694,-8.707711219787598,0.31364041566848755,7.9345703125,8.60595703125,67.4896240234375
18.1299999,-0.23942017555236816,-8.863334655761719,0.31364041566848755,11.90185546875,6.3934326171875,57.0220947265625
18.1499999,-0.49320554733276367,-9.07641887664795,0.40222588181495667,16.632080078125,3.2501220703125,48.3856201171875
18.1699999,-0.6153098344802856,-9.26795482635498,0.5219359993934631,11.962890625,-0.8544921875,50.384521484375
18.1899999,-0.5410895943641663,-9.44752025604248,0.7230489253997803,6.927490234375,-1.739501953125,45.9442138671875
18.2099999,-0.33997663855552673,-9.579200744628906,0.9409212470054626,6.378173828125,4.7454833984375,31.9976806640625
18.2299999,-0.08379705995321274,-9.636661529541016,1.1109095811843872,2.7313232421875,11.3983154296875,24.7344970703125
18.249999900000002,0.17717093229293823,-9.691728591918945,1.2066776752471924,-5.9356689453125,8.3160400390625,24.200439453125
18.269999900000002,0.45010992884635925,-9.737217903137207,1.2401964664459229,-10.2081298828125,3.4332275390625,21.30126953125
18.2899999,0.727837324142456,-9.787496566772461,1.2282254695892334,-9.2620849609375,5.37109375,17.8680419921875
18.3099999,0.9792284965515137,-9.816226959228516,1.1540051698684692,-10.3607177734375,8.1787109375,19.1497802734375
18.3299999,1.1851298809051514,-9.86650562286377,1.0295066833496094,-10.80322265625,8.148193359375,20.263671875
18.3499999,1.314416766166687,-9.909601211547852,0.8619126081466675,-5.0811767578125,3.60107421875,17.974853515625
18.3699999,1.403002142906189,-9.943120002746582,0.7134721279144287,1.15966796875,-1.2054443359375,17.5323486328125
18.3899999,1.4676456451416016,-9.983820915222168,0.6057330369949341,2.6092529296875,-1.89208984375,22.3388671875
18.409999900000003,1.5275006294250488,-9.988609313964844,0.5793967843055725,3.72314453125,1.251220703125,27.52685546875
18.429999900000002,1.5179238319396973,-9.99339771270752,0.5913678407669067,7.5836181640625,4.0283203125,27.8778076171875
18.4499999,1.3886369466781616,-9.988609313964844,0.6320692300796509,8.6822509765625,-0.213623046875,28.076171875
18.4699999,1.1300631761550903,-9.995792388916016,0.6560112833976746,7.4615478515625,-5.2947998046875,26.85546875
18.4899999,0.8355764150619507,-10.012551307678223,0.7230489253997803,8.8653564453125,-6.317138671875,18.524169921875
18.5099999,0.5650315880775452,-10.031704902648926,0.7948749661445618,9.979248046875,-3.9520263671875,9.21630859375
18.5299999,0.3974374830722809,-10.031704902648926,0.8762778043746948,7.537841796875,-1.1444091796875,4.8675537109375
18.5499999,0.36152446269989014,-10.031704902648926,0.9600749015808105,4.08935546875,0.579833984375,3.96728515625
18.5699999,0.4357447028160095,-10.017339706420898,1.0654197931289673,2.1820068359375,3.2958984375,4.4403076171875
18.589999900000002,0.5363011956214905,-9.99100399017334,1.1468225717544556,0.3814697265625,5.5999755859375,6.4697265625
18.609999900000002,0.6153098344802856,-9.959878921508789,1.2066776752471924,-1.9073486328125,3.9215087890625,8.1634521484375
18.6299999,0.6033388376235962,-9.921571731567383,1.2306196689605713,-2.3193359375,1.1749267578125,6.7901611328125
18.6499999,0.5578489899635315,-9.876082420349121,1.2114660739898682,-1.8463134765625,-2.655029296875,5.18798828125
18.6699999,0.48602294921875,-9.84256362915039,1.2090718746185303,-3.3416748046875,-5.035400390625,5.279541015625
18.6899999,0.44532153010368347,-9.828198432922363,1.194706678390503,-4.9896240234375,0.0457763671875,4.913330078125
18.7099999,0.43335050344467163,-9.859322547912598,1.1683704853057861,-4.3487548828125,6.6986083984375,1.9989013671875
18.7299999,0.3974374830722809,-9.919178009033203,1.115697979927063,-3.143310546875,8.23974609375,-0.518798828125
18.749999900000002,0.35913026332855225,-10.014945983886719,1.0582371950149536,-3.021240234375,3.0670166015625,-1.46484375
18.769999900000002,0.3232172429561615,-10.108319282531738,1.039083480834961,-3.875732421875,-1.40380859375,-1.6021728515625
18.7899999,0.35434186458587646,-10.189722061157227,1.0582371950149536,-4.9591064453125,0.1220703125,-1.3275146484375
18.8099999,0.40462008118629456,-10.24000072479248,1.070208191871643,-6.988525390625,3.9520263671875,1.2664794921875
18.8299999,0.45250412821769714,-10.254365921020508,1.048660397529602,-8.148193359375,5.279541015625,3.5247802734375
18.8499999,0.40701428055763245,-10.254365921020508,0.9864110946655273,-5.7525634765625,4.5166015625,0.79345703125
18.8699999,0.19393034279346466,-10.24000072479248,0.8978256583213806,-1.6326904296875,4.5623779296875,-4.3792724609375
18.8899999,-0.1412578970193863,-10.237606048583984,0.8307880163192749,1.8768310546875,4.08935546875,-9.735107421875
18.909999900000003,-0.5913678407669067,-10.266336441040039,0.7948749661445618,2.6702880859375,0.3509521484375,-14.556884765625
18.929999900000002,-1.1779472827911377,-10.371682167053223,0.7709329724311829,2.3193359375,0.8697509765625,-18.0511474609375
18.9499999,-1.8722656965255737,-10.503362655639648,0.7996633648872375,3.5552978515625,5.889892578125,-20.8587646484375
18.9699999,-2.6839001178741455,-10.606313705444336,0.849941611289978,5.7525634765625,5.67626953125,-30.94482421875
18.9899999,-3.44765043258667,-10.606313705444336,0.9026140570640564,8.4991455078125,-6.3018798828125,-53.466796875
19.0099999,-3.8762125968933105,-10.433931350708008,1.0127472877502441,10.223388671875,-18.85986328125,-81.5277099609375
19.0299999,-3.7277719974517822,-10.17296314239502,1.139639973640442,10.4827880859375,-17.88330078125,-102.47802734375
19.0499999,-2.918531894683838,-9.849745750427246,1.3048399686813354,7.2479248046875,-12.8326416015625,-106.842041015625
19.0699999,-1.6304513216018677,-9.495404243469238,1.482010841369629,-1.312255859375,-13.641357421875,-97.96142578125
19.089999900000002,-0.2944868206977844,-9.224859237670898,1.5107412338256836,-8.0413818359375,-18.9666748046875,-87.890625
19.109999900000002,0.9983820915222168,-8.865729331970215,1.4173674583435059,-9.1705322265625,-28.9306640625,-86.883544921875
19.1299999,2.030282974243164,-8.707711219787598,1.2042834758758545,-8.819580078125,-30.1361083984375,-88.3941650390625
19.1499999,2.8634653091430664,-8.422801971435547,0.912190854549408,-5.8746337890625,-17.8680419921875,-86.5936279296875
19.1699999,3.4811692237854004,-8.372523307800293,0.47644615173339844,4.5928955078125,-9.552001953125,-86.36474609375
19.1899999,3.8498764038085938,-8.20732307434082,-0.21308395266532898,39.0472412109375,-20.8282470703125,-88.5162353515625
19.2099999,4.146757125854492,-8.123526573181152,-0.7637503147125244,79.925537109375,-46.5850830078125,-90.5609130859375
19.2299999,4.580107688903809,-7.91283655166626,-1.1300631761550903,93.963623046875,-49.4537353515625,-85.02197265625
19.249999900000002,5.233725070953369,-7.6351094245910645,-0.933738648891449,91.094970703125,-28.656005859375,-71.4874267578125
19.269999900000002,6.011840343475342,-7.247248649597168,-0.2825157940387726,81.1920166015625,-7.50732421875,-56.9610595703125
19.2899999,6.703764915466309,-6.8809356689453125,0.5123591423034668,71.6400146484375,0.9765625,-44.7235107421875
19.3099999,7.141903877258301,-6.596025466918945,1.2066776752471924,62.5,0.274658203125,-34.48486328125
19.3299999,7.371747016906738,-6.423643112182617,1.723825216293335,52.6275634765625,0.1373291015625,-26.580810546875
19.3499999,7.448361396789551,-6.356605529785156,2.0901381969451904,43.670654296875,4.94384765625,-22.7508544921875
19.3699999,7.433996200561523,-6.406883716583252,2.3295583724975586,35.6292724609375,10.6201171875,-17.63916015625
19.3899999,7.333439826965332,-6.584054470062256,2.4660277366638184,25.3753662109375,11.688232421875,-10.4827880859375
19.409999900000003,7.196970462799072,-6.845022678375244,2.535459518432617,15.31982421875,11.7645263671875,-7.1563720703125
19.429999900000002,7.0317702293396,-7.15387487411499,2.5785553455352783,9.3536376953125,19.378662109375,-13.7939453125
19.4499999,6.8162922859191895,-7.448361396789551,2.652775526046753,3.997802734375,29.510498046875,-26.0009765625
19.4699999,6.586448669433594,-7.687781810760498,2.786850690841675,-3.6468505859375,34.3780517578125,-35.8734130859375
19.4899999,6.342240333557129,-7.915230751037598,2.9903578758239746,-9.27734375,35.2783203125,-44.6624755859375
19.5099999,6.1267619132995605,-8.109161376953125,3.248931646347046,-15.1824951171875,35.491943359375,-51.361083984375
19.5299999,5.995080947875977,-8.243236541748047,3.5266590118408203,-24.0936279296875,31.6162109375,-54.1839599609375
19.5499999,5.920860767364502,-8.288725852966309,3.758896589279175,-34.3017578125,21.3775634765625,-54.3975830078125
19.5699999,5.904101371765137,-8.200140953063965,3.8953661918640137,-43.2281494140625,11.810302734375,-55.2978515625
19.589999900000002,5.944802761077881,-8.006210327148438,3.890577793121338,-48.2635498046875,9.27734375,-59.2498779296875
19.609999900000002,6.052541732788086,-7.745242595672607,3.758896589279175,-50.7965087890625,7.8582763671875,-63.5986328125
19.6299999,6.234501361846924,-7.4555439949035645,3.5386300086975098,-52.7191162109375,2.716064453125,-63.720703125
19.6499999,6.471527099609375,-7.184999465942383,3.2632968425750732,-52.978515625,-3.23486328125,-61.1572265625
19.6699999,6.72531270980835,-6.979097843170166,2.9735984802246094,-51.9256591796875,-7.2784423828125,-58.3343505859375
19.6899999,6.964732646942139,-6.821080684661865,2.6839001178741455,-50.7659912109375,-8.4228515625,-53.6956787109375
19.7099999,7.158663272857666,-6.720524311065674,2.3965959548950195,-48.187255859375,-7.75146484375,-48.6602783203125
19.7299999,7.268796443939209,-6.643909931182861,2.1045033931732178,-44.12841796875,-9.7808837890625,-45.135498046875
19.749999900000002,7.3238630294799805,-6.576871871948242,1.8195933103561401,-39.2608642578125,-15.07568359375,-43.365478515625
19.769999900000002,7.347805023193359,-6.5050458908081055,1.5538369417190552,-33.172607421875,-16.6168212890625,-43.4112548828125
19.7899999,7.398083209991455,-6.406883716583252,1.3431471586227417,-26.092529296875,-12.6190185546875,-43.304443359375
19.8099999,7.47230339050293,-6.299144744873047,1.1994950771331787,-18.4326171875,-6.2408447265625,-42.4957275390625
19.8299999,7.5632829666137695,-6.19379997253418,1.113303780555725,-11.5966796875,-1.373291015625,-40.0848388671875
19.8499999,7.620744228363037,-6.102819919586182,1.0630255937576294,-5.7830810546875,0.335693359375,-35.5224609375
19.8699999,7.654263019561768,-6.0190229415893555,1.036689281463623,-0.3814697265625,-0.18310546875,-30.5938720703125
19.8899999,7.6566572189331055,-5.920860767364502,1.0319008827209473,5.2490234375,-0.152587890625,-27.4658203125
19.909999900000003,7.6566572189331055,-5.796362400054932,1.05105459690094,10.3607177734375,0.6866455078125,-24.8565673828125
19.929999900000002,7.673416614532471,-5.631162166595459,1.1109095811843872,13.9923095703125,1.28173828125,-20.8892822265625
19.9499999,7.692570209503174,-5.48272180557251,1.1827356815338135,16.815185546875,1.28173828125,-16.265869140625
19.9699999,7.718906402587891,-5.351040840148926,1.2641384601593018,18.585205078125,-0.8697509765625,-10.92529296875
19.9899999,7.750030994415283,-5.2480902671813965,1.3407529592514038,19.378662109375,-4.33349609375,-5.9967041015625
20.0099999,7.769184589385986,-5.130774021148682,1.4389152526855469,19.3634033203125,-7.6904296875,-2.74658203125
20.0299999,7.838616371154785,-5.049371242523193,1.5729905366897583,18.3563232421875,-9.613037109375,0.244140625
20.0499999,7.965508937835693,-4.853046894073486,1.9512743949890137,12.63427734375,-13.7176513671875,7.7667236328125
20.0699999,8.051700592041016,-4.58968448638916,2.4229321479797363,-15.2587890625,-3.0364990234375,16.326904296875
20.089999900000002,7.979874134063721,-4.479551315307617,2.7269957065582275,-49.591064453125,4.0435791015625,17.6239013671875
20.109999900000002,7.728483200073242,-4.4508209228515625,2.7988216876983643,-56.549072265625,-13.9923095703125,11.7034912109375
20.1299999,7.319074630737305,-4.738125324249268,2.341529369354248,-46.3104248046875,-18.463134765625,-2.1820068359375
20.1499999,6.967126846313477,-5.16429328918457,1.647210717201233,-31.4178466796875,-16.5863037109375,-14.8773193359375
20.1699999,6.88332986831665,-5.793968200683594,0.9097966551780701,-19.012451171875,-13.36669921875,-18.85986328125
20.1899999,7.082048416137695,-6.229712963104248,0.4141969084739685,-9.796142578125,-4.913330078125,-16.845703125
20.2099999,7.508216381072998,-6.658275127410889,0.12689268589019775,-3.4332275390625,-0.30517578125,-9.9029541015625
20.2299999,8.008605003356934,-6.854599475860596,0.05746084079146385,0.8697509765625,-3.4942626953125,0.1983642578125
20.249999900000002,8.415618896484375,-6.825869083404541,0.13168109953403473,4.6234130859375,-7.293701171875,8.0718994140625
20.269999900000002,8.621520042419434,-6.615179061889648,0.19393034279346466,8.7890625,-7.62939453125,10.1470947265625
20.2899999,8.631096839904785,-6.27280855178833,0.30885201692581177,12.176513671875,-9.46044921875,8.453369140625
20.3099999,8.489839553833008,-5.875370979309082,0.3758896589279175,13.5650634765625,-10.8489990234375,5.584716796875
