# Time (seconds),Accel_X,Accel_Y,Accel_Z,Gyro_X,Gyro_Y,Gyro_Z
0.0099999,-9.275136947631836,-1.4053963422775269,1.2306196689605713,-6.8359375,2.5787353515625,23.8189697265625
0.029999900000000003,-9.514557838439941,-1.2976573705673218,1.1540051698684692,-8.0718994140625,1.5869140625,26.2603759765625
0.0499999,-9.892841339111328,-1.0223240852355957,1.0007762908935547,-10.07080078125,-0.6866455078125,26.885986328125
0.0699999,-10.218452453613281,-0.6416460275650024,0.8188169598579407,-13.3209228515625,-2.685546875,24.566650390625
0.08999990000000001,-10.376470565795898,-0.24660277366638184,0.6488286852836609,-16.0675048828125,-5.18798828125,22.52197265625
0.10999990000000001,-10.33098030090332,0.08619125932455063,0.569819986820221,-15.3350830078125,-8.4075927734375,19.4549560546875
0.1299999,-10.170568466186523,0.304063618183136,0.5482721924781799,-12.4969482421875,-9.979248046875,14.2974853515625
0.14999990000000002,-9.981427192687988,0.38546648621559143,0.586579442024231,-9.2315673828125,-11.04736328125,9.552001953125
0.1699999,-9.883264541625977,0.3998316824436188,0.7110779285430908,-5.9967041015625,-13.0615234375,7.171630859375
0.1899999,-9.86889934539795,0.304063618183136,0.8379706144332886,-3.448486328125,-14.16015625,5.9814453125
0.20999990000000002,-9.911994934082031,0.22266076505184174,1.0414776802062988,-1.8463134765625,-13.9007568359375,4.1351318359375
0.2299999,-9.916783332824707,0.11252748221158981,1.2186486721038818,-6.378173828125,-12.2833251953125,4.1961669921875
0.2499999,-9.86889934539795,0.014365210197865963,1.3766659498214722,-13.824462890625,-9.8419189453125,5.6915283203125
0.2699999,-9.768342971801758,-0.05027823522686958,1.4532804489135742,-16.8609619140625,-9.002685546875,6.195068359375
0.28999990000000003,-9.715670585632324,-0.19393034279346466,1.4077905416488647,-13.702392578125,-10.0860595703125,4.94384765625
0.3099999,-9.746794700622559,-0.31603461503982544,1.2689268589019775,-5.92041015625,-13.3209228515625,5.9356689453125
0.3299999,-9.876082420349121,-0.38307225704193115,1.1971008777618408,2.7923583984375,-17.6544189453125,8.148193359375
0.34999990000000003,-10.02452278137207,-0.395043283700943,1.1468225717544556,6.500244140625,-18.3563232421875,7.598876953125
0.3699999,-10.096348762512207,-0.2346317619085312,1.2497732639312744,7.99560546875,-17.8680419921875,5.615234375
0.3899999,-10.072406768798828,0.043095629662275314,1.525106430053711,7.2479248046875,-17.3187255859375,3.3721923828125
0.40999990000000003,-9.892841339111328,0.36152446269989014,1.9297266006469727,-3.3416748046875,-10.5133056640625,0.946044921875
0.4299999,-9.658209800720215,0.646434485912323,2.341529369354248,-20.93505859375,4.547119140625,-0.67138671875
0.4499999,-9.490615844726562,0.7493851184844971,2.6240451335906982,-31.6162109375,11.9171142578125,-1.495361328125
0.4699999,-9.473855972290039,0.6847416758537292,2.6168625354766846,-30.33447265625,10.498046875,-2.105712890625
0.4899999,-9.617507934570312,0.363918662071228,2.252943754196167,-22.1405029296875,6.6070556640625,-0.946044921875
0.5099999,-9.873687744140625,-0.0694318488240242,1.6543933153152466,-7.9345703125,0.457763671875,0.640869140625
0.5299999,-10.113107681274414,-0.4165911078453064,1.0606313943862915,8.4991455078125,-9.918212890625,2.2430419921875
0.5499999,-10.216058731079102,-0.6272808313369751,0.7493851184844971,17.059326171875,-17.974853515625,1.1749267578125
0.5699999,-10.156203269958496,-0.5602431893348694,0.6775590777397156,15.4571533203125,-16.6473388671875,-0.1678466796875
0.5899998999999999,-9.99339771270752,-0.3974374830722809,0.9624691009521484,11.04736328125,-12.63427734375,1.495361328125
0.6099998999999999,-9.782708168029785,-0.033518824726343155,1.4676456451416016,5.8135986328125,-11.3525390625,3.11279296875
0.6299999,-9.653421401977539,0.2777273952960968,1.9943699836730957,-3.143310546875,-7.232666015625,0.762939453125
0.6499999,-9.610325813293457,0.5746083855628967,2.406172752380371,-13.18359375,1.2054443359375,-4.241943359375
0.6699999,-9.62947940826416,0.6775590777397156,2.5785553455352783,-17.4560546875,4.547119140625,-4.974365234375
0.6899999,-9.646238327026367,0.5961562395095825,2.5522189140319824,-15.4571533203125,1.251220703125,-6.4849853515625
0.7099999,-9.612719535827637,0.3471592366695404,2.3535003662109375,-13.092041015625,3.570556640625,-8.1787109375
0.7299998999999999,-9.622296333312988,0.028730420395731926,2.1284453868865967,-10.8795166015625,8.6669921875,-5.2490234375
0.7499998999999999,-9.6989107131958,-0.24899697303771973,1.889025092124939,-2.7618408203125,4.8980712890625,-1.2969970703125
0.7699999,-9.835380554199219,-0.45010992884635925,1.6615760326385498,8.453369140625,-2.86865234375,-2.349853515625
0.7899999,-9.976638793945312,-0.4836287498474121,1.4963760375976562,15.716552734375,-4.913330078125,-5.2642822265625
0.8099999,-10.077195167541504,-0.40222588181495667,1.4413094520568848,16.6778564453125,-4.9896240234375,-4.4097900390625
0.8299999,-9.952696800231934,-0.22026655077934265,1.5107412338256836,12.6953125,-7.2174072265625,-7.110595703125
0.8499998999999999,-9.81143856048584,0.019153613597154617,1.7381904125213623,4.7149658203125,-2.2430419921875,-10.55908203125
0.8699998999999999,-9.62947940826416,0.2059013396501541,1.9728221893310547,-7.9345703125,6.011962890625,-7.6751708984375
0.8899999,-9.591172218322754,0.2992752194404602,2.1523873805999756,-17.4102783203125,8.48388671875,-5.5084228515625
0.9099999,-9.684545516967773,0.19632454216480255,2.2146365642547607,-16.0369873046875,5.2947998046875,-8.7890625
0.9299999,-9.832986831665039,-0.035913024097681046,2.0398597717285156,-8.026123046875,3.173828125,-8.30078125
0.9499999,-9.998186111450195,-0.36152446269989014,1.800439715385437,0.30517578125,-1.6937255859375,-3.753662109375
0.9699998999999999,-9.99339771270752,-0.6655880808830261,1.4844050407409668,6.8817138671875,-7.4005126953125,-5.3863525390625
0.9899998999999999,-9.952696800231934,-0.8547300100326538,1.3479355573654175,12.75634765625,-6.988525390625,-4.5013427734375
1.0099999,-9.86650562286377,-0.8475474119186401,1.3239935636520386,13.2598876953125,-7.6141357421875,2.0294189453125
1.0299999,-9.818621635437012,-0.6799532771110535,1.460463047027588,6.5460205078125,-9.521484375,4.45556640625
1.0499999,-9.75397777557373,-0.40940847992897034,1.702277421951294,-1.0223388671875,-8.1634521484375,-0.8392333984375
1.0699999,-9.742006301879883,-0.11971008777618408,1.9752163887023926,-5.5694580078125,-4.7607421875,-2.5634765625
1.0899999,-9.6989107131958,0.11013327538967133,2.2433669567108154,-10.7421875,-3.23486328125,-2.8228759765625
1.1099999,-9.619902610778809,0.17717093229293823,2.3343467712402344,-14.2059326171875,0.6256103515625,-7.5531005859375
1.1299999,-9.655815124511719,0.10773907601833344,2.322375535964966,-10.9100341796875,4.1656494140625,-7.965087890625
1.1499999,-9.694122314453125,-0.05985504388809204,2.1930887699127197,-5.9661865234375,-0.0152587890625,-3.6468505859375
1.1699998999999999,-9.840168952941895,-0.2801215946674347,2.0183119773864746,-5.6915283203125,-3.23486328125,-2.01416015625
1.1899998999999999,-9.938331604003906,-0.4381389021873474,1.824381709098816,-2.0294189453125,-3.0364990234375,-5.615234375
1.2099999,-9.99339771270752,-0.608127236366272,1.6950948238372803,11.474609375,-7.6446533203125,-5.9967041015625
1.2299999,-9.890447616577148,-0.6727706789970398,1.7477672100067139,20.01953125,-12.8936767578125,-6.53076171875
1.2499999,-9.66539192199707,-0.706289529800415,1.9488801956176758,9.7808837890625,-4.5013427734375,-5.0506591796875
1.2699999,-9.493009567260742,-0.6823474764823914,2.2840683460235596,-7.9803466796875,7.354736328125,1.800537109375
1.2899999,-9.418789863586426,-0.5554547905921936,2.6144683361053467,-19.3328857421875,9.9639892578125,5.462646484375
1.3099999,-9.48343276977539,-0.4213795065879822,2.7222073078155518,-23.2391357421875,10.4522705078125,2.655029296875
1.3299999,-9.691728591918945,-0.2968810200691223,2.4899697303771973,-20.1263427734375,10.7879638671875,-0.2593994140625
1.3499999,-10.022128105163574,-0.43335050344467163,1.6735470294952393,5.55419921875,-7.293701171875,-3.90625
1.3699999,-9.988609313964844,-0.5674257874488831,1.4700398445129395,10.4827880859375,-5.79833984375,-2.471923828125
1.3899999,-9.84495735168457,-0.646434485912323,1.5538369417190552,4.608154296875,-0.0457763671875,3.2196044921875
1.4099999,-9.646238327026367,-0.6416460275650024,1.8171991109848022,-1.40380859375,1.373291015625,3.5247802734375
1.4299998999999999,-9.576807022094727,-0.569819986820221,2.1595699787139893,-2.7923583984375,2.532958984375,-0.1983642578125
1.4499999,-9.622296333312988,-0.4884171485900879,2.3487119674682617,-5.706787109375,6.134033203125,1.03759765625
1.4699999,-9.746794700622559,-0.42616790533065796,2.3726539611816406,-9.6588134765625,7.0343017578125,5.0048828125
1.4899999,-9.75397777557373,-0.4165911078453064,2.212242364883423,-9.124755859375,4.4708251953125,0.1068115234375
1.5099999,-9.751583099365234,-0.42377370595932007,2.011129379272461,-3.814697265625,3.9215087890625,-1.495361328125
1.5299999,-9.701305389404297,-0.4668693244457245,1.7860745191574097,-2.197265625,3.0364990234375,3.7841796875
1.5499999,-9.742006301879883,-0.4620809257030487,1.6208745241165161,-2.166748046875,0.1983642578125,6.2408447265625
1.5699999,-9.835380554199219,-0.4596867263317108,1.4963760375976562,2.9449462890625,-3.753662109375,-0.0762939453125
1.5899999,-9.93354320526123,-0.37828385829925537,1.5131354331970215,9.0179443359375,-6.6680908203125,-1.3427734375
1.6099999,-9.93593692779541,-0.37828385829925537,1.6112977266311646,7.26318359375,-6.4697265625,2.3956298828125
1.6299999,-9.813833236694336,-0.40701428055763245,1.8722656965255737,0.0762939453125,-2.166748046875,0.823974609375
1.6499999,-9.670180320739746,-0.43335050344467163,2.1715409755706787,-2.01416015625,3.448486328125,0.1373291015625
1.6699999,-9.59596061706543,-0.42377370595932007,2.425326347351074,-0.244140625,4.82177734375,3.4942626953125
1.6899998999999999,-9.605537414550781,-0.31842881441116333,2.5450363159179688,-2.105712890625,5.6304931640625,3.2501220703125
1.7099999,-9.667786598205566,-0.14365209639072418,2.5019407272338867,-5.0201416015625,9.368896484375,-3.3721923828125
1.7299999,-9.797073364257812,-0.040701430290937424,2.2649147510528564,-1.9378662109375,9.063720703125,-6.072998046875
1.7499999,-9.8784761428833,-0.021547814831137657,1.9752163887023926,2.685546875,1.0223388671875,-6.53076171875
1.7699999,-9.938331604003906,-0.16519992053508759,1.6304513216018677,2.777099609375,-0.3509521484375,-7.50732421875
1.7899999,-9.897629737854004,-0.38067805767059326,1.4101848602294922,5.462646484375,-0.4730224609375,-4.2877197265625
1.8099999,-9.911994934082031,-0.6153098344802856,1.3527239561080933,11.962890625,-5.4931640625,0.152587890625
1.8299999,-9.823410034179688,-0.7374141216278076,1.4101848602294922,14.0533447265625,-9.8419189453125,-0.5950927734375
1.8499999,-9.794678688049316,-0.7565677165985107,1.5658079385757446,7.568359375,-7.14111328125,-1.1749267578125
1.8699999,-9.794678688049316,-0.6272808313369751,1.8195933103561401,-2.105712890625,-4.1046142578125,1.495361328125
1.8899999,-9.734824180603027,-0.5027823448181152,2.0901381969451904,-10.2691650390625,-3.570556640625,2.1209716796875
1.9099999,-9.708487510681152,-0.4381389021873474,2.322375535964966,-15.9912109375,2.227783203125,-0.030517578125
1.9299998999999999,-9.66299819946289,-0.4165911078453064,2.4205379486083984,-16.0369873046875,5.1727294921875,3.570556640625
1.9499999,-9.739612579345703,-0.49320554733276367,2.3558945655822754,-11.505126953125,2.227783203125,9.27734375
1.9699999,-9.806650161743164,-0.5219359993934631,2.1978771686553955,-6.4697265625,-2.1820068359375,5.126953125
1.9899999,-9.888052940368652,-0.4572925269603729,2.0183119773864746,-2.9449462890625,-1.5411376953125,1.3885498046875
2.0099999,-9.921571731567383,-0.3734954595565796,1.9393033981323242,-0.946044921875,-1.4495849609375,2.50244140625
2.0299999,-9.780313491821289,-0.23942017555236816,1.9943699836730957,-1.15966796875,-1.800537109375,-0.1983642578125
2.0499999,-9.636661529541016,-0.16998831927776337,2.1332337856292725,-1.373291015625,4.1961669921875,-5.37109375
2.0699999,-9.485827445983887,-0.08858546614646912,2.276885747909546,-0.732421875,8.148193359375,-5.5999755859375
2.0899999,-9.466673851013184,-0.15083470940589905,2.3750481605529785,0.8087158203125,8.2244873046875,-4.119873046875
2.1099999,-9.583989143371582,-0.20350714027881622,2.3271639347076416,5.2337646484375,8.453369140625,-9.429931640625
2.1299999,-9.744400978088379,-0.26336219906806946,2.183511972427368,9.857177734375,9.1705322265625,-10.3759765625
2.1499999,-9.928754806518555,-0.3256114423274994,1.968033790588379,11.444091796875,4.0130615234375,-8.331298828125
2.1699999,-9.959878921508789,-0.40701428055763245,1.7405846118927002,7.4615478515625,0.9307861328125,-9.9945068359375
2.1899999,-9.93354320526123,-0.5554547905921936,1.6065093278884888,3.2196044921875,2.471923828125,-8.941650390625
2.2099999,-9.847352027893066,-0.7182605266571045,1.5538369417190552,1.739501953125,0.7476806640625,-3.0517578125
2.2299999,-9.761159896850586,-0.9002198576927185,1.53707754611969,0.8392333984375,-2.410888671875,1.2969970703125
2.2499999,-9.78989028930664,-1.01753568649292,1.580173134803772,0.335693359375,-2.8533935546875,0.5035400390625
2.2699999,-9.780313491821289,-0.9840168952941895,1.6400281190872192,-2.2125244140625,-2.6092529296875,3.90625
2.2899999,-9.797073364257812,-0.9002198576927185,1.7334020137786865,-7.87353515625,-5.6610107421875,8.8348388671875
2.3099999,-9.773131370544434,-0.751779317855835,1.845929503440857,-12.0697021484375,-3.96728515625,4.8370361328125
2.3299999,-9.6989107131958,-0.569819986820221,2.013523578643799,-9.735107421875,-0.4119873046875,2.38037109375
2.3499999,-9.744400978088379,-0.4357447028160095,2.190694570541382,-6.256103515625,1.03759765625,6.317138671875
2.3699999,-9.75397777557373,-0.31364041566848755,2.274491548538208,-5.43212890625,1.5106201171875,4.302978515625
2.3899999,-9.821015357971191,-0.22744916379451752,2.276885747909546,-2.7618408203125,4.3182373046875,-0.79345703125
2.4099999,-9.871294021606445,-0.1388636976480484,2.164358377456665,0.6561279296875,2.4566650390625,-1.3427734375
2.4299999,-9.876082420349121,-0.1412578970193863,2.0254945755004883,-0.9307861328125,-1.800537109375,-2.8533935546875
2.4499999,-9.955090522766113,-0.19632454216480255,1.9321208000183105,-3.082275390625,1.6021728515625,-6.1798095703125
2.4699999,-10.065223693847656,-0.31124621629714966,1.8914192914962769,0.152587890625,1.9989013671875,-4.8980712890625
2.4899999,-10.237606048583984,-0.47165772318840027,1.8914192914962769,5.035400390625,-0.7781982421875,-0.244140625
2.5099999,-10.290278434753418,-0.586579442024231,1.920149803161621,8.636474609375,-1.9073486328125,-2.2735595703125
2.5299999,-10.15141487121582,-0.6272808313369751,2.0183119773864746,8.60595703125,0.274658203125,-3.2501220703125
2.5499999,-9.90241813659668,-0.6129156351089478,2.1523873805999756,0.518798828125,4.486083984375,0.2288818359375
2.5699999,-9.528923034667969,-0.7254431247711182,2.0590133666992188,-8.0413818359375,8.6822509765625,-0.3662109375
2.5899999,-9.418789863586426,-0.790086567401886,1.9704279899597168,7.965087890625,2.044677734375,0.8544921875
2.6099999,-9.409213066101074,-0.8619126081466675,1.7310078144073486,23.49853515625,-7.7056884765625,2.0904541015625
2.6299999,-9.579200744628906,-0.7829039692878723,1.6424223184585571,22.03369140625,-6.195068359375,1.3427734375
2.6499999,-9.684545516967773,-0.5147533416748047,1.7956513166427612,13.6566162109375,-1.15966796875,-1.77001953125
2.6699999,-9.679757118225098,-0.19871874153614044,2.0877439975738525,3.0364990234375,5.096435546875,-4.4403076171875
2.6899999,-9.636661529541016,0.031124621629714966,2.403778553009033,-5.3863525390625,11.932373046875,-6.011962890625
2.7099999,-9.564835548400879,0.08379705995321274,2.6001031398773193,-8.85009765625,16.448974609375,-7.7667236328125
2.7299999,-9.567230224609375,-0.031124621629714966,2.604891538619995,-8.6212158203125,17.9290771484375,-8.026123046875
2.7499999,-9.636661529541016,-0.27054479718208313,2.4229321479797363,-7.4310302734375,17.4713134765625,-6.0882568359375
2.7699999,-9.782708168029785,-0.5554547905921936,2.126051187515259,-5.3253173828125,16.448974609375,-4.1351318359375
2.7899999,-9.921571731567383,-0.7924807667732239,1.7836803197860718,-0.8392333984375,14.6942138671875,-3.1280517578125
2.8099999,-10.11789608001709,-0.9409212470054626,1.4987702369689941,4.6539306640625,11.9476318359375,-0.9613037109375
2.8299999,-10.280701637268066,-0.993593692779541,1.3096283674240112,9.1400146484375,7.0037841796875,-0.06103515625
2.8499999,-10.484209060668945,-0.9600749015808105,1.2306196689605713,12.6800537109375,3.9215087890625,-0.762939453125
2.8699999,-10.613495826721191,-0.8619126081466675,1.2497732639312744,15.228271484375,2.5787353515625,-3.7994384765625
2.8899999,-10.718840599060059,-0.730231523513794,1.3263877630233765,15.9454345703125,0.79345703125,-4.6539306640625
2.9099999,-10.855310440063477,-0.6248866319656372,1.3886369466781616,15.0909423828125,1.129150390625,-7.2479248046875
2.9299999,-10.896012306213379,-0.5578489899635315,1.4484920501708984,14.190673828125,-4.3792724609375,-14.9688720703125
2.9499999,-10.8720703125,-0.5793967843055725,1.45806884765625,12.4359130859375,-7.8887939453125,-16.9219970703125
2.9699999,-10.711658477783203,-0.6512228846549988,1.4413094520568848,11.90185546875,0.5340576171875,-13.946533203125
2.9899999,-10.429142951965332,-0.7493851184844971,1.400607943534851,10.7421875,7.598876953125,-11.16943359375
3.0099999,-10.103530883789062,-0.8595184087753296,1.3670891523361206,8.3160400390625,6.1492919921875,-9.3841552734375
3.0299999,-9.837775230407715,-0.9624691009521484,1.3431471586227417,5.2642822265625,4.3792724609375,-6.072998046875
3.0499999,-9.622296333312988,-1.0654197931289673,1.3479355573654175,1.7852783203125,5.9051513671875,-3.47900390625
3.0699999,-9.445125579833984,-1.1635819673538208,1.3646949529647827,-2.288818359375,9.368896484375,-4.180908203125
3.0899999,-9.277531623840332,-1.2617442607879639,1.37906014919281,-5.4473876953125,12.5732421875,-6.2103271484375
3.1099999,-9.148244857788086,-1.3646949529647827,1.37906014919281,-7.293701171875,13.0767822265625,-5.6915283203125
3.1299999,-9.038111686706543,-1.45806884765625,1.3623007535934448,-8.544921875,9.9334716796875,-3.6163330078125
3.1499999,-8.937555313110352,-1.5538369417190552,1.338358759880066,-9.5672607421875,6.011962890625,-2.8228759765625
3.1699999,-8.863334655761719,-1.625662922859192,1.316810965538025,-10.3607177734375,5.0506591796875,-2.0294189453125
3.1899999,-8.789113998413086,-1.6663644313812256,1.2976573705673218,-11.260986328125,5.218505859375,-0.5035400390625
3.2099999,-8.731653213500977,-1.678335428237915,1.292868971824646,-12.3291015625,6.28662109375,0.9307861328125
3.2299999,-8.719682693481445,-1.656787633895874,1.3000515699386597,-13.336181640625,9.6893310546875,1.40380859375
3.2499999,-8.760383605957031,-1.6065093278884888,1.3215993642807007,-14.2974853515625,13.00048828125,-0.244140625
3.2699999,-8.83939266204834,-1.5394717454910278,1.3503297567367554,-15.07568359375,12.6953125,-0.9918212890625
3.2899999,-8.96389102935791,-1.4460978507995605,1.3910311460494995,-16.143798828125,8.392333984375,1.2664794921875
3.3099999,-9.07641887664795,-1.3551181554794312,1.4413094520568848,-18.00537109375,2.9144287109375,2.410888671875
3.3299999000000002,-9.165003776550293,-1.2665326595306396,1.5083470344543457,-20.2178955078125,1.129150390625,1.7242431640625
3.3499999,-9.222464561462402,-1.1899182796478271,1.5682021379470825,-22.3236083984375,3.8299560546875,2.960205078125
3.3699999,-9.258378028869629,-1.1252747774124146,1.6208745241165161,-23.7274169921875,4.425048828125,6.744384765625
3.3899999,-9.334992408752441,-1.0606313943862915,1.659181833267212,-24.993896484375,1.6021728515625,9.6588134765625
3.4099999,-9.466673851013184,-0.9864110946655273,1.6687586307525635,-26.336669921875,-2.2430419921875,8.056640625
3.4299999,-9.627084732055664,-0.8906430602073669,1.659181833267212,-27.191162109375,-4.608154296875,4.6234130859375
3.4499999,-9.768342971801758,-0.7948749661445618,1.6208745241165161,-26.0009765625,-4.7149658203125,4.5623779296875
3.4699999,-9.86889934539795,-0.6751648783683777,1.5610195398330688,-24.444580078125,-5.584716796875,8.7127685546875
3.4899999,-9.938331604003906,-0.5482721924781799,1.4939818382263184,-24.200439453125,-3.3416748046875,10.162353515625
3.5099999,-9.998186111450195,-0.42616790533065796,1.4245500564575195,-25.146484375,2.593994140625,8.4075927734375
3.5299999,-10.070012092590332,-0.33039984107017517,1.3718775510787964,-27.9541015625,5.5084228515625,8.8958740234375
3.5499999,-10.15141487121582,-0.24181437492370605,1.3287819623947144,-31.18896484375,4.913330078125,9.918212890625
3.5699999,-10.213664054870605,-0.19632454216480255,1.2856862545013428,-27.16064453125,0.946044921875,9.1400146484375
3.5899999,-10.254365921020508,-0.1867477297782898,1.2330138683319092,-25.0396728515625,-0.152587890625,7.4920654296875
3.6099999,-10.266336441040039,-0.17717093229293823,1.173158884048462,-28.99169921875,-0.8697509765625,7.080078125
3.6299999,-10.251971244812012,-0.21308395266532898,1.1037269830703735,-22.6287841796875,-1.983642578125,7.5225830078125
3.6499999,-10.24000072479248,-0.21547815203666687,1.0462661981582642,-15.0299072265625,-0.579833984375,6.2408447265625
3.6699999,-10.237606048583984,-0.19393034279346466,1.0223240852355957,-12.7716064453125,0.9002685546875,6.4697265625
3.6899999,-10.287884712219238,-0.1412578970193863,1.0223240852355957,-11.04736328125,2.6092529296875,11.077880859375
3.7099999,-10.366893768310547,-0.047884032130241394,1.0654197931289673,-8.026123046875,0.1983642578125,15.9759521484375
3.7299999,-10.45547866821289,0.06464344263076782,1.1348515748977661,-4.913330078125,-6.40869140625,18.646240234375
3.7499999,-10.520122528076172,0.19153612852096558,1.2186486721038818,-3.1280517578125,-13.0767822265625,21.453857421875
3.7699999,-10.51054573059082,0.3256114423274994,1.290474772453308,-3.7078857421875,-16.11328125,23.590087890625
3.7899999,-10.38604736328125,0.4141969084739685,1.3311761617660522,-2.50244140625,-15.4571533203125,23.773193359375
3.8099999,-10.168174743652344,0.45250412821769714,1.3215993642807007,-2.471923828125,-10.406494140625,23.92578125
3.8299999000000002,-9.940725326538086,0.42856210470199585,1.2856862545013428,-3.326416015625,-3.570556640625,24.84130859375
3.8499999,-9.799467086791992,0.3447650372982025,1.2449848651885986,-3.5400390625,-2.227783203125,23.1781005859375
3.8699999,-9.806650161743164,0.2059013396501541,1.213860273361206,-4.3182373046875,-6.4697265625,15.6097412109375
3.8899999,-9.871294021606445,-0.014365210197865963,1.161187767982483,-2.74658203125,-5.1422119140625,1.617431640625
3.9099999,-9.897629737854004,-0.2561795711517334,1.0773907899856567,2.44140625,1.3275146484375,-8.819580078125
3.9299999,-9.8784761428833,-0.5315127968788147,0.9720458984375,3.265380859375,3.23486328125,-6.0577392578125
3.9499999,-9.880870819091797,-0.7565677165985107,0.8810662031173706,6.2408447265625,-1.220703125,-2.5787353515625
3.9699999,-9.852140426635742,-0.912190854549408,0.8451532125473022,11.077880859375,-8.2550048828125,-3.60107421875
3.9899999,-9.981427192687988,-0.9552865028381348,0.9074024558067322,13.214111328125,-11.5814208984375,1.7242431640625
4.0099999,-10.06043529510498,-0.8667010068893433,1.0534487962722778,12.5274658203125,-9.521484375,7.293701171875
4.029999900000001,-10.20648193359375,-0.6488286852836609,1.2641384601593018,8.1939697265625,-6.89697265625,9.8724365234375
4.0499999,-10.307038307189941,-0.2992752194404602,1.5155296325683594,0.885009765625,-3.814697265625,10.589599609375
4.069999900000001,-10.402806282043457,0.11013327538967133,1.742978811264038,-3.8604736328125,-2.593994140625,9.613037109375
4.0899999000000005,-10.383652687072754,0.49320554733276367,1.922544002532959,-0.732421875,-4.5623779296875,6.89697265625
4.1099999,-10.259154319763184,0.7876923680305481,2.03507137298584,0.640869140625,-7.6751708984375,1.7852783203125
4.1299999000000005,-10.070012092590332,0.9457096457481384,2.0829553604125977,-1.3275146484375,-9.82666015625,0.0152587890625
4.1499999,-9.84256362915039,0.9720458984375,2.0877439975738525,-2.1820068359375,-10.009765625,2.01416015625
4.1699999000000005,-9.622296333312988,0.9169792532920837,2.049436569213867,-1.6326904296875,-6.9580078125,5.615234375
4.1899999,-9.430760383605957,0.8164227604866028,1.9776105880737305,-0.91552734375,-4.7454833984375,10.3302001953125
4.209999900000001,-9.30386734008789,0.7110779285430908,1.886630892753601,-1.03759765625,-5.9814453125,13.946533203125
4.2299999,-9.241618156433105,0.6200982332229614,1.7836803197860718,-2.4261474609375,-8.0413818359375,12.6495361328125
4.249999900000001,-9.220070838928223,0.5219359993934631,1.6831238269805908,-3.72314453125,-5.6915283203125,7.5836181640625
4.2699999,-9.227252960205078,0.40462008118629456,1.5873557329177856,-3.9520263671875,0.4730224609375,6.256103515625
4.289999900000001,-9.296685218811035,0.28969839215278625,1.5155296325683594,-3.7078857421875,3.9520263671875,8.36181640625
4.3099999,-9.437943458557129,0.17238251864910126,1.4939818382263184,-2.25830078125,2.593994140625,6.7596435546875
4.329999900000001,-9.684545516967773,0.10055647045373917,1.5298948287963867,-1.068115234375,0.1983642578125,3.753662109375
4.3499999,-9.995792388916016,0.0933738648891449,1.6184803247451782,-0.1220703125,0.54931640625,1.6937255859375
4.369999900000001,-10.287884712219238,0.1364694982767105,1.7070658206939697,1.617431640625,3.23486328125,-1.251220703125
4.3899999,-10.505757331848145,0.21547815203666687,1.7717092037200928,4.6844482421875,2.349853515625,-4.5318603515625
4.409999900000001,-10.623072624206543,0.31124621629714966,1.7956513166427612,7.7667236328125,-1.9073486328125,-4.9285888671875
4.4299999,-10.625467300415039,0.40701428055763245,1.7836803197860718,9.979248046875,-5.06591796875,-4.57763671875
4.449999900000001,-10.520122528076172,0.4908113479614258,1.742978811264038,11.077880859375,-4.180908203125,-6.6070556640625
4.4699999,-10.314221382141113,0.545877993106842,1.678335428237915,12.26806640625,-0.3509521484375,-9.6282958984375
4.489999900000001,-10.031704902648926,0.5434837937355042,1.5969325304031372,13.5650634765625,1.9073486328125,-9.09423828125
4.5099999,-9.730035781860352,0.47884035110473633,1.5107412338256836,14.129638671875,1.617431640625,-5.401611328125
4.529999900000001,-9.435548782348633,0.33758243918418884,1.4293384552001953,14.58740234375,0.6103515625,-3.96728515625
4.5499999,-9.205705642700195,0.1628057211637497,1.3742717504501343,15.106201171875,1.03759765625,-4.852294921875
4.569999900000001,-9.083600997924805,0,1.357512354850769,15.0909423828125,3.4942626953125,-5.3253173828125
4.5899999000000005,-9.071630477905273,-0.12689268589019775,1.3838485479354858,14.22119140625,6.256103515625,-6.5460205078125
4.609999900000001,-9.172186851501465,-0.20350714027881622,1.4437036514282227,12.298583984375,6.6680908203125,-8.1024169921875
4.6299999000000005,-9.332598686218262,-0.2346317619085312,1.525106430053711,9.429931640625,4.45556640625,-8.392333984375
4.6499999,-9.516951560974121,-0.24899697303771973,1.601720929145813,6.8817138671875,4.2266845703125,-6.805419921875
4.6699999000000005,-9.684545516967773,-0.2561795711517334,1.647210717201233,5.0201416015625,4.150390625,-4.364013671875
4.6899999,-9.806650161743164,-0.26096799969673157,1.659181833267212,3.7384033203125,2.62451171875,-4.791259765625
4.709999900000001,-9.876082420349121,-0.26336219906806946,1.6400281190872192,3.387451171875,2.655029296875,-7.2174072265625
4.7299999,-9.873687744140625,-0.24899697303771973,1.6041151285171509,3.8909912109375,0.823974609375,-6.591796875
4.749999900000001,-9.770736694335938,-0.21547815203666687,1.5610195398330688,3.6773681640625,-2.8533935546875,-3.570556640625
4.7699999,-9.59835433959961,-0.14604631066322327,1.53707754611969,3.0670166015625,-3.2196044921875,-1.6632080078125
4.789999900000001,-9.385271072387695,-0.05267243832349777,1.5179238319396973,2.4566650390625,1.4801025390625,0.06103515625
4.8099999,-9.193734169006348,0.05985504388809204,1.522712230682373,1.8768310546875,5.1422119140625,4.45556640625
4.829999900000001,-9.222464561462402,0.1843535304069519,1.5610195398330688,1.5869140625,6.04248046875,10.19287109375
4.8499999,-9.706093788146973,0.2537853717803955,1.6519991159439087,0.79345703125,-0.8392333984375,6.744384765625
4.869999900000001,-10.065223693847656,0.3280056416988373,1.7070658206939697,-1.434326171875,-9.429931640625,-11.932373046875
4.8899999,-10.831368446350098,0.2513911724090576,1.7501614093780518,-0.7476806640625,-10.55908203125,-0.30517578125
4.909999900000001,-10.893617630004883,0.2585737705230713,1.7190368175506592,2.8076171875,-10.498046875,8.1024169921875
4.9299999,-10.797849655151367,0.2298433631658554,1.7405846118927002,3.8299560546875,-8.4381103515625,6.9427490234375
4.949999900000001,-10.395624160766602,0.21787235140800476,1.766920804977417,2.593994140625,-7.2021484375,1.64794921875
4.9699999,-9.93354320526123,0.24420857429504395,1.8291701078414917,1.46484375,-8.4991455078125,-1.1138916015625
4.989999900000001,-9.68694019317627,0.23942017555236816,1.965639591217041,-0.030517578125,-6.988525390625,1.1138916015625
5.0099999,-9.552865028381348,0.26096799969673157,2.099714994430542,-4.1656494140625,-3.2958984375,4.1961669921875
5.029999900000001,-9.516951560974121,0.2801215946674347,2.1930887699127197,-11.3372802734375,1.77001953125,4.8370361328125
5.0499999,-9.528923034667969,0.31364041566848755,2.2385785579681396,-13.3056640625,3.4332275390625,3.2806396484375
5.069999900000001,-9.560047149658203,0.363918662071228,2.2409727573394775,-12.1612548828125,2.99072265625,2.7313232421875
5.0899999000000005,-9.634267807006836,0.42616790533065796,2.145204782485962,-15.9912109375,5.1422119140625,2.7008056640625
5.109999900000001,-9.765948295593262,0.49320554733276367,1.9800047874450684,-18.585205078125,5.7220458984375,-0.4119873046875
5.1299999000000005,-9.86889934539795,0.43335050344467163,1.7621324062347412,-13.9312744140625,1.495361328125,-3.0364990234375
5.1499999,-9.93354320526123,0.14844051003456116,1.522712230682373,-5.035400390625,-2.3956298828125,2.6092529296875
5.1699999000000005,-9.919178009033203,-0.011971008032560349,1.5298948287963867,-3.5858154296875,-0.7171630859375,2.3193359375
5.1899999,-9.871294021606445,-0.05985504388809204,1.647210717201233,2.1514892578125,-3.35693359375,2.4566650390625
5.209999900000001,-9.801861763000488,0.0071826050989329815,1.8315643072128296,1.007080078125,-3.4027099609375,3.9825439453125
5.2299999,-9.749189376831055,0.1412578970193863,2.0614075660705566,-10.009765625,3.753662109375,3.326416015625
5.249999900000001,-9.66539192199707,0.28730419278144836,2.293645143508911,-19.6533203125,9.46044921875,1.9683837890625
5.2699999,-9.691728591918945,0.3208230137825012,2.3798365592956543,-21.5301513671875,10.8795166015625,4.425048828125
5.289999900000001,-9.66539192199707,0.38067805767059326,2.4133553504943848,-19.95849609375,12.0849609375,8.758544921875
5.3099999,-9.761159896850586,0.2968810200691223,2.0877439975738525,-14.46533203125,10.68115234375,6.6680908203125
5.329999900000001,-9.911994934082031,0.22266076505184174,1.7262194156646729,0.701904296875,3.72314453125,0.54931640625
5.3499999,-9.981427192687988,0.22266076505184174,1.3551181554794312,15.7928466796875,-4.57763671875,-0.48828125
5.369999900000001,-10.041281700134277,0.3663128614425659,1.173158884048462,14.83154296875,-7.3089599609375,-0.396728515625
5.3899999,-9.909601211547852,0.6009446382522583,1.2737152576446533,1.5716552734375,-3.3416748046875,-8.72802734375
5.409999900000001,-9.732429504394531,0.871489405632019,1.5969325304031372,-10.284423828125,6.622314453125,-16.66259765625
5.4299999,-9.627084732055664,0.9026140570640564,1.9608511924743652,-14.58740234375,10.772705078125,-13.275146484375
5.449999900000001,-9.655815124511719,0.7350199222564697,2.1332337856292725,-16.1285400390625,9.674072265625,-7.1258544921875
5.4699999,-9.773131370544434,0.31124621629714966,1.9919757843017578,-11.138916015625,5.3558349609375,-5.2947998046875
5.489999900000001,-9.938331604003906,-0.10055647045373917,1.6927006244659424,4.9591064453125,-0.42724609375,-6.8511962890625
5.5099999,-10.012551307678223,-0.35434186458587646,1.3982137441635132,14.434814453125,-7.6751708984375,-3.96728515625
5.529999900000001,-9.959878921508789,-0.38307225704193115,1.2330138683319092,6.317138671875,-9.70458984375,-4.3487548828125
5.5499999,-9.895236015319824,-0.2753331959247589,1.2665326595306396,-2.9754638671875,-2.2125244140625,-7.293701171875
5.569999900000001,-9.837775230407715,-0.040701430290937424,1.4460978507995605,-2.7008056640625,-0.9918212890625,-5.2337646484375
5.5899999000000005,-9.775525093078613,0.07661445438861847,1.6903064250946045,-0.701904296875,-6.988525390625,-3.1890869140625
5.609999900000001,-9.6989107131958,0.22266076505184174,1.8698714971542358,-4.730224609375,-2.3040771484375,-3.60107421875
5.6299999000000005,-9.75397777557373,0.12210428714752197,2.030282974243164,-4.425048828125,1.03759765625,-6.9122314453125
5.6499999,-9.660603523254395,0.004788403399288654,2.078166961669922,1.1138916015625,0.18310546875,-10.4217529296875
5.6699999000000005,-9.742006301879883,-0.1364694982767105,2.051830768585205,4.5013427734375,2.166748046875,-0.8544921875
5.6899999,-9.823410034179688,-0.3256114423274994,1.9991583824157715,2.13623046875,0,5.92041015625
5.709999900000001,-9.849745750427246,-0.38546648621559143,1.8746598958969116,-1.1444091796875,0.5950927734375,1.6021728515625
5.7299999,-9.90241813659668,-0.31603461503982544,1.8387469053268433,1.739501953125,-1.068115234375,1.708984375
5.749999900000001,-9.77791976928711,-0.20350714027881622,1.86508309841156,-2.4566650390625,-2.9754638671875,0.0152587890625
5.7699999,-9.739612579345703,-0.009576806798577309,1.9488801956176758,-14.70947265625,8.9263916015625,2.99072265625
5.789999900000001,-9.727641105651855,0.11971008777618408,2.0661959648132324,-22.2625732421875,11.8560791015625,5.7525634765625
5.8099999,-9.703699111938477,0.20350714027881622,1.9967641830444336,-20.4010009765625,7.62939453125,1.434326171875
5.829999900000001,-9.871294021606445,0.07900865375995636,1.8267759084701538,-6.7138671875,3.90625,3.875732421875
5.8499999,-9.861717224121094,-0.047884032130241394,1.5322890281677246,2.838134765625,-3.8909912109375,1.251220703125
5.869999900000001,-9.931148529052734,-0.16998831927776337,1.2401964664459229,5.5694580078125,-1.46484375,0.579833984375
5.8899999,-10.017339706420898,-0.22266076505184174,1.173158884048462,9.21630859375,-6.40869140625,6.65283203125
5.909999900000001,-9.897629737854004,-0.07182604819536209,1.2497732639312744,4.94384765625,-12.298583984375,4.3792724609375
5.9299999,-9.95748519897461,0.06703764945268631,1.5322890281677246,-3.0059814453125,-4.119873046875,1.4190673828125
5.949999900000001,-9.794678688049316,0.10534487664699554,1.9369091987609863,-7.2021484375,-1.1749267578125,-0.1373291015625
5.9699999,-9.684545516967773,0.16998831927776337,2.2840683460235596,-8.5906982421875,7.0343017578125,0.1373291015625
5.989999900000001,-9.62947940826416,0.3232172429561615,2.6408045291900635,-8.9569091796875,13.61083984375,4.4708251953125
6.0099999,-9.5408935546875,0.44532153010368347,2.7916390895843506,-18.8751220703125,16.7083740234375,0.4425048828125
6.029999900000001,-9.545681953430176,0.7230489253997803,2.7772738933563232,-26.4434814453125,26.3671875,-9.0179443359375
6.0499999,-9.576807022094727,0.6344634294509888,2.4660277366638184,-22.0489501953125,23.7884521484375,-9.7808837890625
6.069999900000001,-9.706093788146973,0.2849099934101105,1.8914192914962769,-13.3819580078125,19.3939208984375,-10.31494140625
6.0899999000000005,-9.871294021606445,-0.1628057211637497,1.1444283723831177,1.9073486328125,12.2528076171875,-3.0670166015625
6.109999900000001,-10.15141487121582,-0.7110779285430908,0.4405331015586853,19.134521484375,-4.119873046875,3.875732421875
6.1299999000000005,-10.223240852355957,-0.8595184087753296,0.009576806798577309,30.1055908203125,-15.19775390625,1.03759765625
6.149999900000001,-10.268731117248535,-0.751779317855835,0.06224924325942993,27.679443359375,-18.9666748046875,2.349853515625
6.1699999000000005,-10.127472877502441,-0.5434837937355042,0.5027823448181152,10.7879638671875,-14.5111083984375,2.5177001953125
6.1899999,-9.859322547912598,-0.11013327538967133,1.2234370708465576,-6.256103515625,-2.8533935546875,2.593994140625
6.209999900000001,-9.734824180603027,0.15801730751991272,2.030282974243164,-14.7247314453125,1.7852783203125,7.0343017578125
6.2299999,-9.5408935546875,0.3423708379268646,2.6240451335906982,-22.857666015625,7.5836181640625,5.279541015625
6.249999900000001,-9.524134635925293,0.507570743560791,2.913743495941162,-27.5726318359375,19.4854736328125,3.2501220703125
6.2699999,-9.543288230895996,0.40940847992897034,2.75812029838562,-22.27783203125,17.9595947265625,-0.30517578125
6.289999900000001,-9.655815124511719,0.2968810200691223,2.255337953567505,-10.3759765625,12.939453125,-4.730224609375
6.3099999,-9.907206535339355,0.12210428714752197,1.525106430053711,0.3509521484375,5.6915283203125,-0.6866455078125
6.329999900000001,-10.086771965026855,-0.14365209639072418,0.8427590131759644,13.824462890625,-7.0037841796875,1.0528564453125
6.3499999,-10.20648193359375,-0.16759411990642548,0.3926490843296051,23.62060546875,-10.1165771484375,-4.4403076171875
6.369999900000001,-10.218452453613281,-0.27054479718208313,0.40462008118629456,24.169921875,-15.31982421875,-3.2958984375
6.3899999,-10.031704902648926,-0.17717093229293823,0.7086837291717529,10.7574462890625,-11.199951171875,-2.4871826171875
6.409999900000001,-9.84256362915039,-0.09576806426048279,1.2497732639312744,-3.204345703125,-2.3651123046875,0.79345703125
6.4299999,-9.775525093078613,-0.13407529890537262,1.8507179021835327,-9.0179443359375,-0.54931640625,6.4849853515625
6.449999900000001,-9.603142738342285,-0.06224924325942993,2.183511972427368,-10.650634765625,3.3111572265625,5.3558349609375
6.4699999,-9.720458984375,-0.05506663769483566,2.315192937850952,-10.68115234375,4.8675537109375,7.659912109375
6.489999900000001,-9.732429504394531,-0.002394201699644327,2.2002713680267334,-11.627197265625,2.7008056640625,4.791259765625
6.5099999,-9.727641105651855,0.1867477297782898,1.9345149993896484,-8.270263671875,5.9051513671875,-0.1068115234375
6.529999900000001,-9.921571731567383,0.20111294090747833,1.6950948238372803,0.091552734375,1.739501953125,2.38037109375
6.5499999,-9.852140426635742,0.2585737705230713,1.4197616577148438,4.5013427734375,-2.6397705078125,-0.518798828125
6.569999900000001,-10.014945983886719,0.20350714027881622,1.3239935636520386,5.43212890625,-0.5035400390625,-0.762939453125
6.5899999000000005,-9.979032516479492,0.07900865375995636,1.3718775510787964,6.2255859375,-2.655029296875,-0.1983642578125
6.609999900000001,-9.84495735168457,0.09576806426048279,1.4724340438842773,4.5623779296875,2.8228759765625,-3.173828125
6.6299999000000005,-9.856928825378418,0,1.6184803247451782,2.288818359375,3.47900390625,0.18310546875
6.649999900000001,-9.706093788146973,0.047884032130241394,1.6974890232086182,-1.007080078125,0.6561279296875,0.579833984375
6.6699999000000005,-9.780313491821289,0.17238251864910126,1.7310078144073486,-5.37109375,5.6915283203125,-1.6021728515625
6.6899999,-9.799467086791992,0.14365209639072418,1.7525556087493896,-7.7056884765625,3.1890869140625,-0.1220703125
6.709999900000001,-9.797073364257812,0.1628057211637497,1.6615760326385498,-7.293701171875,4.4403076171875,-2.74658203125
6.7299999,-9.84495735168457,0.07661445438861847,1.5729905366897583,-3.2806396484375,3.84521484375,-1.2969970703125
6.749999900000001,-9.830592155456543,-0.11252748221158981,1.4748282432556152,0.8697509765625,-1.312255859375,2.655029296875
6.7699999,-9.823410034179688,-0.11971008777618408,1.3551181554794312,1.9683837890625,0.8087158203125,1.007080078125
6.789999900000001,-9.895236015319824,-0.1604115068912506,1.3670891523361206,1.983642578125,-0.9918212890625,4.5318603515625
6.8099999,-9.9000244140625,-0.1388636976480484,1.3982137441635132,3.3721923828125,-2.38037109375,3.021240234375
6.829999900000001,-9.90241813659668,0,1.4293384552001953,5.584716796875,-0.274658203125,0.8697509765625
6.8499999,-9.986215591430664,0.0454898327589035,1.5634137392044067,5.5084228515625,-2.62451171875,3.41796875
6.869999900000001,-9.861717224121094,0.21547815203666687,1.6089035272598267,-0.4425048828125,0.946044921875,0.3814697265625
6.8899999,-9.859322547912598,0.31603461503982544,1.7693150043487549,-7.293701171875,4.7149658203125,1.4495849609375
6.909999900000001,-9.758766174316406,0.3495534360408783,1.8267759084701538,-11.8560791015625,4.119873046875,2.166748046875
6.9299999,-9.68933391571045,0.2825157940387726,1.8267759084701538,-11.90185546875,9.27734375,0.4119873046875
6.949999900000001,-9.773131370544434,0.10295066982507706,1.6927006244659424,-4.5623779296875,6.9580078125,3.7994384765625
6.9699999,-9.830592155456543,-0.07182604819536209,1.434126853942871,3.8299560546875,-1.8768310546875,4.21142578125
6.989999900000001,-9.943120002746582,-0.12928688526153564,1.1228805780410767,9.70458984375,-4.39453125,1.190185546875
7.0099999,-10.014945983886719,-0.021547814831137657,1.0127472877502441,12.8936767578125,-6.7596435546875,0.244140625
7.029999900000001,-9.952696800231934,0.1412578970193863,0.9624691009521484,12.5579833984375,-10.0555419921875,-1.220703125
7.0499999,-9.888052940368652,0.36152446269989014,1.192312479019165,10.6658935546875,-6.77490234375,-5.6304931640625
7.069999900000001,-9.797073364257812,0.47884035110473633,1.5538369417190552,7.4005126953125,-2.899169921875,-6.317138671875
7.0899999000000005,-9.72285270690918,0.49320554733276367,1.9345149993896484,-0.1983642578125,2.13623046875,-3.8604736328125
7.109999900000001,-9.679757118225098,0.42856210470199585,2.2385785579681396,-5.4473876953125,8.1329345703125,-4.82177734375
7.1299999000000005,-9.639056205749512,0.2753331959247589,2.319981336593628,-6.744384765625,11.41357421875,-4.4403076171875
7.149999900000001,-9.679757118225098,0.16759411990642548,2.2385785579681396,-7.9345703125,12.0391845703125,-2.0904541015625
7.1699999000000005,-9.72285270690918,0.031124621629714966,1.9919757843017578,-8.60595703125,9.796142578125,-1.190185546875
7.1899999,-9.823410034179688,-0.06703764945268631,1.6352397203445435,-3.5400390625,10.7574462890625,-3.0059814453125
7.209999900000001,-9.897629737854004,-0.17238251864910126,1.2880805730819702,4.4403076171875,5.4473876953125,-3.204345703125
7.2299999,-9.95748519897461,-0.20111294090747833,1.01753568649292,7.843017578125,0.9765625,-0.8544921875
7.249999900000001,-10.002974510192871,-0.2346317619085312,0.871489405632019,5.9661865234375,-1.6326904296875,1.3885498046875
7.2699999,-9.995792388916016,-0.14844051003456116,0.9433154463768005,5.889892578125,-1.4190673828125,0.2899169921875
7.289999900000001,-9.950302124023438,0,1.1444283723831177,4.69970703125,0.030517578125,0.0457763671875
7.3099999,-9.880870819091797,0.22505496442317963,1.455674648284912,-6.591796875,5.0201416015625,-1.2054443359375
7.329999900000001,-9.794678688049316,0.40222588181495667,1.7693150043487549,-21.728515625,9.429931640625,-2.1209716796875
7.3499999,-9.725247383117676,0.49799394607543945,1.9632453918457031,-30.1513671875,12.7410888671875,-2.471923828125
7.369999900000001,-9.727641105651855,0.35673606395721436,2.051830768585205,-31.8756103515625,16.0675048828125,0.6866455078125
7.3899999,-9.751583099365234,0.11013327538967133,1.800439715385437,-26.702880859375,16.7236328125,2.8076171875
7.409999900000001,-9.871294021606445,-0.2106897532939911,1.436521053314209,-12.3291015625,10.711669921875,2.0294189453125
7.4299999,-9.979032516479492,-0.3423708379268646,1.0558429956436157,-0.213623046875,3.173828125,3.997802734375
7.449999900000001,-9.96945571899414,-0.2298433631658554,0.8786720037460327,-5.859375,1.007080078125,5.9051513671875
7.4699999,-10.053253173828125,-0.033518824726343155,0.8164227604866028,-24.261474609375,7.6141357421875,3.143310546875
7.489999900000001,-8.7268648147583,0.05027823522686958,0.8619126081466675,-22.64404296875,10.2386474609375,3.387451171875
7.5099999,-7.953537940979004,-0.28730419278144836,0.9840168952941895,6.3323974609375,10.6658935546875,27.4810791015625
7.529999900000001,-6.698976516723633,-0.7374141216278076,0.9983820915222168,36.6668701171875,-1.495361328125,5.79833984375
7.5499999,-6.947973251342773,-1.1851298809051514,1.036689281463623,39.1693115234375,8.6669921875,19.6990966796875
7.569999900000001,-8.178592681884766,-0.9193734526634216,1.292868971824646,13.5498046875,13.0767822265625,31.005859375
7.5899999000000005,-10.06043529510498,-0.05267243832349777,1.4891934394836426,-4.2724609375,15.0909423828125,30.3955078125
7.609999900000001,-11.669339179992676,1.1444283723831177,1.6328455209732056,-36.6363525390625,25.5889892578125,19.6990966796875
7.6299999000000005,-12.378023147583008,2.1164743900299072,1.678335428237915,-44.9981689453125,26.67236328125,0.0762939453125
7.649999900000001,-12.51209831237793,2.5234885215759277,1.4389152526855469,-50.78125,23.5748291015625,-5.9661865234375
7.6699999000000005,-12.181697845458984,2.1763293743133545,1.0606313943862915,-56.060791015625,23.7884521484375,0.3509521484375
7.6899999,-11.611878395080566,1.4891934394836426,0.7565677165985107,-56.6253662109375,24.810791015625,7.38525390625
7.709999900000001,-10.939107894897461,0.7038952708244324,0.4141969084739685,-53.985595703125,23.6968994140625,9.2010498046875
7.7299999,-10.273519515991211,-0.0071826050989329815,-0.043095629662275314,-36.0107421875,17.7764892578125,4.7149658203125
7.749999900000001,-9.799467086791992,-0.38546648621559143,-0.4141969084739685,5.0811767578125,-4.4097900390625,4.9591064453125
7.7699999,-9.560047149658203,-0.4141969084739685,-0.6129156351089478,31.0821533203125,-21.4691162109375,4.8828125
7.789999900000001,-9.627084732055664,-0.08379705995321274,-0.43095630407333374,13.7176513671875,-16.7694091796875,1.7547607421875
7.8099999,-9.799467086791992,0.45489832758903503,0.06703764945268631,-15.5181884765625,-2.7008056640625,-6.7138671875
7.829999900000001,-9.99339771270752,0.9241618514060974,0.5961562395095825,-24.5208740234375,4.180908203125,-11.566162109375
7.8499999,-10.15141487121582,0.9983820915222168,0.871489405632019,-13.092041015625,-1.1749267578125,-8.2244873046875
7.869999900000001,-10.182539939880371,0.7230489253997803,0.9720458984375,3.8604736328125,-10.406494140625,-3.2806396484375
7.8899999,-10.055646896362305,0.35434186458587646,1.0534487962722778,10.009765625,-7.4462890625,2.9144287109375
7.909999900000001,-9.816226959228516,0.10534487664699554,1.1994950771331787,1.953125,7.1258544921875,7.01904296875
7.9299999,-9.57441234588623,0.07422025501728058,1.2856862545013428,-9.2315673828125,16.510009765625,6.2103271484375
7.949999900000001,-9.409213066101074,0.20111294090747833,1.1803414821624756,-8.36181640625,13.9312744140625,3.265380859375
7.9699999,-9.390059471130371,0.42856210470199585,0.8978256583213806,2.7313232421875,7.26318359375,1.220703125
7.989999900000001,-9.47146224975586,0.6607996821403503,0.6129156351089478,8.8653564453125,3.0517578125,-3.6468505859375
8.0099999,-9.583989143371582,0.8547300100326538,0.5099649429321289,3.11279296875,3.7994384765625,-9.3841552734375
8.0299999,-9.718064308166504,0.9361328482627869,0.5626373887062073,-8.9263916015625,11.3983154296875,-9.3841552734375
8.049999900000001,-9.849745750427246,0.8571242094039917,0.7038952708244324,-11.474609375,19.012451171875,-7.415771484375
8.069999900000001,-9.96945571899414,0.6248866319656372,0.7709329724311829,-2.1514892578125,18.8140869140625,-7.4615478515625
8.0899999,-10.091560363769531,0.37828385829925537,0.7254431247711182,5.6610107421875,13.8397216796875,-6.2408447265625
8.1099999,-10.132261276245117,0.21308395266532898,0.5793967843055725,1.2969970703125,13.1988525390625,-4.7607421875
8.129999900000001,-10.139444351196289,0.22266076505184174,0.3758896589279175,-7.568359375,13.458251953125,-3.6468505859375
8.149999900000001,-10.091560363769531,0.31364041566848755,0.22026655077934265,-9.4146728515625,10.31494140625,-5.6304931640625
8.1699999,-10.000580787658691,0.3902548849582672,0.08619125932455063,-9.9639892578125,10.284423828125,-11.1236572265625
8.1899999,-9.943120002746582,0.4213795065879822,0.08619125932455063,-6.744384765625,12.5732421875,-10.4827880859375
8.2099999,-9.749189376831055,0.7829039692878723,-0.3495534360408783,-3.2958984375,20.2178955078125,-11.6729736328125
8.229999900000001,-9.708487510681152,0.4620809257030487,-0.023942016065120697,-98.0377197265625,40.46630859375,-20.5078125
8.2499999,-9.548076629638672,0.5961562395095825,-0.272938996553421,-21.6217041015625,35.3240966796875,-23.8800048828125
8.2699999,-9.63187313079834,0.1628057211637497,0.08619125932455063,-1.434326171875,39.1845703125,-21.1334228515625
8.2899999,-9.734824180603027,-0.1628057211637497,0.19393034279346466,-11.260986328125,46.8902587890625,-22.5830078125
8.309999900000001,-9.93593692779541,-0.4692635238170624,0.047884032130241394,-2.8839111328125,33.905029296875,-17.4407958984375
8.3299999,-10.254365921020508,-0.7589619159698486,-0.31124621629714966,7.415771484375,10.5133056640625,0.0457763671875
8.3499999,-10.596736907958984,-0.9552865028381348,-0.7829039692878723,16.693115234375,-0.06103515625,12.359619140625
8.3699999,-10.919954299926758,-1.094150185585022,-1.235408067703247,23.040771484375,-9.2010498046875,15.716552734375
8.389999900000001,-11.097125053405762,-0.9840168952941895,-1.4437036514282227,26.7333984375,-17.6544189453125,16.05224609375
8.4099999,-11.116278648376465,-0.6224924325942993,-1.4077905416488647,24.1241455078125,-20.5078125,18.1732177734375
8.4299999,-10.984597206115723,-0.090979665517807,-1.3072341680526733,10.7574462890625,-21.3470458984375,16.937255859375
8.4499999,-10.771512985229492,0.35913026332855225,-1.0845733880996704,-1.556396484375,-29.541015625,10.4217529296875
8.469999900000001,-10.536881446838379,0.6751648783683777,-0.8882488012313843,1.220703125,-36.8499755859375,8.60595703125
8.4899999,-10.3549222946167,0.6727706789970398,-0.6536170840263367,8.5906982421875,-37.200927734375,11.688232421875
8.5099999,-10.08198356628418,0.6033388376235962,-0.3495534360408783,24.2919921875,-37.65869140625,9.33837890625
8.5299999,-9.749189376831055,0.4596867263317108,0.12928688526153564,25.5126953125,-34.7137451171875,2.716064453125
8.549999900000001,-9.373299598693848,0.49559974670410156,0.6919242739677429,11.138916015625,-22.369384765625,1.5411376953125
8.569999900000001,-9.01895809173584,0.5363011956214905,1.2521674633026123,-4.180908203125,-3.570556640625,1.9073486328125
8.5899999,-8.853757858276367,0.5123591423034668,1.678335428237915,-8.087158203125,9.613037109375,2.349853515625
8.6099999,-8.920795440673828,0.35673606395721436,1.721431016921997,-2.4261474609375,15.7623291015625,4.425048828125
8.629999900000001,-9.227252960205078,0.181959331035614,1.45806884765625,6.4697265625,14.373779296875,7.2021484375
8.649999900000001,-9.617507934570312,0.09576806426048279,0.9959878921508789,10.4522705078125,10.0860595703125,8.4686279296875
8.6699999,-10.031704902648926,0.08858546614646912,0.395043283700943,6.9580078125,9.94873046875,4.364013671875
8.6899999,-10.465055465698242,0.038307227194309235,-0.2801215946674347,21.697998046875,0.7476806640625,1.3427734375
8.709999900000001,-10.828974723815918,0.0071826050989329815,-0.9481038451194763,57.3272705078125,-23.4527587890625,2.0751953125
8.729999900000001,-11.111490249633789,-0.08379705995321274,-1.525106430053711,79.6966552734375,-45.83740234375,0.2288818359375
8.7499999,-11.216835021972656,0.031124621629714966,-1.6639702320098877,80.8258056640625,-54.19921875,-7.720947265625
8.7699999,-11.027692794799805,0.3232172429561615,-1.1851298809051514,80.657958984375,-55.0384521484375,-13.7176513671875
8.7899999,-10.556035041809082,0.751779317855835,-0.14365209639072418,67.2760009765625,-48.9501953125,-14.0380859375
8.809999900000001,-9.897629737854004,1.070208191871643,1.1492167711257935,44.8455810546875,-26.67236328125,-8.5906982421875
8.8299999,-9.148244857788086,1.2186486721038818,2.3582887649536133,22.3541259765625,1.5411376953125,-5.157470703125
8.8499999,-8.705317497253418,1.1420341730117798,3.0837318897247314,1.9073486328125,22.4761962890625,1.03759765625
8.8699999,-8.585607528686523,0.8355764150619507,2.8347349166870117,-9.4757080078125,29.4952392578125,-1.3885498046875
8.889999900000001,-8.949525833129883,0.5315127968788147,2.22660756111145,13.3819580078125,9.9639892578125,1.800537109375
8.9099999,-9.452308654785156,0.2968810200691223,1.2066776752471924,18.1732177734375,-0.152587890625,2.8533935546875
8.9299999,-9.947908401489258,0.21308395266532898,0.5147533416748047,13.458251953125,-2.044677734375,-1.922607421875
8.9499999,-10.180145263671875,0.29209262132644653,0.29209262132644653,11.6119384765625,2.227783203125,-1.64794921875
8.969999900000001,-10.18493366241455,0.3687070608139038,0.3711012601852417,8.758544921875,7.0648193359375,-2.197265625
8.9899999,-9.988609313964844,0.4213795065879822,0.8068459630012512,4.4097900390625,10.1776123046875,0.274658203125
9.0099999,-9.876082420349121,0.43335050344467163,0.8930372595787048,2.3193359375,6.195068359375,-0.1373291015625
9.0299999,-9.801861763000488,0.4429273009300232,0.8930372595787048,-1.0528564453125,11.7950439453125,2.3345947265625
9.049999900000001,-10.249577522277832,0.5506663918495178,0.8930372595787048,-4.82177734375,16.357421875,0.579833984375
9.069999900000001,-10.182539939880371,0.6320692300796509,0.7326257228851318,-8.30078125,21.392822265625,-15.045166015625
9.0899999,-11.085153579711914,0.8044517636299133,0.706289529800415,-10.07080078125,14.1448974609375,-6.927490234375
9.1099999,-11.044452667236328,0.8475474119186401,0.6009446382522583,-12.2833251953125,7.8887939453125,-16.7083740234375
9.129999900000001,-11.26950740814209,0.8954314589500427,0.4812345504760742,-20.7366943359375,11.41357421875,-12.6953125
9.149999900000001,-11.082759857177734,0.7182605266571045,0.3280056416988373,-13.8092041015625,9.1705322265625,-4.0435791015625
9.1699999,-10.594342231750488,0.545877993106842,0.090979665517807,6.6680908203125,-0.18310546875,-14.6636962890625
9.1899999,-10.129867553710938,0.16998831927776337,-0.16759411990642548,25.177001953125,-11.04736328125,-16.815185546875
9.209999900000001,-9.603142738342285,-0.181959331035614,-0.3064578175544739,35.247802734375,-16.3421630859375,-14.404296875
9.229999900000001,-9.129091262817383,-0.47884035110473633,-0.23702596127986908,37.17041015625,-15.56396484375,-10.25390625
9.2499999,-8.765172004699707,-0.6368576288223267,0.08379705995321274,29.4036865234375,-11.6729736328125,-4.1656494140625
9.2699999,-8.501810073852539,-0.6224924325942993,0.5602431893348694,15.8538818359375,-4.608154296875,1.6326904296875
9.2899999,-8.422801971435547,-0.42616790533065796,1.048660397529602,2.838134765625,6.0882568359375,5.126953125
9.309999900000001,-8.573636054992676,-0.16998831927776337,1.3862427473068237,-5.9661865234375,14.6942138671875,4.94384765625
9.3299999,-8.911218643188477,0.11013327538967133,1.4532804489135742,-7.9498291015625,16.7083740234375,2.166748046875
9.3499999,-9.385271072387695,0.33039984107017517,1.235408067703247,-8.056640625,15.1214599609375,0.8544921875
9.3699999,-9.84495735168457,0.4405331015586853,0.8236053586006165,-6.3629150390625,12.8326416015625,-1.5869140625
9.389999900000001,-10.230423927307129,0.4357447028160095,0.3495534360408783,-0.579833984375,7.659912109375,-3.875732421875
9.4099999,-10.465055465698242,0.33758243918418884,-0.05985504388809204,4.5013427734375,0.0457763671875,-3.936767578125
9.4299999,-10.575188636779785,0.22026655077934265,-0.28969839215278625,5.950927734375,-4.4403076171875,-3.11279296875
9.4499999,-10.522516250610352,0.11252748221158981,-0.33039984107017517,6.53076171875,-4.8370361328125,-4.364013671875
9.469999900000001,-10.44350814819336,0.021547814831137657,-0.272938996553421,9.9639892578125,-6.4697265625,-6.2713623046875
9.4899999,-10.38604736328125,-0.07422025501728058,-0.12449848651885986,20.9197998046875,-11.138916015625,-5.79833984375
9.5099999,-10.433931350708008,-0.1867477297782898,0.009576806798577309,31.158447265625,-14.0838623046875,-5.55419921875
9.5299999,-10.560823440551758,-0.2322375625371933,0.21787235140800476,32.5775146484375,-13.702392578125,-3.692626953125
9.549999900000001,-10.663774490356445,-0.15083470940589905,0.5171475410461426,27.6336669921875,-11.322021484375,-4.8370361328125
9.569999900000001,-10.790667533874512,0.06464344263076782,0.828393816947937,20.172119140625,-7.4615478515625,-6.5765380859375
9.5899999,-10.852916717529297,0.27054479718208313,1.1109095811843872,11.9781494140625,-3.692626953125,-8.544921875
9.6099999,-11.075576782226562,0.5003881454467773,1.3048399686813354,5.615234375,-0.579833984375,-11.16943359375
9.629999900000001,-11.286267280578613,0.47644615173339844,1.3120225667953491,2.7618408203125,-2.01416015625,-16.845703125
9.649999900000001,-11.535264015197754,0.45010992884635925,1.2330138683319092,3.173828125,-9.33837890625,-17.3797607421875
9.6699999,-11.54244613647461,0.30885201692581177,1.1444283723831177,2.777099609375,-4.1046142578125,-15.56396484375
9.6899999,-11.36048698425293,0.16519992053508759,0.9097966551780701,-3.72314453125,9.3536376953125,-17.2882080078125
9.709999900000001,-10.951078414916992,0.009576806798577309,0.7038952708244324,-2.8076171875,15.8843994140625,-19.95849609375
9.729999900000001,-10.496180534362793,-0.1412578970193863,0.45010992884635925,4.9591064453125,6.53076171875,-19.3023681640625
9.7499999,-10.053253173828125,-0.2825157940387726,0.21547815203666687,11.3067626953125,-2.410888671875,-16.3421630859375
9.7699999,-9.651026725769043,-0.40222588181495667,0.0694318488240242,15.5029296875,-3.662109375,-14.007568359375
9.7899999,-9.30386734008789,-0.45250412821769714,0.035913024097681046,18.49365234375,-0.885009765625,-10.467529296875
9.809999900000001,-9.002198219299316,-0.48602294921875,0.09576806426048279,19.95849609375,-1.1138916015625,-8.9569091796875
9.8299999,-8.796297073364258,-0.47644615173339844,0.22744916379451752,19.195556640625,-2.4871826171875,-9.3994140625
9.8499999,-8.705317497253418,-0.4668693244457245,0.38067805767059326,16.8914794921875,-7.0343017578125,-10.833740234375
9.8699999,-8.652645111083984,-0.4620809257030487,0.5291185975074768,13.1988525390625,-17.0135498046875,-9.8876953125
9.889999900000001,-8.578424453735352,-0.47165772318840027,0.6512228846549988,7.9498291015625,-14.7857666015625,-5.5389404296875
9.9099999,-8.47786808013916,-0.5123591423034668,0.7110779285430908,6.195068359375,5.5999755859375,-0.1678466796875
9.9299999,-8.379706382751465,-0.5578489899635315,0.730231523513794,7.049560546875,19.0582275390625,4.33349609375
9.9499999,-8.396465301513672,-0.6057330369949341,0.7134721279144287,5.4931640625,18.0206298828125,5.4779052734375
9.969999900000001,-8.56645393371582,-0.6440402865409851,0.6823474764823914,3.4027099609375,10.7879638671875,3.84521484375
9.9899999,-8.848969459533691,-0.667982280254364,0.6631938815116882,2.6702880859375,4.9591064453125,1.129150390625
10.0099999,-9.129091262817383,-0.7158663272857666,0.6584054827690125,2.01416015625,1.6326904296875,-0.6866455078125
10.0299999,-9.363722801208496,-0.7613561153411865,0.6799532771110535,-1.495361328125,-0.335693359375,0.54931640625
10.049999900000001,-9.516951560974121,-0.8307880163192749,0.7110779285430908,-3.5247802734375,0.1373291015625,3.2196044921875
10.069999900000001,-9.636661529541016,-0.9145850539207458,0.751779317855835,-3.8299560546875,0.91552734375,5.279541015625
10.0899999,-9.768342971801758,-0.993593692779541,0.7972691655158997,-3.90625,-0.2288818359375,4.4097900390625
10.1099999,-9.923966407775879,-1.0989385843276978,0.8451532125473022,-3.9520263671875,-1.15966796875,-0.396728515625
10.129999900000001,-10.101137161254883,-1.2258312702178955,0.8858546018600464,-4.57763671875,-3.0059814453125,-5.8441162109375
10.149999900000001,-10.287884712219238,-1.3479355573654175,0.9409212470054626,-6.988525390625,-6.3323974609375,-11.1083984375
10.1699999,-10.438719749450684,-1.479616641998291,0.993593692779541,-10.6048583984375,-6.9580078125,-17.8680419921875
10.1899999,-10.589553833007812,-1.6065093278884888,1.0558429956436157,-12.5732421875,-3.72314453125,-24.0478515625
10.209999900000001,-10.766724586486816,-1.7166426181793213,1.1252747774124146,-13.763427734375,0.518798828125,-30.76171875
10.229999900000001,-10.922348022460938,-1.8555063009262085,1.192312479019165,-15.3350830078125,0.48828125,-42.5872802734375
10.2499999,-11.075576782226562,-2.0207061767578125,1.2545616626739502,-17.120361328125,-4.150390625,-56.4727783203125
10.2699999,-11.164162635803223,-2.2146365642547607,1.314416766166687,-19.2108154296875,-9.796142578125,-67.1539306640625
10.2899999,-11.152191162109375,-2.434903144836426,1.3694833517074585,-21.8658447265625,-12.725830078125,-76.96533203125
10.309999900000001,-11.037269592285156,-2.693476915359497,1.4269442558288574,-25.054931640625,-13.7481689453125,-87.554931640625
10.3299999,-10.812214851379395,-2.9281086921691895,1.479616641998291,-29.96826171875,-15.7623291015625,-96.6796875
10.3499999,-10.474632263183594,-3.138798475265503,1.5179238319396973,-30.364990234375,-19.5159912109375,-104.67529296875
10.3699999,-10.02691650390625,-3.2848446369171143,1.5298948287963867,-28.7322998046875,-19.8516845703125,-113.58642578125
10.389999900000001,-9.531316757202148,-3.3734302520751953,1.522712230682373,-24.71923828125,-14.5263671875,-122.1771240234375
10.4099999,-9.045293807983398,-3.4380736351013184,1.5059528350830078,-23.223876953125,-4.669189453125,-129.8828125
10.4299999,-8.688557624816895,-3.5170822143554688,1.4676456451416016,-23.223876953125,2.349853515625,-135.9405517578125
10.4499999,-8.458714485168457,-3.6343982219696045,1.403002142906189,-23.4375,0.3509521484375,-140.0909423828125
10.469999900000001,-8.336610794067383,-3.804386615753174,1.314416766166687,-24.0631103515625,-8.697509765625,-142.059326171875
10.4899999,-8.259995460510254,-4.031835556030273,1.2042834758758545,-25.2532958984375,-17.578125,-141.3421630859375
10.5099999,-8.149862289428711,-4.304774761199951,1.1013327836990356,-28.0303955078125,-22.4761962890625,-137.4053955078125
10.5299999,-8.006210327148438,-4.623203277587891,1.0295066833496094,-28.472900390625,-23.37646484375,-133.3465576171875
10.549999900000001,-7.817068576812744,-4.987122058868408,0.9840168952941895,-26.763916015625,-20.8282470703125,-130.5084228515625
10.569999900000001,-7.592013359069824,-5.374982833862305,0.9816226959228516,-24.8565673828125,-16.9830322265625,-126.7852783203125
10.5899999,-7.338228225708008,-5.758055210113525,0.9983820915222168,-23.895263671875,-12.8326416015625,-123.199462890625
10.6099999,-7.110779285430908,-6.129156112670898,1.015141487121582,-23.13232421875,-10.406494140625,-120.6207275390625
10.629999900000001,-6.950367450714111,-6.478709697723389,1.0055646896362305,-21.8963623046875,-13.0462646484375,-118.34716796875
10.649999900000001,-6.801927089691162,-6.8043212890625,0.9648633003234863,-20.5841064453125,-20.355224609375,-116.1651611328125
10.6699999,-6.643909931182861,-7.105990409851074,0.9026140570640564,-20.20263671875,-26.092529296875,-113.8916015625
10.6899999,-6.445190906524658,-7.371747016906738,0.8164227604866028,-20.0958251953125,-25.482177734375,-111.38916015625
10.709999900000001,-6.19379997253418,-7.589619159698486,0.7326257228851318,-19.256591796875,-25.0701904296875,-110.443115234375
10.729999900000001,-5.916072368621826,-7.757213592529297,0.6344634294509888,-18.646240234375,-25.543212890625,-110.504150390625
10.7499999,-5.602431774139404,-7.905653953552246,0.5339069962501526,-17.791748046875,-22.2015380859375,-108.917236328125
10.7699999,-5.224148273468018,-8.054094314575195,0.44771572947502136,-16.082763671875,-17.303466796875,-105.8502197265625
10.7899999,-4.788403511047363,-8.221688270568848,0.3758896589279175,-14.09912109375,-10.43701171875,-101.2420654296875
10.809999900000001,-4.307168960571289,-8.38449478149414,0.31124621629714966,-11.7645263671875,-2.655029296875,-95.9930419921875
10.8299999,-3.840299606323242,-8.53293514251709,0.2346317619085312,-7.1258544921875,2.4871826171875,-91.5985107421875
10.8499999,-3.3854012489318848,-8.650250434875488,0.15322890877723694,0.5645751953125,2.2430419921875,-87.982177734375
10.8699999,-2.9496564865112305,-8.769960403442383,0.11252748221158981,8.1024169921875,2.9296875,-84.7625732421875
10.889999900000001,-2.5689783096313477,-8.89685344696045,0.1412578970193863,10.7269287109375,10.9710693359375,-81.390380859375
10.9099999,-2.2457611560821533,-9.071630477905273,0.21547815203666687,8.9263916015625,21.484375,-77.3468017578125
10.9299999,-1.9728221893310547,-9.251194953918457,0.33758243918418884,9.5367431640625,22.2015380859375,-72.5250244140625
10.9499999,-1.745373010635376,-9.41400146484375,0.45010992884635925,10.1318359375,15.7623291015625,-66.925048828125
10.969999900000001,-1.534683346748352,-9.528923034667969,0.524330198764801,10.43701171875,11.0015869140625,-58.4716796875
10.9899999,-1.3910311460494995,-9.617507934570312,0.5722141861915588,9.4757080078125,6.65283203125,-48.5992431640625
11.0099999,-1.2713210582733154,-9.655815124511719,0.6033388376235962,10.43701171875,0.2593994140625,-38.970947265625
11.0299999,-1.1683704853057861,-9.672574996948242,0.6392518281936646,12.3748779296875,-5.6915283203125,-30.914306640625
11.049999900000001,-1.1180921792984009,-9.68933391571045,0.6847416758537292,11.8408203125,-9.4451904296875,-23.37646484375
11.069999900000001,-1.0055646896362305,-9.670180320739746,0.7876923680305481,8.11767578125,-10.8489990234375,-15.7012939453125
11.0899999,-0.9457096457481384,-9.701305389404297,0.9074024558067322,3.5552978515625,-3.8299560546875,-8.7738037109375
11.1099999,-0.9672574996948242,-9.770736694335938,1.0055646896362305,-2.3651123046875,7.26318359375,-3.2806396484375
11.129999900000001,-1.0582371950149536,-9.892841339111328,1.0319008827209473,-5.43212890625,10.1470947265625,-0.9613037109375
11.149999900000001,-1.2449848651885986,-10.067618370056152,0.9744400978088379,-3.72314453125,3.8909912109375,-1.7242431640625
11.1699999,-1.403002142906189,-10.216058731079102,0.871489405632019,-1.77001953125,3.2958984375,-5.126953125
11.1899999,-1.4844050407409668,-10.323798179626465,0.7493851184844971,-1.0986328125,14.3890380859375,-10.2996826171875
11.209999900000001,-1.5418659448623657,-10.42195987701416,0.6416460275650024,1.89208984375,20.5841064453125,-13.73291015625
11.229999900000001,-1.5418659448623657,-10.498574256896973,0.569819986820221,6.8359375,13.5650634765625,-13.5345458984375
11.2499999,-1.501164436340332,-10.541669845581055,0.5386953949928284,10.0250244140625,6.04248046875,-12.5732421875
11.2699999,-1.3766659498214722,-10.520122528076172,0.5770025849342346,10.68115234375,7.5531005859375,-13.6871337890625
11.2899999,-1.173158884048462,-10.409989356994629,0.6703764796257019,9.2315673828125,12.5579833984375,-13.641357421875
11.309999900000001,-0.9265560507774353,-10.228029251098633,0.7924807667732239,8.0413818359375,12.1002197265625,-10.8795166015625
11.3299999,-0.689530074596405,-10.041281700134277,0.9169792532920837,7.415771484375,8.4228515625,-7.2174072265625
11.3499999,-0.5482721924781799,-9.914389610290527,1.0055646896362305,5.462646484375,8.97216796875,-4.119873046875
11.3699999,-0.5530605912208557,-9.940725326538086,1.0821791887283325,3.204345703125,13.031005859375,-1.28173828125
11.389999900000001,-0.8044517636299133,-10.381258964538574,1.237802267074585,7.965087890625,6.28662109375,-9.2315673828125
11.4099999,-0.7829039692878723,-10.512939453125,1.3024457693099976,3.2958984375,-2.105712890625,-32.9742431640625
11.4299999,-0.8140285611152649,-10.72841739654541,1.3862427473068237,-1.77001953125,-0.7476806640625,-32.8216552734375
11.4499999,-0.4213795065879822,-10.44350814819336,1.3670891523361206,-1.8310546875,-0.18310546875,-25.8941650390625
11.469999900000001,-0.09816227108240128,-10.254365921020508,1.3287819623947144,-2.5482177734375,6.439208984375,-15.5792236328125
11.4899999,0.2082955539226532,-9.964667320251465,1.3239935636520386,3.9520263671875,0.274658203125,-11.3372802734375
11.5099999,0.33279404044151306,-9.952696800231934,1.37906014919281,-0.7476806640625,-2.6397705078125,-10.31494140625
11.5299999,0.33039984107017517,-9.928754806518555,1.525106430053711,-5.5999755859375,-2.0751953125,-3.7994384765625
11.549999900000001,0.33039984107017517,-9.825803756713867,1.6424223184585571,-10.5438232421875,-0.1983642578125,-3.631591796875
11.569999900000001,0.15562310814857483,-9.720458984375,1.7621324062347412,-13.4124755859375,1.708984375,-4.9896240234375
11.5899999,-0.08379705995321274,-9.62947940826416,1.8124107122421265,-16.632080078125,4.669189453125,-9.6893310546875
11.6099999,-0.3495534360408783,-9.512163162231445,1.8100165128707886,-21.1029052734375,6.2713623046875,-15.167236328125
11.629999900000001,-0.5913678407669067,-9.39245319366455,1.7717092037200928,-25.6195068359375,3.3111572265625,-19.2718505859375
11.649999900000001,-0.8164227604866028,-9.38048267364502,1.5849615335464478,-32.2418212890625,-2.3956298828125,-26.9317626953125
11.6699999,-0.9169792532920837,-9.552865028381348,1.0797849893569946,-28.86962890625,-15.5487060546875,-43.548583984375
11.6899999,-0.44771572947502136,-10.065223693847656,0.33039984107017517,-0.9002685546875,-33.7677001953125,-52.4749755859375
11.709999900000001,0.36152446269989014,-10.278307914733887,-0.43095630407333374,25.4364013671875,-43.9300537109375,-19.5770263671875
11.729999900000001,1.599326729774475,-10.745177268981934,-0.9241618514060974,20.751953125,-22.613525390625,16.510009765625
11.7499999,2.2457611560821533,-10.599130630493164,-0.8331822156906128,7.8125,4.69970703125,25.69580078125
11.7699999,2.3774423599243164,-10.359710693359375,-0.11252748221158981,2.7618408203125,16.876220703125,11.6729736328125
11.7899999,1.6974890232086182,-10.062829971313477,0.6847416758537292,-6.53076171875,30.3802490234375,-6.8817138671875
11.809999900000001,0.8547300100326538,-9.821015357971191,1.2545616626739502,-9.796142578125,29.0069580078125,-11.7645263671875
11.8299999,0.19871874153614044,-9.713275909423828,1.359906554222107,-3.692626953125,6.5460205078125,-2.288818359375
11.8499999,-0.19871874153614044,-9.75637149810791,1.0079588890075684,1.5411376953125,-1.5411376953125,2.9754638671875
11.8699999,-0.2777273952960968,-9.84256362915039,0.6991068720817566,7.4920654296875,1.52587890625,-3.997802734375
11.889999900000001,-0.17477671802043915,-9.871294021606445,0.5363011956214905,2.3651123046875,1.1444091796875,-4.6844482421875
11.9099999,0.08140286058187485,-9.926360130310059,0.5674257874488831,-3.5552978515625,-0.4425048828125,-0.5340576171875
11.9299999,0.3423708379268646,-9.907206535339355,0.6943184733390808,0.1373291015625,0.579833984375,0.8087158203125
11.9499999,0.4812345504760742,-9.923966407775879,0.7374141216278076,1.1444091796875,1.6021728515625,1.4495849609375
11.969999900000001,0.5434837937355042,-9.921571731567383,0.7493851184844971,0.457763671875,0.5340576171875,-1.6326904296875
11.9899999,0.5363011956214905,-9.9000244140625,0.7733271718025208,1.617431640625,0.030517578125,-2.4261474609375
12.0099999,0.5578489899635315,-9.911994934082031,0.790086567401886,0.3814697265625,0.8392333984375,0.67138671875
12.0299999,0.5578489899635315,-9.890447616577148,0.7948749661445618,-0.244140625,0.946044921875,1.9989013671875
12.049999900000001,0.5003881454467773,-9.897629737854004,0.7996633648872375,0.67138671875,0.6561279296875,0.9002685546875
12.069999900000001,0.4141969084739685,-9.890447616577148,0.811634361743927,0.6256103515625,0.7171630859375,-1.3580322265625
12.0899999,0.35434186458587646,-9.880870819091797,0.811634361743927,0.18310546875,0.274658203125,-2.532958984375
12.1099999,0.3711012601852417,-9.888052940368652,0.8068459630012512,0.152587890625,0.396728515625,-1.0986328125
12.129999900000001,0.4429273009300232,-9.895236015319824,0.790086567401886,0.5950927734375,0.732421875,0.9002685546875
12.149999900000001,0.49320554733276367,-9.895236015319824,0.7805097699165344,1.2054443359375,0.8544921875,1.3427734375
12.1699999,0.4812345504760742,-9.904812812805176,0.7924807667732239,0.18310546875,0.885009765625,0.3204345703125
12.1899999,0.42856210470199585,-9.883264541625977,0.8044517636299133,-0.4425048828125,0.396728515625,-1.3427734375
12.209999900000001,0.395043283700943,-9.880870819091797,0.8188169598579407,0.7476806640625,0.3662109375,-1.7547607421875
12.229999900000001,0.4141969084739685,-9.8784761428833,0.811634361743927,0.7476806640625,0.762939453125,-0.6256103515625
12.2499999,0.4668693244457245,-9.883264541625977,0.7924807667732239,0.2593994140625,0.701904296875,0.335693359375
12.2699999,0.5003881454467773,-9.895236015319824,0.7948749661445618,0.4425048828125,0.67138671875,0.67138671875
12.289999900000002,0.4908113479614258,-9.890447616577148,0.8092401623725891,0.579833984375,0.7781982421875,0.244140625
12.309999900000001,0.4429273009300232,-9.883264541625977,0.8140285611152649,0.0457763671875,0.579833984375,-0.579833984375
12.3299999,0.40222588181495667,-9.885659217834473,0.8164227604866028,-0.030517578125,0.4119873046875,-1.1444091796875
12.3499999,0.40222588181495667,-9.880870819091797,0.8188169598579407,0.9002685546875,0.6866455078125,-1.2054443359375
12.3699999,0.44532153010368347,-9.888052940368652,0.8044517636299133,0.67138671875,0.640869140625,-0.5035400390625
12.389999900000001,0.4884171485900879,-9.9000244140625,0.7972691655158997,-0.06103515625,0.640869140625,0.6256103515625
12.4099999,0.4908113479614258,-9.890447616577148,0.8140285611152649,0.42724609375,0.885009765625,0.8087158203125
12.4299999,0.44532153010368347,-9.880870819091797,0.828393816947937,0.396728515625,0.701904296875,-0.335693359375
12.4499999,0.3926490843296051,-9.890447616577148,0.8307880163192749,-0.48828125,0.396728515625,-1.495361328125
12.469999900000001,0.3878606855869293,-9.871294021606445,0.8259995579719543,0.274658203125,0.396728515625,-1.9683837890625
12.4899999,0.43335050344467163,-9.897629737854004,0.8164227604866028,1.0223388671875,0.67138671875,-0.4730224609375
12.5099999,0.48602294921875,-9.895236015319824,0.8044517636299133,0.396728515625,0.7781982421875,0.9613037109375
12.5299999,0.49559974670410156,-9.9000244140625,0.8164227604866028,-0.2288818359375,0.79345703125,0.9765625
12.549999900000001,0.44771572947502136,-9.895236015319824,0.8355764150619507,-0.213623046875,0.79345703125,-0.5950927734375
12.569999900000001,0.3974374830722809,-9.888052940368652,0.8403648138046265,0.2899169921875,0.335693359375,-1.922607421875
12.5899999,0.395043283700943,-9.888052940368652,0.8307880163192749,0.1678466796875,0.54931640625,-1.312255859375
12.6099999,0.4429273009300232,-9.890447616577148,0.8164227604866028,0.4425048828125,0.67138671875,-0.091552734375
12.629999900000001,0.49320554733276367,-9.90241813659668,0.811634361743927,0.48828125,0.732421875,0.823974609375
12.649999900000001,0.5003881454467773,-9.9000244140625,0.8236053586006165,-0.0152587890625,0.7476806640625,0.518798828125
12.6699999,0.4620809257030487,-9.9000244140625,0.8427590131759644,-0.0762939453125,0.6103515625,-0.6103515625
12.6899999,0.4165911078453064,-9.895236015319824,0.849941611289978,-0.0457763671875,0.518798828125,-1.3427734375
12.709999900000001,0.4118026793003082,-9.890447616577148,0.8451532125473022,0.18310546875,0.5340576171875,-1.0833740234375
12.729999900000001,0.45010992884635925,-9.890447616577148,0.8379706144332886,0.640869140625,0.6866455078125,-0.1220703125
12.7499999,0.4908113479614258,-9.895236015319824,0.8307880163192749,0.396728515625,0.701904296875,0.579833984375
12.7699999,0.49320554733276367,-9.890447616577148,0.8379706144332886,-0.0152587890625,0.6561279296875,0.518798828125
12.789999900000002,0.40462008118629456,-9.885659217834473,0.849941611289978,0.1678466796875,0.54931640625,-1.2969970703125
12.809999900000001,0.3974374830722809,-9.885659217834473,0.8547300100326538,0.5340576171875,0.6103515625,-1.3885498046875
12.8299999,0.4357447028160095,-9.888052940368652,0.8427590131759644,0.244140625,0.6561279296875,-0.274658203125
12.8499999,0.4812345504760742,-9.890447616577148,0.8355764150619507,0.0762939453125,0.701904296875,0.79345703125
12.8699999,0.48602294921875,-9.888052940368652,0.8403648138046265,0.3662109375,0.8392333984375,0.8087158203125
12.889999900000001,0.44771572947502136,-9.885659217834473,0.8523358106613159,0.1678466796875,0.6866455078125,-0.6256103515625
12.9099999,0.40462008118629456,-9.880870819091797,0.8571242094039917,-0.274658203125,0.4119873046875,-1.6937255859375
12.9299999,0.3998316824436188,-9.885659217834473,0.8595184087753296,0.1678466796875,0.48828125,-1.3580322265625
12.9499999,0.4429273009300232,-9.885659217834473,0.8547300100326538,0.823974609375,0.6866455078125,-0.06103515625
12.969999900000001,0.4884171485900879,-9.890447616577148,0.8427590131759644,0.274658203125,0.7171630859375,0.8392333984375
12.9899999,0.49320554733276367,-9.892841339111328,0.8475474119186401,-0.1678466796875,0.7171630859375,0.5340576171875
13.0099999,0.4572925269603729,-9.883264541625977,0.8595184087753296,0.213623046875,0.579833984375,-0.6561279296875
13.0299999,0.4165911078453064,-9.883264541625977,0.871489405632019,0.244140625,0.457763671875,-1.3580322265625
13.049999900000001,0.40940847992897034,-9.880870819091797,0.8690952062606812,0,0.5340576171875,-1.0223388671875
13.069999900000001,0.4429273009300232,-9.890447616577148,0.8619126081466675,0.1678466796875,0.640869140625,-0.1983642578125
