# Time (seconds),Accel_X,Accel_Y,Accel_Z,Gyro_X,Gyro_Y,Gyro_Z
0.0099999,0.2561795711517334,-9.940725326538086,0.24420857429504395,-0.2288818359375,0.5340576171875,-0.06103515625
0.029999900000000003,0.29209262132644653,-9.943120002746582,0.24420857429504395,0,0.67138671875,0.3204345703125
0.0499999,0.2968810200691223,-9.943120002746582,0.23942017555236816,0.0152587890625,0.5950927734375,0.640869140625
0.0699999,0.2777273952960968,-9.93593692779541,0.24899697303771973,0.0762939453125,0.7476806640625,0.213623046875
0.08999990000000001,0.2322375625371933,-9.931148529052734,0.24899697303771973,-0.396728515625,0.5645751953125,-0.823974609375
0.10999990000000001,0.19632454216480255,-9.926360130310059,0.2513911724090576,-0.4119873046875,0.54931640625,-1.6326904296875
0.1299999,0.20350714027881622,-9.928754806518555,0.2561795711517334,-0.06103515625,0.6866455078125,-1.6021728515625
0.14999990000000002,0.23942017555236816,-9.938331604003906,0.24181437492370605,-0.4119873046875,0.5340576171875,-0.274658203125
0.1699999,0.29209262132644653,-9.947908401489258,0.23942017555236816,0.030517578125,0.6561279296875,0.5950927734375
0.1899999,0.33039984107017517,-9.940725326538086,0.3064578175544739,0.152587890625,0.7781982421875,0.6561279296875
0.20999990000000002,0.3519476354122162,-9.952696800231934,0.33279404044151306,-2.4566650390625,2.1209716796875,0.7781982421875
0.2299999,0.3519476354122162,-9.938331604003906,0.33518823981285095,0.5035400390625,5.615234375,0.8697509765625
0.2499999,0.3471592366695404,-9.945513725280762,0.2992752194404602,0.244140625,-1.28173828125,2.1820068359375
0.2699999,0.2849099934101105,-9.950302124023438,0.19393034279346466,1.190185546875,-0.9765625,1.8157958984375
0.28999990000000003,0.2082955539226532,-9.928754806518555,0.1843535304069519,1.3427734375,1.8463134765625,-0.0457763671875
0.3099999,0.08140286058187485,-9.93354320526123,0.14604631066322327,-1.9073486328125,0.3814697265625,-1.220703125
0.3299999,0.040701430290937424,-9.93354320526123,0.16519992053508759,-0.8392333984375,-0.0762939453125,-3.2958984375
0.34999990000000003,-0.05746084079146385,-9.93354320526123,0.16998831927776337,1.7852783203125,-0.67138671875,-1.9683837890625
0.3699999,-0.17238251864910126,-9.981427192687988,0.11252748221158981,-0.335693359375,-4.7149658203125,0.0762939453125
0.3899999,-0.24660277366638184,-10.000580787658691,0.10295066982507706,-0.1678466796875,-10.7574462890625,2.7313232421875
0.40999990000000003,-0.24181437492370605,-10.034099578857422,0.12210428714752197,1.2664794921875,-11.2457275390625,4.45556640625
0.4299999,-0.11252748221158981,-10.046070098876953,0.2106897532939911,1.52587890625,-4.425048828125,5.7373046875
0.4499999,0.08858546614646912,-10.105925559997559,0.2753331959247589,-1.2969970703125,3.3416748046875,7.99560546875
0.4699999,0.3016694188117981,-10.187328338623047,0.36152446269989014,-3.082275390625,2.105712890625,14.6331787109375
0.4899999,0.4381389021873474,-10.335768699645996,0.395043283700943,-7.0037841796875,-5.0048828125,26.9775390625
0.5099999,0.45250412821769714,-10.532093048095703,0.31603461503982544,-9.3841552734375,-2.99072265625,36.2396240234375
0.5299999,0.38067805767059326,-10.735600471496582,0.19393034279346466,-6.89697265625,-0.213623046875,36.6058349609375
0.5499999,0.16759411990642548,-10.939107894897461,0.040701430290937424,1.312255859375,2.227783203125,27.28271484375
0.5699999,-0.18914192914962769,-11.130643844604492,-0.15322890877723694,10.6201171875,7.75146484375,12.5579833984375
0.5899998999999999,-0.4812345504760742,-11.264719009399414,-0.24420857429504395,16.17431640625,5.035400390625,-0.7171630859375
0.6099998999999999,-0.6033388376235962,-11.348516464233398,-0.2106897532939911,16.11328125,-1.77001953125,-7.293701171875
0.6299999,-0.5602431893348694,-11.386823654174805,-0.08140286058187485,9.9945068359375,-2.4261474609375,-4.913330078125
0.6499999,-0.33997663855552673,-11.348516464233398,0.10055647045373917,0.8544921875,-2.593994140625,2.960205078125
0.6699999,-0.090979665517807,-11.245565414428711,0.24420857429504395,-7.232666015625,-8.209228515625,8.72802734375
0.6899999,0.08619125932455063,-11.070788383483887,0.2944868206977844,-13.702392578125,-13.97705078125,12.5579833984375
0.7099999,0.15801730751991272,-10.805032730102539,0.2585737705230713,-20.5841064453125,-14.70947265625,16.7236328125
0.7299998999999999,0.181959331035614,-10.512939453125,0.17717093229293823,-27.5115966796875,-11.5203857421875,19.2413330078125
0.7499998999999999,0.17717093229293823,-10.230423927307129,0.06703764945268631,-33.294677734375,-8.453369140625,23.0712890625
0.7699999,0.1843535304069519,-9.998186111450195,-0.07900865375995636,-38.4979248046875,-8.6669921875,33.8592529296875
0.7899999,0.17238251864910126,-9.830592155456543,-0.2585737705230713,-44.036865234375,-17.1356201171875,50.1251220703125
0.8099999,0.19153612852096558,-9.68694019317627,-0.4118026793003082,-50.35400390625,-23.7274169921875,66.46728515625
0.8299999,0.11252748221158981,-9.536105155944824,-0.6057330369949341,-53.680419921875,-9.857177734375,79.254150390625
0.8499998999999999,-0.12210428714752197,-9.385271072387695,-0.8236053586006165,-50.59814453125,4.547119140625,89.66064453125
0.8699998999999999,-0.5889736413955688,-9.215282440185547,-1.1037269830703735,-43.609619140625,1.5106201171875,98.57177734375
0.8899999,-1.2856862545013428,-9.006986618041992,-1.414973258972168,-33.6761474609375,-6.40869140625,99.029541015625
0.9099999,-2.027888774871826,-8.822632789611816,-1.6543933153152466,-20.8892822265625,-4.6844482421875,92.3309326171875
0.9299999,-2.808398485183716,-8.655038833618164,-1.8171991109848022,-10.19287109375,0.9307861328125,88.4552001953125
0.9499999,-3.4380736351013184,-8.508993148803711,-1.8291701078414917,-1.3427734375,-6.378173828125,89.2791748046875
0.9699998999999999,-4.259284973144531,-8.360552787780762,-1.5083470344543457,10.0860595703125,-2.9144287109375,69.610595703125
0.9899998999999999,-4.412513732910156,-8.288725852966309,-1.2066776752471924,5.035400390625,7.6904296875,68.4967041015625
1.0099999,-4.405331134796143,-8.192957878112793,-0.8690952062606812,-6.89697265625,1.3580322265625,76.6754150390625
1.0299999,-4.316745758056641,-8.068459510803223,-0.5626373887062073,-19.287109375,-9.979248046875,86.181640625
1.0499999,-4.285621166229248,-7.886500358581543,-0.3758896589279175,-29.6630859375,-13.9617919921875,96.6949462890625
1.0699999,-4.3622355461120605,-7.649474620819092,-0.31364041566848755,-38.6505126953125,-20.7672119140625,108.7493896484375
1.0899999,-4.572925090789795,-7.359776020050049,-0.3663128614425659,-44.7235107421875,-32.379150390625,117.1722412109375
1.1099999,-4.8722004890441895,-7.036558628082275,-0.48602294921875,-46.1578369140625,-35.2783203125,117.401123046875
1.1299999,-5.197812080383301,-6.722918510437012,-0.6320692300796509,-46.0662841796875,-25.9246826171875,116.0888671875
1.1499999,-5.568912982940674,-6.45476770401001,-0.7924807667732239,-47.54638671875,-21.1334228515625,120.4071044921875
1.1699998999999999,-5.9519853591918945,-6.248866558074951,-0.9409212470054626,-48.40087890625,-27.313232421875,123.626708984375
1.1899998999999999,-6.426037311553955,-6.133944988250732,-1.0821791887283325,-45.2423095703125,-28.86962890625,118.377685546875
1.2099999,-6.952761650085449,-6.042964935302734,-1.1851298809051514,-39.4134521484375,-16.8609619140625,107.8643798828125
1.2299999,-7.436390399932861,-5.978321552276611,-1.237802267074585,-34.576416015625,-5.340576171875,98.2666015625
1.2499999,-7.841010570526123,-5.92325496673584,-1.2689268589019775,-31.6162109375,-9.4757080078125,94.0704345703125
1.2699999,-8.17141056060791,-5.889736175537109,-1.314416766166687,-30.792236328125,-22.0184326171875,95.7489013671875
1.2899999,-8.427590370178223,-5.817910194396973,-1.359906554222107,-29.388427734375,-28.1829833984375,94.6197509765625
1.3099999,-8.631096839904785,-5.7125654220581055,-1.3934253454208374,-25.0091552734375,-23.529052734375,85.44921875
1.3299999,-8.801085472106934,-5.564124584197998,-1.4173674583435059,-21.392822265625,-19.3939208984375,77.545166015625
1.3499999,-8.942343711853027,-5.389348030090332,-1.4484920501708984,-21.3775634765625,-25.4058837890625,75.1953125
1.3699999,-8.995016098022461,-5.2265424728393555,-1.4652514457702637,-21.453857421875,-35.1715087890625,77.850341796875
1.3899999,-8.990227699279785,-5.0876784324646,-1.4724340438842773,-20.32470703125,-33.2794189453125,82.5347900390625
1.4099999,-9.004592895507812,-4.929661273956299,-1.4915876388549805,-18.7530517578125,-25.238037109375,87.9058837890625
1.4299998999999999,-9.062053680419922,-4.7189717292785645,-1.5131354331970215,-15.7470703125,-27.52685546875,88.714599609375
1.4499999,-9.188945770263672,-4.458003520965576,-1.5466543436050415,-10.0860595703125,-34.698486328125,83.31298828125
1.4699999,-9.363722801208496,-4.180276393890381,-1.5682021379470825,-4.2877197265625,-34.515380859375,79.1015625
1.4899999,-9.586383819580078,-3.9025487899780273,-1.5538369417190552,-0.457763671875,-31.280517578125,78.6590576171875
1.5099999,-9.799467086791992,-3.6583402156829834,-1.4724340438842773,2.9754638671875,-34.576416015625,73.0133056640625
1.5299999,-10.012551307678223,-3.464409828186035,-1.3335703611373901,6.072998046875,-37.353515625,61.2945556640625
1.5499999,-10.156203269958496,-3.308786630630493,-1.161187767982483,6.4849853515625,-32.6385498046875,52.6123046875
1.5699999,-10.141838073730469,-3.2106244564056396,-0.950498104095459,4.33349609375,-28.839111328125,52.24609375
1.5899999,-10.02452278137207,-3.1052796840667725,-0.751779317855835,1.8157958984375,-29.296875,57.5103759765625
1.6099999,-9.818621635437012,-2.983175277709961,-0.5889736413955688,-0.1220703125,-28.167724609375,60.6231689453125
1.6299999,-9.63187313079834,-2.806004285812378,-0.4692635238170624,-2.2430419921875,-22.613525390625,62.713623046875
1.6499999,-9.564835548400879,-2.583343744277954,-0.43335050344467163,-4.241943359375,-17.333984375,66.1773681640625
1.6699999,-9.617507934570312,-2.319981336593628,-0.4644751250743866,-4.6844482421875,-21.2554931640625,64.5294189453125
1.6899998999999999,-9.761159896850586,-2.0685901641845703,-0.5578489899635315,-2.5634765625,-25.421142578125,54.534912109375
1.7099999,-9.909601211547852,-1.8363527059555054,-0.6847416758537292,1.1138916015625,-21.3775634765625,43.0755615234375
1.7299999,-9.979032516479492,-1.659181833267212,-0.7972691655158997,4.6234130859375,-16.4337158203125,36.9873046875
1.7499999,-9.947908401489258,-1.5394717454910278,-0.8690952062606812,7.7362060546875,-17.76123046875,34.8052978515625
1.7699999,-9.849745750427246,-1.4676456451416016,-0.9002198576927185,11.3525390625,-19.8822021484375,31.9061279296875
1.7899999,-9.718064308166504,-1.3958195447921753,-0.8762778043746948,15.3350830078125,-19.7906494140625,29.0069580078125
1.8099999,-9.583989143371582,-1.3000515699386597,-0.8020575642585754,18.4783935546875,-18.0206298828125,28.1219482421875
1.8299999,-9.485827445983887,-1.170764684677124,-0.6871358752250671,20.8282470703125,-16.0064697265625,26.2908935546875
1.8499999,-9.44991397857666,-1.0199298858642578,-0.5410895943641663,23.590087890625,-13.2598876953125,20.5535888671875
1.8699999,-9.493009567260742,-0.8595184087753296,-0.37828385829925537,25.57373046875,-11.04736328125,13.9923095703125
1.8899999,-9.593565940856934,-0.7230489253997803,-0.2082955539226532,24.688720703125,-10.650634765625,10.406494140625
1.9099999,-9.701305389404297,-0.6200982332229614,-0.05506663769483566,22.3388671875,-10.955810546875,8.0413818359375
1.9299998999999999,-9.775525093078613,-0.5482721924781799,0.0933738648891449,20.32470703125,-8.758544921875,5.3558349609375
1.9499999,-9.835380554199219,-0.5051765441894531,0.18914192914962769,18.00537109375,-0.1220703125,4.150390625
1.9699999,-9.892841339111328,-0.45010992884635925,0.24660277366638184,14.739990234375,4.2572021484375,4.7760009765625
1.9899999,-9.955090522766113,-0.3998316824436188,0.2513911724090576,11.6119384765625,3.265380859375,4.638671875
2.0099999,-10.000580787658691,-0.3471592366695404,0.22744916379451752,9.46044921875,2.1514892578125,3.7841796875
2.0299999,-10.038887977600098,-0.29209262132644653,0.19871874153614044,7.8277587890625,5.4168701171875,4.6844482421875
2.0499999,-10.077195167541504,-0.23702596127986908,0.1843535304069519,6.2408447265625,10.6201171875,5.8746337890625
2.0699999,-10.17296314239502,-0.17717093229293823,0.1604115068912506,5.37109375,10.9100341796875,3.84521484375
2.0899999,-10.256759643554688,-0.1364694982767105,0.15801730751991272,6.4849853515625,3.3721923828125,-0.30517578125
2.1099999,-10.316615104675293,-0.1149216815829277,0.1604115068912506,8.7432861328125,-0.885009765625,-1.1444091796875
2.1299999,-10.302249908447266,-0.1149216815829277,0.17956513166427612,10.8489990234375,3.0670166015625,1.4495849609375
2.1499999,-10.220847129821777,-0.12928688526153564,0.22266076505184174,12.6190185546875,3.60107421875,3.7078857421875
2.1699999,-10.108319282531738,-0.1388636976480484,0.29209262132644653,13.3819580078125,-2.0294189453125,4.8675537109375
2.1899999,-10.000580787658691,-0.1364694982767105,0.36152446269989014,12.603759765625,-5.37109375,5.7525634765625
2.2099999,-9.909601211547852,-0.11252748221158981,0.4381389021873474,10.7269287109375,-5.79833984375,5.5389404296875
2.2299999,-9.852140426635742,-0.06464344263076782,0.5147533416748047,8.3465576171875,-5.3253173828125,3.2806396484375
2.2499999,-9.84256362915039,-0.004788403399288654,0.5746083855628967,5.5084228515625,-3.570556640625,0.54931640625
2.2699999,-9.883264541625977,0.05027823522686958,0.6009446382522583,2.197265625,-0.42724609375,0.48828125
2.2899999,-9.950302124023438,0.07900865375995636,0.5913678407669067,-0.7781982421875,2.105712890625,2.3345947265625
2.3099999,-10.02691650390625,0.07900865375995636,0.5315127968788147,-2.197265625,2.5787353515625,2.99072265625
2.3299999,-10.072406768798828,0.05506663769483566,0.42377370595932007,-1.5106201171875,1.7242431640625,1.8157958984375
2.3499999,-10.08198356628418,0.016759412363171577,0.28969839215278625,0.5645751953125,1.2054443359375,2.0751953125
2.3699999,-10.065223693847656,-0.019153613597154617,0.15801730751991272,3.509521484375,1.953125,3.4942626953125
2.3899999,-10.014945983886719,-0.05746084079146385,0.047884032130241394,6.9122314453125,0.7781982421875,2.3956298828125
2.4099999,-9.964667320251465,-0.090979665517807,0.004788403399288654,9.185791015625,-2.7313232421875,0.54931640625
2.4299999,-9.96945571899414,-0.11013327538967133,0.021547814831137657,9.1705322265625,-3.8604736328125,1.6021728515625
2.4499999,-10.02691650390625,-0.11013327538967133,0.11252748221158981,8.056640625,-4.9285888671875,2.3956298828125
2.4699999,-10.11550235748291,-0.10773907601833344,0.2537853717803955,6.317138671875,-6.04248046875,1.0528564453125
2.4899999,-10.213664054870605,-0.08379705995321274,0.3998316824436188,3.8604736328125,-4.0283203125,-0.4425048828125
2.5099999,-10.235212326049805,-0.05985504388809204,0.5171475410461426,1.9683837890625,-0.732421875,-1.495361328125
2.5299999,-10.18493366241455,-0.016759412363171577,0.586579442024231,0.8087158203125,0.4730224609375,-1.251220703125
2.5499999,-10.074800491333008,0.040701430290937424,0.5937620401382446,-0.274658203125,0.5645751953125,-0.8697509765625
2.5699999,-9.95748519897461,0.10295066982507706,0.5578489899635315,-1.28173828125,0.1373291015625,0.3509521484375
2.5899999,-9.864110946655273,0.17238251864910126,0.47884035110473633,-1.8768310546875,-1.2969970703125,2.4261474609375
2.6099999,-9.782708168029785,0.22505496442317963,0.3926490843296051,-0.7171630859375,-3.2958984375,3.4027099609375
2.6299999,-9.706093788146973,0.26336219906806946,0.3064578175544739,1.129150390625,-3.570556640625,4.364013671875
2.6499999,-9.615114212036133,0.2801215946674347,0.2585737705230713,2.38037109375,-3.7841796875,7.171630859375
2.6699999,-9.940725326538086,0.33279404044151306,0.2513911724090576,3.47900390625,-1.9989013671875,10.9100341796875
2.6899999,-10.0580415725708,0.33518823981285095,0.27054479718208313,4.0435791015625,-4.1046142578125,-0.42724609375
2.7099999,-10.45547866821289,0.30885201692581177,0.2777273952960968,3.570556640625,-5.0811767578125,-1.495361328125
2.7299999,-10.558429718017578,0.2968810200691223,0.29209262132644653,3.5247802734375,-6.0577392578125,2.5787353515625
2.7499999,-10.515334129333496,0.22266076505184174,0.2801215946674347,3.72314453125,-7.2784423828125,1.4190673828125
2.7699999,-10.326191902160645,0.17477671802043915,0.28730419278144836,3.8909912109375,-7.6904296875,2.3345947265625
2.7899999,-10.1753568649292,0.1388636976480484,0.3280056416988373,4.0740966796875,-7.8125,5.9356689453125
2.8099999,-10.007762908935547,0.10295066982507706,0.40222588181495667,4.2877197265625,-7.1868896484375,6.4544677734375
2.8299999,-9.904812812805176,0.0933738648891449,0.5051765441894531,4.7607421875,-7.7667236328125,9.2315673828125
2.8499999,-9.86889934539795,0.09576806426048279,0.6488286852836609,4.5623779296875,-13.641357421875,21.4385986328125
2.8699999,-9.880870819091797,0.14844051003456116,0.7541735172271729,2.1514892578125,-14.404296875,28.0303955078125
2.8899999,-9.847352027893066,0.304063618183136,0.8882488012313843,0.3662109375,-16.4031982421875,25.1312255859375
2.9099999,-9.86889934539795,0.4429273009300232,0.9600749015808105,-1.0833740234375,-22.064208984375,26.3824462890625
2.9299999,-9.801861763000488,0.6129156351089478,1.0007762908935547,-3.0975341796875,-4.8370361328125,11.810302734375
2.9499999,-9.80904483795166,0.689530074596405,1.01753568649292,-6.3018798828125,3.1585693359375,1.007080078125
2.9699999,-9.75637149810791,0.751779317855835,0.9433154463768005,-7.110595703125,2.655029296875,-1.617431640625
2.9899999,-9.86889934539795,0.7757213711738586,0.849941611289978,-2.838134765625,3.2196044921875,1.3275146484375
3.0099999,-9.883264541625977,0.8403648138046265,0.7374141216278076,1.0986328125,-0.06103515625,3.23486328125
3.0299999,-9.959878921508789,0.8930372595787048,0.6392518281936646,3.6773681640625,-1.8463134765625,1.220703125
3.0499999,-9.971850395202637,0.9217676520347595,0.6033388376235962,5.67626953125,-1.5869140625,-0.7781982421875
3.0699999,-9.940725326538086,0.9528923034667969,0.6248866319656372,8.8653564453125,-1.03759765625,-2.3040771484375
3.0899999,-9.911994934082031,0.9816226959228516,0.6943184733390808,12.176513671875,-1.6937255859375,-4.8675537109375
3.1099999,-9.873687744140625,0.9840168952941895,0.8020575642585754,14.5263671875,-1.7852783203125,-7.4615478515625
3.1299999,-9.84495735168457,1.0079588890075684,0.9696516990661621,14.7247314453125,0.9918212890625,-8.4991455078125
3.1499999,-9.821015357971191,1.015141487121582,1.1563993692398071,10.0250244140625,5.9814453125,-9.368896484375
3.1699999,-9.797073364257812,1.015141487121582,1.3287819623947144,3.0364990234375,10.2691650390625,-11.627197265625
3.1899999,-9.780313491821289,0.9672574996948242,1.4508862495422363,-2.3193359375,13.6260986328125,-12.481689453125
3.2099999,-9.770736694335938,0.8355764150619507,1.460463047027588,-6.317138671875,17.9595947265625,-9.674072265625
3.2299999,-9.797073364257812,0.6488286852836609,1.3670891523361206,-9.3994140625,20.4315185546875,-9.9945068359375
3.2499999,-9.825803756713867,0.3495534360408783,1.1085153818130493,-9.3536376953125,21.3775634765625,-7.0648193359375
3.2699999,-9.919178009033203,0.09576806426048279,0.7613561153411865,-5.0506591796875,18.2952880859375,-1.922607421875
3.2899999,-10.017339706420898,-0.11252748221158981,0.35434186458587646,1.0223388671875,13.3819580078125,0.3204345703125
3.3099999,-10.091560363769531,-0.2801215946674347,-0.033518824726343155,6.7596435546875,9.6282958984375,3.143310546875
3.3299999000000002,-10.163386344909668,-0.35913026332855225,-0.33039984107017517,11.04736328125,4.39453125,5.79833984375
3.3499999,-10.18493366241455,-0.35913026332855225,-0.5123591423034668,13.6260986328125,-0.9765625,10.5743408203125
3.3699999,-10.177751541137695,-0.23942017555236816,-0.5985504388809204,16.387939453125,-5.6304931640625,13.9923095703125
3.3899999,-10.15141487121582,-0.019153613597154617,-0.6033388376235962,20.965576171875,-10.19287109375,12.176513671875
3.4099999,-10.11550235748291,0.2825157940387726,-0.5506663918495178,26.5045166015625,-14.9993896484375,9.490966796875
3.4299999,-10.06043529510498,0.6440402865409851,-0.3734954595565796,31.5399169921875,-19.378662109375,8.7127685546875
3.4499999,-9.998186111450195,0.9888052940368652,-0.10534487664699554,31.7840576171875,-20.08056640625,6.7138671875
3.4699999,-9.926360130310059,1.2497732639312744,0.2585737705230713,25.115966796875,-17.02880859375,2.0751953125
3.4899999,-9.84256362915039,1.4293384552001953,0.6847416758537292,14.556884765625,-12.8631591796875,-0.4730224609375
3.5099999,-9.780313491821289,1.5059528350830078,1.1324573755264282,4.364013671875,-7.7972412109375,-0.457763671875
3.5299999,-9.72285270690918,1.4628572463989258,1.522712230682373,-3.143310546875,-0.6256103515625,-1.3580322265625
3.5499999,-9.694122314453125,1.2880805730819702,1.7717092037200928,-7.2479248046875,6.866455078125,-3.2958984375
3.5699999,-9.694122314453125,1.0462661981582642,1.8148049116134644,-8.3465576171875,11.0321044921875,-2.410888671875
3.5899999,-9.734824180603027,0.8092401623725891,1.6280571222305298,-7.4462890625,12.0697021484375,0.7476806640625
3.6099999,-9.823410034179688,0.6009446382522583,1.2473790645599365,-3.692626953125,11.138916015625,0.5340576171875
3.6299999,-9.923966407775879,0.45489832758903503,0.7589619159698486,2.716064453125,8.5906982421875,-1.0833740234375
3.6499999,-10.012551307678223,0.35434186458587646,0.23942017555236816,10.406494140625,3.4332275390625,0.3509521484375
3.6699999,-10.079588890075684,0.2992752194404602,-0.10295066982507706,20.660400390625,-2.8533935546875,2.9754638671875
3.6899999,-10.096348762512207,0.24899697303771973,-0.2753331959247589,28.3050537109375,-5.8441162109375,4.0130615234375
3.7099999,-10.086771965026855,0.31124621629714966,-0.22266076505184174,29.0679931640625,-5.9356689453125,3.8909912109375
3.7299999,-10.02691650390625,0.44771572947502136,-0.009576806798577309,24.505615234375,-5.401611328125,5.401611328125
3.7499999,-9.976638793945312,0.6584054827690125,0.2585737705230713,16.326904296875,-4.6539306640625,7.080078125
3.7699999,-9.9000244140625,0.9361328482627869,0.5410895943641663,6.6986083984375,-2.2735595703125,6.195068359375
3.7899999,-9.885659217834473,1.1540051698684692,0.7134721279144287,0.42724609375,-0.1220703125,3.1890869140625
3.8099999,-9.861717224121094,1.3311761617660522,0.8475474119186401,-0.9002685546875,-0.091552734375,2.3345947265625
3.8299999000000002,-9.852140426635742,1.4101848602294922,0.9145850539207458,-0.8544921875,0.5340576171875,0.946044921875
3.8499999,-9.825803756713867,1.4532804489135742,1.01753568649292,-2.5177001953125,4.5623779296875,-2.1209716796875
3.8699999,-9.799467086791992,1.4173674583435059,1.0654197931289673,-5.7830810546875,10.223388671875,-6.40869140625
3.8899999,-9.746794700622559,1.3263877630233765,1.0869675874710083,-8.941650390625,9.9945068359375,-7.2021484375
3.9099999,-9.794678688049316,1.170764684677124,1.0079588890075684,-12.2528076171875,9.21630859375,-4.4097900390625
3.9299999,-9.888052940368652,0.8858546018600464,0.7110779285430908,-8.7127685546875,10.009765625,-2.4871826171875
3.9499999,-10.02452278137207,0.6320692300796509,0.33997663855552673,5.9967041015625,4.1656494140625,-1.9989013671875
3.9699999,-10.146626472473145,0.35434186458587646,-0.06464344263076782,19.500732421875,-7.6141357421875,-0.640869140625
3.9899999,-10.165780067443848,0.23942017555236816,-0.3711012601852417,21.05712890625,-10.9710693359375,5.37109375
4.0099999,-10.15141487121582,0.30885201692581177,-0.4572925269603729,16.7999267578125,-8.4228515625,6.683349609375
4.029999900000001,-10.038887977600098,0.4884171485900879,-0.3232172429561615,15.7928466796875,-9.490966796875,1.9073486328125
4.0499999,-9.950302124023438,0.7757213711738586,0.040701430290937424,14.9688720703125,-15.1519775390625,-0.1678466796875
4.069999900000001,-9.907206535339355,0.9624691009521484,0.40462008118629456,10.3912353515625,-12.420654296875,0.06103515625
4.0899999000000005,-9.873687744140625,1.0558429956436157,0.7469909191131592,8.880615234375,-5.7373046875,0.1373291015625
4.1099999,-9.883264541625977,1.139639973640442,1.05105459690094,12.1307373046875,-5.767822265625,-2.105712890625
4.1299999000000005,-9.885659217834473,1.1468225717544556,1.2018892765045166,10.6201171875,-4.608154296875,-3.387451171875
4.1499999,-9.828198432922363,1.1061211824417114,1.256955862045288,3.90625,2.0904541015625,0.518798828125
4.1699999000000005,-9.828198432922363,1.0007762908935547,1.1827356815338135,-0.9307861328125,4.8980712890625,0.7171630859375
4.1899999,-9.787496566772461,0.8643068075180054,1.072602391242981,-1.2054443359375,0.3509521484375,0.2593994140625
4.209999900000001,-9.856928825378418,0.768538773059845,0.9528923034667969,-0.518798828125,-2.5634765625,3.1280517578125
4.2299999,-9.897629737854004,0.7876923680305481,0.811634361743927,-1.0223388671875,2.197265625,4.1351318359375
4.249999900000001,-9.943120002746582,0.8140285611152649,0.7637503147125244,-1.6021728515625,3.662109375,3.1585693359375
4.2699999,-9.976638793945312,0.8547300100326538,0.6129156351089478,-1.9989013671875,2.25830078125,2.50244140625
4.289999900000001,-9.983820915222168,0.8906430602073669,0.43095630407333374,10.3607177734375,-1.77001953125,1.5716552734375
4.3099999,-10.002974510192871,0.9097966551780701,0.21787235140800476,27.7252197265625,-8.087158203125,-1.6632080078125
4.329999900000001,-10.02452278137207,0.9528923034667969,0.021547814831137657,41.107177734375,-14.7857666015625,-6.6680908203125
4.3499999,-10.019734382629395,1.0319008827209473,-0.0454898327589035,49.2095947265625,-18.6920166015625,-9.2620849609375
4.369999900000001,-9.983820915222168,1.113303780555725,0.10295066982507706,51.8798828125,-19.0582275390625,-9.9029541015625
4.3899999,-9.919178009033203,1.170764684677124,0.4572925269603729,49.37744140625,-16.204833984375,-11.1846923828125
4.409999900000001,-9.806650161743164,1.192312479019165,0.9576807022094727,43.0145263671875,-11.016845703125,-11.7340087890625
4.4299999,-9.727641105651855,1.1635819673538208,1.434126853942871,32.4554443359375,-4.0130615234375,-10.7574462890625
4.449999900000001,-9.66299819946289,1.0678139925003052,1.8339585065841675,18.6004638671875,3.0975341796875,-8.148193359375
4.4699999,-9.653421401977539,0.9768342971801758,2.0183119773864746,3.8909912109375,9.5672607421875,-4.638671875
4.489999900000001,-9.667786598205566,0.871489405632019,1.9967641830444336,-7.26318359375,14.4195556640625,-2.777099609375
4.5099999,-9.703699111938477,0.8140285611152649,1.8052281141281128,-12.420654296875,17.181396484375,-2.5634765625
4.529999900000001,-9.758766174316406,0.7781155705451965,1.5155296325683594,-11.77978515625,19.04296875,-2.50244140625
4.5499999,-9.818621635437012,0.751779317855835,1.1851298809051514,-7.87353515625,19.5465087890625,-2.1209716796875
4.569999900000001,-9.873687744140625,0.7374141216278076,0.8954314589500427,-4.39453125,18.951416015625,-2.0294189453125
4.5899999000000005,-9.916783332824707,0.6009446382522583,0.6224924325942993,-3.5858154296875,18.0511474609375,-1.556396484375
4.609999900000001,-9.964667320251465,0.47405192255973816,0.3495534360408783,-5.3558349609375,16.9219970703125,1.6326904296875
4.6299999000000005,-10.002974510192871,0.2944868206977844,0.08140286058187485,-5.37109375,13.092041015625,7.1258544921875
4.6499999,-10.070012092590332,0.24660277366638184,-0.17717093229293823,0.1678466796875,6.40869140625,9.429931640625
4.6699999000000005,-10.105925559997559,0.5339069962501526,-0.44771572947502136,13.2904052734375,-2.4871826171875,5.3253173828125
4.6899999,-10.08198356628418,0.7852981686592102,-0.42377370595932007,15.8233642578125,-6.1798095703125,3.1585693359375
4.709999900000001,-10.050858497619629,1.0342950820922852,-0.3256114423274994,14.4195556640625,-9.5367431640625,1.861572265625
4.7299999,-10.012551307678223,1.2473790645599365,-0.15083470940589905,10.0555419921875,-11.5966796875,0.152587890625
4.749999900000001,-9.96945571899414,1.4053963422775269,0.047884032130241394,2.1209716796875,-11.41357421875,-1.77001953125
4.7699999,-9.93593692779541,1.4963760375976562,0.26096799969673157,-7.9193115234375,-10.955810546875,-3.41796875
4.789999900000001,-9.904812812805176,1.4676456451416016,0.4405331015586853,-14.312744140625,-10.833740234375,-4.6539306640625
4.8099999,-9.888052940368652,1.335964560508728,0.6105214357376099,-15.1214599609375,-10.498046875,-4.9591064453125
4.829999900000001,-9.876082420349121,1.1228805780410767,0.7541735172271729,-14.2364501953125,-9.124755859375,-4.3182373046875
4.8499999,-9.883264541625977,0.8307880163192749,0.8667010068893433,-12.8326416015625,-7.537841796875,-2.960205078125
4.869999900000001,-9.873687744140625,0.569819986820221,0.9792284965515137,-7.049560546875,-6.3629150390625,0.518798828125
4.8899999,-9.883264541625977,0.363918662071228,1.0199298858642578,2.227783203125,-5.462646484375,1.5411376953125
4.909999900000001,-9.86889934539795,0.2346317619085312,1.0127472877502441,8.3160400390625,-5.06591796875,1.5411376953125
4.9299999,-9.86889934539795,0.3232172429561615,1.0295066833496094,11.444091796875,-3.570556640625,3.692626953125
4.949999900000001,-9.852140426635742,0.4836287498474121,1.0223240852355957,16.0369873046875,-2.471923828125,2.685546875
4.9699999,-9.854534149169922,0.7805097699165344,1.1324573755264282,16.11328125,-0.518798828125,-1.2054443359375
4.989999900000001,-9.818621635437012,1.0845733880996704,1.259350061416626,6.744384765625,5.2642822265625,-2.288818359375
5.0099999,-9.78989028930664,1.3287819623947144,1.381454348564148,-5.7525634765625,11.2762451171875,-3.3111572265625
5.029999900000001,-9.761159896850586,1.479616641998291,1.4293384552001953,-16.0980224609375,14.862060546875,-5.0201416015625
5.0499999,-9.749189376831055,1.5203180313110352,1.338358759880066,-22.3388671875,16.6168212890625,-6.6375732421875
5.069999900000001,-9.77791976928711,1.4389152526855469,1.115697979927063,-26.336669921875,17.1356201171875,-8.11767578125
5.0899999000000005,-9.84256362915039,1.2665326595306396,0.7829039692878723,-29.11376953125,15.6097412109375,-8.2855224609375
5.109999900000001,-9.909601211547852,1.0558429956436157,0.43335050344467163,-30.0750732421875,11.993408203125,-7.50732421875
5.1299999000000005,-9.979032516479492,0.8140285611152649,0.12928688526153564,-28.045654296875,8.026123046875,-7.4462890625
5.1499999,-10.036493301391602,0.646434485912323,-0.05027823522686958,-25.3753662109375,5.5694580078125,-6.683349609375
5.1699999000000005,-10.04846477508545,0.5315127968788147,-0.10773907601833344,-23.8494873046875,3.4942626953125,-5.7525634765625
5.1899999,-10.046070098876953,0.5482721924781799,-0.038307227194309235,-24.383544921875,1.312255859375,-6.988525390625
5.209999900000001,-10.019734382629395,0.6105214357376099,0.06464344263076782,-25.299072265625,0.1220703125,-9.0179443359375
5.2299999,-9.988609313964844,0.7134721279144287,0.23942017555236816,-24.4598388671875,0.06103515625,-11.4288330078125
5.249999900000001,-9.955090522766113,0.7350199222564697,0.37828385829925537,-22.0794677734375,0.48828125,-12.725830078125
5.2699999,-9.93354320526123,0.6153098344802856,0.5219359993934631,-19.561767578125,0.4425048828125,-12.359619140625
5.289999900000001,-9.914389610290527,0.33279404044151306,0.6416460275650024,-17.5323486328125,1.0986328125,-9.185791015625
5.3099999,-9.923966407775879,-0.021547814831137657,0.730231523513794,-15.6402587890625,2.9144287109375,-2.6092529296875
5.329999900000001,-9.923966407775879,-0.3926490843296051,0.790086567401886,-14.2364501953125,4.364013671875,4.608154296875
5.3499999,-9.945513725280762,-0.6727706789970398,0.8188169598579407,-11.7645263671875,5.401611328125,9.9334716796875
5.369999900000001,-9.952696800231934,-0.8188169598579407,0.7924807667732239,-8.209228515625,6.134033203125,15.6402587890625
5.3899999,-9.962273597717285,-0.7972691655158997,0.7158663272857666,-3.692626953125,6.4849853515625,21.148681640625
5.409999900000001,-9.95748519897461,-0.6105214357376099,0.6248866319656372,1.434326171875,5.462646484375,24.0020751953125
5.4299999,-9.943120002746582,-0.2585737705230713,0.5267243981361389,4.5166015625,4.9285888671875,24.4140625
5.449999900000001,-9.923966407775879,0.22505496442317963,0.44771572947502136,3.8909912109375,5.5694580078125,23.0865478515625
5.4699999,-9.90241813659668,0.7613561153411865,0.3687070608139038,2.6092529296875,5.5389404296875,20.0042724609375
5.489999900000001,-9.90241813659668,1.292868971824646,0.28969839215278625,2.349853515625,3.570556640625,15.07568359375
5.5099999,-9.909601211547852,1.723825216293335,0.2059013396501541,0.54931640625,1.617431640625,9.1094970703125
5.529999900000001,-9.931148529052734,2.032677173614502,0.090979665517807,-3.0670166015625,0.1983642578125,3.570556640625
5.5499999,-9.950302124023438,2.1739351749420166,0.033518824726343155,-4.425048828125,-2.6702880859375,-2.197265625
5.569999900000001,-9.955090522766113,2.118868589401245,0.002394201699644327,-4.0435791015625,-5.06591796875,-6.8511962890625
5.5899999000000005,-9.947908401489258,1.9249382019042969,0.05267243832349777,-4.7149658203125,-6.28662109375,-9.27734375
5.609999900000001,-9.926360130310059,1.6112977266311646,0.15801730751991272,-7.2479248046875,-6.8359375,-9.674072265625
5.6299999000000005,-9.892841339111328,1.256955862045288,0.3064578175544739,-8.36181640625,-7.3089599609375,-10.589599609375
5.6499999,-9.897629737854004,0.8571242094039917,0.42856210470199585,-5.706787109375,-6.256103515625,-9.185791015625
5.6699999000000005,-9.897629737854004,0.5147533416748047,0.5099649429321289,1.4495849609375,-5.218505859375,-5.92041015625
5.6899999,-9.947908401489258,0.17477671802043915,0.5363011956214905,11.5966796875,-7.8582763671875,-1.8463134765625
5.709999900000001,-10.000580787658691,-0.033518824726343155,0.5315127968788147,16.693115234375,-10.589599609375,3.0670166015625
5.7299999,-9.952696800231934,-0.06703764945268631,0.5363011956214905,15.4266357421875,-11.9781494140625,5.0048828125
5.749999900000001,-9.967061996459961,0.023942016065120697,0.5506663918495178,14.8773193359375,-8.9263916015625,5.9051513671875
5.7699999,-9.921571731567383,0.21787235140800476,0.5027823448181152,17.88330078125,-7.232666015625,8.270263671875
5.789999900000001,-9.938331604003906,0.49559974670410156,0.5195417404174805,22.491455078125,-11.810302734375,9.27734375
5.8099999,-9.909601211547852,0.8044517636299133,0.629675030708313,20.538330078125,-14.373779296875,6.89697265625
5.829999900000001,-9.928754806518555,1.1109095811843872,0.8259995579719543,8.36181640625,-8.3465576171875,3.41796875
5.8499999,-9.849745750427246,1.4700398445129395,1.170764684677124,-6.4239501953125,-3.326416015625,2.044677734375
5.869999900000001,-9.787496566772461,1.7573440074920654,1.5083470344543457,-19.3634033203125,3.9215087890625,-0.7476806640625
5.8899999,-9.718064308166504,1.8746598958969116,1.7190368175506592,-26.336669921875,7.9498291015625,-7.5836181640625
5.909999900000001,-9.68694019317627,1.8602946996688843,1.7597382068634033,-23.4375,15.6402587890625,-5.767822265625
5.9299999,-9.651026725769043,1.656787633895874,1.6280571222305298,-19.9127197265625,15.5792236328125,-2.655029296875
5.949999900000001,-9.672574996948242,1.338358759880066,1.5107412338256836,-23.2696533203125,19.6380615234375,-6.6680908203125
5.9699999,-9.679757118225098,1.0893617868423462,1.173158884048462,-28.86962890625,23.5443115234375,-6.500244140625
5.989999900000001,-9.761159896850586,0.7948749661445618,0.9744400978088379,-32.867431640625,28.0609130859375,-3.8604736328125
6.0099999,-9.90241813659668,0.6153098344802856,0.43095630407333374,-24.139404296875,22.216796875,-3.6773681640625
6.029999900000001,-10.046070098876953,0.33279404044151306,-0.10773907601833344,-3.936767578125,8.11767578125,-5.9661865234375
6.0499999,-10.251971244812012,0.15562310814857483,-0.689530074596405,20.782470703125,-5.8135986328125,-5.6304931640625
6.069999900000001,-10.309432983398438,0.08619125932455063,-0.9744400978088379,35.919189453125,-12.51220703125,-2.7313232421875
6.0899999000000005,-10.292673110961914,0.11252748221158981,-0.933738648891449,33.7677001953125,-14.312744140625,-0.7476806640625
6.109999900000001,-10.196905136108398,0.304063618183136,-0.6153098344802856,26.763916015625,-15.07568359375,-0.640869140625
6.1299999000000005,-10.108319282531738,0.49799394607543945,-0.21787235140800476,25.421142578125,-14.6942138671875,0.7476806640625
6.149999900000001,-10.000580787658691,0.6536170840263367,0.1149216815829277,25.054931640625,-16.5252685546875,0.396728515625
6.1699999000000005,-9.974244117736816,0.8595184087753296,0.43335050344467163,19.8974609375,-17.547607421875,-1.495361328125
6.1899999,-9.873687744140625,1.01753568649292,0.8164227604866028,7.659912109375,-13.9617919921875,0.9307861328125
6.209999900000001,-9.78989028930664,1.2186486721038818,1.194706678390503,-13.48876953125,-3.814697265625,1.8157958984375
6.2299999,-9.749189376831055,1.2473790645599365,1.50355863571167,-24.5208740234375,2.2430419921875,0.213623046875
6.249999900000001,-9.701305389404297,1.1683704853057861,1.4963760375976562,-19.10400390625,0.335693359375,1.9989013671875
6.2699999,-9.742006301879883,0.9481038451194763,1.2545616626739502,-5.767822265625,-5.157470703125,2.899169921875
6.289999900000001,-9.84495735168457,0.7038952708244324,0.8427590131759644,10.9710693359375,-9.5977783203125,-1.4190673828125
6.3099999,-9.897629737854004,0.5051765441894531,0.524330198764801,21.7132568359375,-12.87841796875,-0.4730224609375
6.329999900000001,-9.952696800231934,0.44771572947502136,0.2849099934101105,23.13232421875,-12.969970703125,0.3814697265625
6.3499999,-9.974244117736816,0.524330198764801,0.40462008118629456,22.6593017578125,-13.5345458984375,0.1983642578125
6.369999900000001,-9.940725326538086,0.7182605266571045,0.6751648783683777,16.265869140625,-10.2386474609375,1.0986328125
6.3899999,-9.888052940368652,0.9648633003234863,1.137245774269104,0.2593994140625,-3.204345703125,1.9989013671875
6.409999900000001,-9.821015357971191,1.2306196689605713,1.6065093278884888,-17.4713134765625,6.5155029296875,1.6021728515625
6.4299999,-9.78989028930664,1.357512354850769,1.8267759084701538,-29.541015625,14.6484375,1.251220703125
6.449999900000001,-9.773131370544434,1.3048399686813354,1.7764976024627686,-28.3966064453125,15.5487060546875,-0.48828125
6.4699999,-9.825803756713867,1.1420341730117798,1.5298948287963867,-17.8375244140625,11.8408203125,-2.1209716796875
6.489999900000001,-9.897629737854004,0.8690952062606812,1.0438719987869263,-7.75146484375,4.8675537109375,-2.0294189453125
6.5099999,-9.96945571899414,0.6344634294509888,0.6751648783683777,4.39453125,1.220703125,-1.312255859375
6.529999900000001,-9.959878921508789,0.4572925269603729,0.363918662071228,13.0157470703125,-1.129150390625,0.213623046875
6.5499999,-9.964667320251465,0.4596867263317108,0.22266076505184174,13.336181640625,-2.38037109375,0.5340576171875
6.569999900000001,-9.916783332824707,0.4836287498474121,0.2944868206977844,11.5203857421875,-2.5787353515625,2.6397705078125
6.5899999000000005,-9.890447616577148,0.6177040338516235,0.49320554733276367,5.6304931640625,-2.8533935546875,1.4190673828125
6.609999900000001,-9.876082420349121,0.7876923680305481,0.7469909191131592,1.373291015625,-1.861572265625,-0.0762939453125
6.6299999000000005,-9.84495735168457,0.9792284965515137,1.0773907899856567,-5.2642822265625,-0.579833984375,3.0975341796875
6.649999900000001,-9.785101890563965,1.0893617868423462,1.2521674633026123,-19.4091796875,6.8511962890625,2.8228759765625
6.6699999000000005,-9.80904483795166,1.173158884048462,1.2713210582733154,-21.6522216796875,10.162353515625,1.190185546875
6.6899999,-9.770736694335938,1.1228805780410767,1.137245774269104,-12.542724609375,6.927490234375,2.4871826171875
6.709999900000001,-9.895236015319824,0.9026140570640564,0.8547300100326538,-6.9732666015625,0.5645751953125,-1.1749267578125
6.7299999,-9.914389610290527,0.7661445140838623,0.6512228846549988,1.3275146484375,-3.1585693359375,-2.227783203125
6.749999900000001,-9.986215591430664,0.5937620401382446,0.49320554733276367,11.199951171875,-6.866455078125,1.0833740234375
6.7699999,-10.043676376342773,0.545877993106842,0.3711012601852417,14.6636962890625,-7.1868896484375,1.8463134765625
6.789999900000001,-9.998186111450195,0.6919242739677429,0.4884171485900879,14.6026611328125,-6.4697265625,4.1046142578125
6.8099999,-9.964667320251465,0.8044517636299133,0.667982280254364,3.662109375,-1.434326171875,4.8370361328125
6.829999900000001,-9.890447616577148,1.0678139925003052,1.0079588890075684,-10.009765625,5.55419921875,0.5035400390625
6.8499999,-9.742006301879883,1.235408067703247,1.4532804489135742,-15.9912109375,9.3536376953125,-1.2359619140625
6.869999900000001,-9.742006301879883,1.316810965538025,1.6711528301239014,-22.796630859375,11.993408203125,0.42724609375
6.8899999,-9.672574996948242,1.3958195447921753,1.7908629179000854,-29.8004150390625,16.4337158203125,-1.4495849609375
6.909999900000001,-9.775525093078613,1.2282254695892334,1.5610195398330688,-25.8026123046875,17.5933837890625,-1.739501953125
6.9299999,-9.821015357971191,1.0749965906143188,1.1276689767837524,-15.625,13.0767822265625,1.1138916015625
6.949999900000001,-9.947908401489258,0.8044517636299133,0.6320692300796509,-6.0272216796875,8.11767578125,-3.72314453125
6.9699999,-9.995792388916016,0.5363011956214905,0.21308395266532898,3.2806396484375,3.0364990234375,-4.119873046875
6.989999900000001,-10.050858497619629,0.42856210470199585,-0.06224924325942993,8.087158203125,0.79345703125,-0.518798828125
7.0099999,-10.065223693847656,0.31603461503982544,-0.1173158809542656,10.8795166015625,-2.0751953125,0.732421875
7.029999900000001,-10.002974510192871,0.4692635238170624,0.021547814831137657,10.5438232421875,-3.90625,2.166748046875
7.0499999,-9.979032516479492,0.6847416758537292,0.20111294090747833,3.0364990234375,-2.410888671875,4.94384765625
7.069999900000001,-9.90241813659668,0.9169792532920837,0.4381389021873474,-3.0517578125,0.54931640625,0.0762939453125
7.0899999000000005,-9.90241813659668,1.137245774269104,0.6703764796257019,-3.2958984375,-0.335693359375,-1.1138916015625
7.109999900000001,-9.928754806518555,1.1516109704971313,0.7182605266571045,-2.99072265625,-1.40380859375,-0.1068115234375
7.1299999000000005,-9.955090522766113,1.1516109704971313,0.7637503147125244,0.8392333984375,-3.5858154296875,-1.800537109375
7.149999900000001,-10.012551307678223,1.015141487121582,0.7038952708244324,6.0272216796875,-4.1961669921875,-0.5340576171875
7.1699999000000005,-9.93593692779541,0.950498104095459,0.706289529800415,7.9803466796875,-5.645751953125,2.7313232421875
7.1899999,-9.919178009033203,0.9097966551780701,0.7948749661445618,7.0343017578125,-3.5552978515625,-1.6937255859375
7.209999900000001,-9.806650161743164,0.9600749015808105,0.9768342971801758,-2.105712890625,2.0904541015625,-2.8228759765625
7.2299999,-9.804255485534668,0.9433154463768005,1.173158884048462,-14.251708984375,9.21630859375,-0.9918212890625
7.249999900000001,-9.72285270690918,1.048660397529602,1.3670891523361206,-18.61572265625,10.8795166015625,-1.4190673828125
7.2699999,-9.737217903137207,1.1252747774124146,1.4772224426269531,-21.9573974609375,14.95361328125,1.15966796875
7.289999900000001,-9.737217903137207,1.1085153818130493,1.4269442558288574,-30.2886962890625,20.3094482421875,1.922607421875
7.3099999,-9.780313491821289,1.1348515748977661,1.1683704853057861,-27.0843505859375,18.4326171875,-1.5869140625
7.329999900000001,-9.818621635437012,1.0414776802062988,0.9169792532920837,-20.0042724609375,15.0299072265625,-2.471923828125
7.3499999,-9.926360130310059,0.950498104095459,0.49559974670410156,-21.4691162109375,16.78466796875,-2.01416015625
7.369999900000001,-9.926360130310059,0.7781155705451965,0.272938996553421,-19.439697265625,15.2435302734375,-2.4871826171875
7.3899999,-9.988609313964844,0.7206547260284424,0.2298433631658554,-16.1895751953125,11.7340087890625,-0.6561279296875
7.409999900000001,-9.99100399017334,0.706289529800415,0.19871874153614044,-24.6734619140625,14.6942138671875,1.3275146484375
7.4299999,-9.99339771270752,0.6799532771110535,0.20350714027881622,-31.280517578125,15.625,0.2593994140625
7.449999900000001,-9.983820915222168,0.768538773059845,0.22744916379451752,-29.0069580078125,13.031005859375,-0.1983642578125
7.4699999,-9.99339771270752,0.6703764796257019,0.002394201699644327,-30.3955078125,11.65771484375,0.762939453125
7.489999900000001,-10.055646896362305,0.5267243981361389,-0.2968810200691223,-17.4102783203125,6.8817138671875,1.77001953125
7.5099999,-10.105925559997559,0.3974374830722809,-0.646434485912323,12.1307373046875,-7.4005126953125,1.9073486328125
7.529999900000001,-10.218452453613281,0.2298433631658554,-1.070208191871643,36.102294921875,-20.6298828125,3.692626953125
7.5499999,-10.180145263671875,0.35434186458587646,-1.0031704902648926,41.1834716796875,-25.4669189453125,3.9520263671875
7.569999900000001,-10.127472877502441,0.569819986820221,-0.629675030708313,24.6124267578125,-20.233154296875,4.2877197265625
7.5899999000000005,-9.947908401489258,0.9265560507774353,0.12449848651885986,0.8544921875,-11.0626220703125,4.2572021484375
7.609999900000001,-9.799467086791992,1.2186486721038818,0.9959878921508789,-18.61572265625,-0.79345703125,3.35693359375
7.6299999000000005,-9.770736694335938,1.3120225667953491,1.2880805730819702,-21.4691162109375,1.9989013671875,2.349853515625
7.649999900000001,-9.75397777557373,1.2425906658172607,1.3048399686813354,-4.9285888671875,-4.3182373046875,3.082275390625
7.6699999000000005,-9.885659217834473,1.015141487121582,0.8690952062606812,13.702392578125,-10.8489990234375,1.373291015625
7.6899999,-9.981427192687988,0.8092401623725891,0.37828385829925537,23.712158203125,-13.763427734375,0.6561279296875
7.709999900000001,-10.005369186401367,0.8164227604866028,0.15801730751991272,20.93505859375,-13.4429931640625,3.0059814453125
7.7299999,-10.036493301391602,0.7182605266571045,0.20350714027881622,12.5579833984375,-11.5203857421875,1.220703125
7.749999900000001,-10.002974510192871,0.9361328482627869,0.40462008118629456,9.552001953125,-10.1165771484375,1.5411376953125
7.7699999,-9.837775230407715,1.0055646896362305,0.7972691655158997,8.7738037109375,-8.148193359375,3.47900390625
7.789999900000001,-9.785101890563965,1.2832920551300049,1.2641384601593018,-4.2724609375,-1.4495849609375,3.3111572265625
7.8099999,-9.653421401977539,1.434126853942871,1.5945383310317993,-26.336669921875,11.9476318359375,2.0751953125
7.829999900000001,-9.603142738342285,1.5921441316604614,1.7381904125213623,-36.0565185546875,18.4478759765625,0.762939453125
7.8499999,-9.718064308166504,1.5179238319396973,1.6136919260025024,-27.16064453125,14.739990234375,-0.9307861328125
7.869999900000001,-9.718064308166504,1.3335703611373901,1.173158884048462,-15.167236328125,9.9334716796875,-1.28173828125
7.8899999,-9.938331604003906,1.0558429956436157,0.5913678407669067,-2.6092529296875,6.9122314453125,-1.434326171875
7.909999900000001,-9.96945571899414,0.7972691655158997,0.14844051003456116,9.8876953125,0.274658203125,-2.899169921875
7.9299999,-10.08198356628418,0.6344634294509888,-0.22505496442317963,17.120361328125,-4.608154296875,-4.0740966796875
7.949999900000001,-10.098742485046387,0.5267243981361389,-0.28969839215278625,23.4527587890625,-7.415771484375,-3.4332275390625
7.9699999,-10.041281700134277,0.5554547905921936,-0.14365209639072418,23.3917236328125,-9.4451904296875,-0.4425048828125
7.989999900000001,-10.041281700134277,0.6799532771110535,0.2059013396501541,15.228271484375,-6.9427490234375,1.2664794921875
8.0099999,-9.916783332824707,0.8044517636299133,0.6560112833976746,0.7171630859375,-0.640869140625,0.457763671875
8.0299999,-9.919178009033203,1.0582371950149536,0.9528923034667969,-8.11767578125,4.0435791015625,-1.495361328125
8.049999900000001,-9.835380554199219,1.2497732639312744,1.1827356815338135,-7.171630859375,2.5177001953125,-2.13623046875
8.069999900000001,-9.818621635437012,1.37906014919281,1.0749965906143188,-8.392333984375,4.180908203125,0.3662109375
8.0899999,-9.818621635437012,1.4293384552001953,0.9097966551780701,-8.2855224609375,6.6070556640625,-1.4190673828125
8.1099999,-9.813833236694336,1.280897855758667,0.6631938815116882,-9.58251953125,6.2255859375,-2.2735595703125
8.129999900000001,-9.9000244140625,1.048660397529602,0.42616790533065796,-8.0718994140625,4.6234130859375,-3.4637451171875
8.149999900000001,-9.981427192687988,0.8092401623725891,0.33518823981285095,-0.9307861328125,2.2735595703125,-1.6021728515625
8.1699999,-9.955090522766113,0.7230489253997803,0.30885201692581177,0.2899169921875,1.373291015625,1.03759765625
8.1899999,-9.95748519897461,0.768538773059845,0.4213795065879822,-3.5247802734375,2.166748046875,3.5400390625
8.2099999,-9.813833236694336,0.8236053586006165,0.6057330369949341,-12.26806640625,4.608154296875,1.4495849609375
8.229999900000001,-9.792284965515137,0.9911994934082031,0.6320692300796509,-13.4124755859375,5.8135986328125,0.732421875
8.2499999,-9.746794700622559,1.0438719987869263,0.8164227604866028,-18.585205078125,6.103515625,2.1820068359375
8.2699999,-9.86889934539795,1.1324573755264282,0.8068459630012512,-34.759521484375,13.5040283203125,0.9765625
8.2899999,-9.84256362915039,1.2832920551300049,0.7829039692878723,-43.2891845703125,14.46533203125,1.6326904296875
8.309999900000001,-9.950302124023438,1.2880805730819702,0.7374141216278076,-40.52734375,10.3302001953125,-3.23486328125
8.3299999,-9.947908401489258,1.1061211824417114,0.4405331015586853,-24.9176025390625,6.8206787109375,-7.598876953125
8.3499999,-10.125079154968262,0.3232172429561615,-0.1412578970193863,22.216796875,-7.38525390625,3.5247802734375
8.3699999,-10.11550235748291,0.20350714027881622,-0.2561795711517334,29.8004150390625,-12.7716064453125,4.8675537109375
8.389999900000001,-10.108319282531738,0.1412578970193863,-0.2346317619085312,22.5067138671875,-8.544921875,5.79833984375
8.4099999,-10.062829971313477,0.49320554733276367,-0.1388636976480484,23.223876953125,-9.0789794921875,4.21142578125
8.4299999,-9.971850395202637,0.8020575642585754,0,28.228759765625,-14.7247314453125,2.4871826171875
8.4499999,-9.974244117736816,1.1492167711257935,0.2059013396501541,28.3660888671875,-16.1590576171875,-1.251220703125
8.469999900000001,-9.914389610290527,1.4844050407409668,0.5554547905921936,16.6168212890625,-8.880615234375,-3.082275390625
8.4899999,-9.835380554199219,1.699883222579956,0.912190854549408,0.396728515625,-1.6632080078125,-3.5552978515625
8.5099999,-9.75637149810791,1.8626888990402222,1.357512354850769,-7.0953369140625,2.50244140625,-7.2479248046875
8.5299999,-9.75637149810791,1.766920804977417,1.5298948287963867,-12.4969482421875,7.9498291015625,-8.36181640625
8.549999900000001,-9.701305389404297,1.6208745241165161,1.7908629179000854,-25.1312255859375,15.31982421875,-6.072998046875
8.569999900000001,-9.730035781860352,1.3431471586227417,1.8195933103561401,-42.449951171875,24.810791015625,-2.6092529296875
8.5899999,-9.720458984375,1.094150185585022,1.6352397203445435,-51.2237548828125,30.7769775390625,0.1373291015625
8.6099999,-9.81143856048584,0.7757213711738586,1.072602391242981,-38.3148193359375,25.9857177734375,-0.6866455078125
8.629999900000001,-9.890447616577148,0.5339069962501526,0.26815059781074524,-10.68115234375,13.885498046875,-0.5340576171875
8.649999900000001,-10.137049674987793,0.31364041566848755,-0.689530074596405,14.068603515625,-1.007080078125,-1.129150390625
8.6699999,-10.24239444732666,0.24660277366638184,-1.338358759880066,29.4036865234375,-14.16015625,-1.953125
8.6899999,-10.335768699645996,0.31124621629714966,-1.525106430053711,37.0025634765625,-20.904541015625,-3.0364990234375
8.709999900000001,-10.266336441040039,0.5554547905921936,-1.2425906658172607,38.299560546875,-22.979736328125,-5.1422119140625
8.729999900000001,-10.098742485046387,0.6847416758537292,-0.40222588181495667,28.38134765625,-16.78466796875,-2.86865234375
8.7499999,-9.904812812805176,0.9911994934082031,0.5219359993934631,8.758544921875,-5.7220458984375,-0.091552734375
8.7699999,-9.720458984375,0.9792284965515137,1.4652514457702637,-12.4664306640625,5.4168701171875,3.631591796875
8.7899999,-9.643844604492188,1.0965443849563599,1.944091796875,-22.3541259765625,10.6353759765625,3.265380859375
8.809999900000001,-9.653421401977539,1.0678139925003052,1.9776105880737305,-20.416259765625,9.490966796875,1.190185546875
8.8299999,-9.708487510681152,0.9624691009521484,1.4700398445129395,-14.8162841796875,9.185791015625,1.5106201171875
8.8499999,-9.861717224121094,1.01753568649292,0.7613561153411865,-2.9754638671875,3.326416015625,-0.0152587890625
8.8699999,-9.964667320251465,0.8547300100326538,0.06224924325942993,6.866455078125,-5.5084228515625,-0.6103515625
8.889999900000001,-10.070012092590332,0.9241618514060974,-0.36152446269989014,10.80322265625,-9.979248046875,-2.86865234375
8.9099999,-10.055646896362305,0.7805097699165344,-0.31364041566848755,11.5814208984375,-9.94873046875,-4.5013427734375
8.9299999,-10.038887977600098,0.8164227604866028,0.023942016065120697,3.1585693359375,-4.0283203125,-1.434326171875
8.9499999,-9.890447616577148,0.7398083209991455,0.5506663918495178,-9.2926025390625,3.3721923828125,2.3040771484375
8.969999900000001,-9.830592155456543,0.8020575642585754,0.9528923034667969,-16.754150390625,8.4075927734375,5.1116943359375
8.9899999,-9.828198432922363,0.7757213711738586,1.0678139925003052,-13.48876953125,7.1868896484375,2.532958984375
9.0099999,-9.84495735168457,0.8331822156906128,0.9313444495201111,-5.4168701171875,3.5247802734375,1.2054443359375
9.0299999,-9.959878921508789,0.8092401623725891,0.569819986820221,3.5247802734375,1.4495849609375,1.495361328125
9.049999900000001,-9.988609313964844,0.8259995579719543,0.22026655077934265,11.65771484375,-4.1046142578125,0.518798828125
9.069999900000001,-10.02691650390625,0.8092401623725891,-0.009576806798577309,12.8936767578125,-9.8419189453125,-0.213623046875
9.0899999,-9.986215591430664,0.9217676520347595,0.035913024097681046,11.0321044921875,-11.1083984375,-2.5177001953125
9.1099999,-9.947908401489258,0.9026140570640564,0.2298433631658554,3.7994384765625,-7.4005126953125,-3.84521484375
9.129999900000001,-9.883264541625977,0.9289502501487732,0.6584054827690125,-5.5389404296875,0.4730224609375,-2.0599365234375
9.149999900000001,-9.852140426635742,0.9528923034667969,0.950498104095459,-12.1002197265625,4.9591064453125,2.62451171875
9.1699999,-9.849745750427246,0.8188169598579407,1.1180921792984009,-14.8162841796875,7.1563720703125,6.2408447265625
9.1899999,-9.816226959228516,0.8068459630012512,1.0319008827209473,-9.3536376953125,3.570556640625,4.150390625
9.209999900000001,-9.921571731567383,0.7565677165985107,0.8068459630012512,-2.3040771484375,-0.48828125,4.1961669921875
9.229999900000001,-9.90241813659668,0.730231523513794,0.4429273009300232,2.2125244140625,-0.8697509765625,3.5858154296875
9.2499999,-9.955090522766113,0.8762778043746948,0.2825157940387726,4.852294921875,-5.2490234375,3.3416748046875
9.2699999,-9.93354320526123,1.0773907899856567,0.24420857429504395,-0.1983642578125,-6.16455078125,2.2125244140625
9.2899999,-9.849745750427246,1.2880805730819702,0.6631938815116882,-10.9710693359375,-0.5950927734375,-2.1209716796875
9.309999900000001,-9.746794700622559,1.3934253454208374,1.0271124839782715,-27.7252197265625,10.8184814453125,-4.9285888671875
9.3299999,-9.696516990661621,1.3479355573654175,1.5131354331970215,-38.57421875,20.477294921875,-2.2735595703125
9.3499999,-9.667786598205566,1.3120225667953491,1.6041151285171509,-37.65869140625,19.8974609375,1.77001953125
9.3699999,-9.725247383117676,1.0534487962722778,1.41257905960083,-29.296875,17.5933837890625,-2.593994140625
9.389999900000001,-9.787496566772461,0.9600749015808105,1.094150185585022,-14.5721435546875,12.3291015625,-8.0108642578125
9.4099999,-9.840168952941895,0.727837324142456,0.7086837291717529,-20.294189453125,17.1051025390625,-2.197265625
9.4299999,-10.055646896362305,0.545877993106842,-0.033518824726343155,-30.21240234375,20.4315185546875,4.4708251953125
9.4499999,-10.14902114868164,0.5291185975074768,-0.545877993106842,-17.51708984375,-0.4119873046875,7.7362060546875
9.469999900000001,-10.299856185913086,0.4429273009300232,-1.2497732639312744,-2.166748046875,-19.012451171875,-0.18310546875
9.4899999,-10.357316970825195,0.5267243981361389,-1.4053963422775269,23.37646484375,-27.1453857421875,-4.4403076171875
9.5099999,-10.225635528564453,0.45250412821769714,-0.9959878921508789,38.1317138671875,-25.177001953125,-6.77490234375
9.5299999,-10.141838073730469,0.395043283700943,-0.3232172429561615,31.6162109375,-17.4407958984375,1.15966796875
9.549999900000001,-9.964667320251465,0.4118026793003082,0.44532153010368347,19.8974609375,-12.5732421875,10.07080078125
9.569999900000001,-9.90241813659668,0.4836287498474121,0.9074024558067322,8.97216796875,-10.101318359375,12.664794921875
9.5899999,-9.832986831665039,0.6799532771110535,1.0893617868423462,4.7760009765625,-14.0228271484375,11.749267578125
9.6099999,-9.785101890563965,1.0462661981582642,1.1563993692398071,1.9073486328125,-15.9759521484375,6.866455078125
9.629999900000001,-9.763554573059082,1.3215993642807007,1.1492167711257935,-5.1116943359375,-11.5509033203125,3.4637451171875
9.649999900000001,-9.725247383117676,1.7334020137786865,1.2521674633026123,-14.34326171875,-7.0343017578125,1.52587890625
9.6699999,-9.694122314453125,1.9105730056762695,1.436521053314209,-26.4129638671875,-3.7078857421875,0.54931640625
9.6899999,-9.68933391571045,1.9608511924743652,1.678335428237915,-39.642333984375,4.1961669921875,-4.5318603515625
9.709999900000001,-9.66299819946289,1.742978811264038,1.98958158493042,-48.736572265625,13.8092041015625,-6.9427490234375
9.729999900000001,-9.682151794433594,1.2473790645599365,2.097320795059204,-51.1932373046875,25.665283203125,-4.2266845703125
9.7499999,-9.739612579345703,0.608127236366272,1.7980455160140991,-37.6434326171875,26.0162353515625,5.950927734375
9.7699999,-9.928754806518555,-0.038307227194309235,0.9911994934082031,-8.7738037109375,13.580322265625,14.8162841796875
9.7899999,-10.089165687561035,-0.31603461503982544,-0.026336219161748886,23.193359375,-11.016845703125,15.0909423828125
9.809999900000001,-10.237606048583984,-0.24420857429504395,-0.9624691009521484,40.83251953125,-24.9481201171875,9.1094970703125
9.8299999,-10.27591323852539,0.2992752194404602,-1.3000515699386597,43.51806640625,-29.541015625,3.5858154296875
9.8499999,-10.182539939880371,1.0462661981582642,-1.072602391242981,34.3017578125,-29.4036865234375,1.495361328125
9.8699999,-9.931148529052734,1.8626888990402222,0.08140286058187485,10.7269287109375,-22.39990234375,1.3885498046875
9.889999900000001,-9.615114212036133,2.628833532333374,1.5490485429763794,-28.3050537109375,-0.18310546875,-3.6163330078125
9.9099999,-9.294290542602539,2.9281086921691895,3.117250680923462,-67.5201416015625,31.005859375,-13.24462890625
9.9299999,-9.102754592895508,2.7102363109588623,3.9169139862060547,-81.2835693359375,53.9398193359375,-14.16015625
9.9499999,-9.26795482635498,2.0374655723571777,3.6607344150543213,-59.9517822265625,52.55126953125,-1.861572265625
9.969999900000001,-9.516951560974121,1.0893617868423462,2.3080103397369385,-18.1427001953125,32.257080078125,3.3111572265625
9.9899999,-9.959878921508789,0.23942017555236816,0.40462008118629456,24.2919921875,8.0718994140625,-2.44140625
10.0099999,-10.290278434753418,-0.11013327538967133,-1.2737152576446533,52.3529052734375,-9.70458984375,-5.5389404296875
10.0299999,-10.38844108581543,0.023942016065120697,-2.0925323963165283,54.0618896484375,-21.148681640625,-2.7313232421875
10.049999900000001,-10.366893768310547,0.5746083855628967,-1.8411411046981812,33.2794189453125,-19.6533203125,-6.6986083984375
10.069999900000001,-10.091560363769531,1.0965443849563599,-0.629675030708313,4.119873046875,-8.4381103515625,-13.9312744140625
10.0899999,-9.847352027893066,1.50355863571167,0.8307880163192749,-28.2440185546875,12.2833251953125,-9.8419189453125
10.1099999,-9.646238327026367,1.434126853942871,1.8770540952682495,-44.7540283203125,26.3519287109375,2.716064453125
10.129999900000001,-9.62947940826416,1.1444283723831177,2.161964178085327,-31.5093994140625,20.32470703125,4.4097900390625
10.149999900000001,-9.708487510681152,0.7326257228851318,1.482010841369629,-6.8206787109375,9.5062255859375,-1.800537109375
10.1699999,-9.921571731567383,0.5410895943641663,0.5722141861915588,16.754150390625,-2.2125244140625,-0.0152587890625
10.1899999,-10.050858497619629,0.5554547905921936,-0.21547815203666687,27.1759033203125,-14.7705078125,1.15966796875
10.209999900000001,-10.0580415725708,0.6703764796257019,-0.4165911078453064,20.294189453125,-14.83154296875,-6.591796875
10.229999900000001,-10.050858497619629,0.7852981686592102,-0.0694318488240242,1.6326904296875,-2.6397705078125,-5.340576171875
10.2499999,-9.95748519897461,0.8858546018600464,0.5386953949928284,-15.716552734375,7.171630859375,5.9967041015625
10.2699999,-9.864110946655273,0.8858546018600464,1.0414776802062988,-19.0582275390625,4.94384765625,6.53076171875
10.2899999,-9.876082420349121,0.9600749015808105,1.1540051698684692,-10.3759765625,5.4931640625,-3.6468505859375
10.309999900000001,-9.86889934539795,1.048660397529602,0.933738648891449,5.7830810546875,2.1209716796875,-4.150390625
10.3299999,-9.818621635437012,1.1085153818130493,0.7876923680305481,12.298583984375,-5.9814453125,-2.593994140625
10.3499999,-9.797073364257812,1.1300631761550903,0.7541735172271729,-0.5340576171875,-1.8157958984375,-6.04248046875
10.3699999,-9.782708168029785,0.993593692779541,0.8523358106613159,-16.326904296875,11.6424560546875,-4.2877197265625
10.389999900000001,-9.797073364257812,0.8786720037460327,0.9696516990661621,-19.4854736328125,16.11328125,1.7242431640625
10.4099999,-9.897629737854004,0.6799532771110535,0.7493851184844971,-11.6424560546875,7.32421875,1.9378662109375
10.4299999,-10.065223693847656,0.6368576288223267,0.24660277366638184,3.204345703125,0.6866455078125,-2.13623046875
10.4499999,-10.134655952453613,0.5650315880775452,-0.26815059781074524,20.721435546875,-10.3912353515625,-2.8839111328125
10.469999900000001,-10.182539939880371,0.6057330369949341,-0.45489832758903503,25.8331298828125,-19.1192626953125,-5.4473876953125
10.4899999,-10.041281700134277,0.6320692300796509,-0.1412578970193863,9.185791015625,-10.833740234375,-3.7384033203125
10.5099999,-9.861717224121094,0.6751648783683777,0.5530605912208557,-14.2059326171875,5.2337646484375,3.662109375
10.5299999,-9.792284965515137,0.7038952708244324,1.2114660739898682,-22.3846435546875,14.556884765625,7.5836181640625
10.549999900000001,-9.737217903137207,0.828393816947937,1.4389152526855469,-16.1285400390625,10.19287109375,5.2032470703125
10.569999900000001,-9.9000244140625,1.0414776802062988,1.1180921792984009,-5.5084228515625,7.0037841796875,0.8392333984375
10.5899999,-10.022128105163574,1.1683704853057861,0.6512228846549988,7.9193115234375,-2.685546875,-0.8087158203125
10.6099999,-10.053253173828125,1.235408067703247,0.47405192255973816,11.3983154296875,-6.561279296875,-5.889892578125
10.629999900000001,-9.981427192687988,1.0797849893569946,0.646434485912323,-5.5694580078125,7.1563720703125,-6.072998046875
10.649999900000001,-9.911994934082031,0.8379706144332886,1.1061211824417114,-26.0009765625,21.7132568359375,8.11767578125
10.6699999,-9.758766174316406,0.6607996821403503,1.4484920501708984,-32.77587890625,25.0244140625,16.78466796875
10.6899999,-9.75637149810791,0.6703764796257019,1.1803414821624756,-27.5421142578125,22.27783203125,9.368896484375
10.709999900000001,-9.86650562286377,0.9576807022094727,0.5746083855628967,-14.22119140625,18.9361572265625,1.739501953125
10.729999900000001,-9.856928825378418,1.2617442607879639,-0.17717093229293823,-4.5623779296875,0.823974609375,0.701904296875
10.7499999,-9.95748519897461,1.4963760375976562,-0.507570743560791,-2.9144287109375,-5.2337646484375,-11.5966796875
10.7699999,-9.971850395202637,1.3407529592514038,-0.5363011956214905,-6.65283203125,6.34765625,-19.4549560546875
10.7899999,-10.000580787658691,1.0127472877502441,-0.22744916379451752,-4.180908203125,9.21630859375,-2.13623046875
10.809999900000001,-10.031704902648926,0.47405192255973816,-0.023942016065120697,4.3182373046875,1.7547607421875,10.711669921875
10.8299999,-10.0580415725708,0.10773907601833344,-0.1173158809542656,14.373779296875,-5.55419921875,5.7220458984375
10.8499999,-10.127472877502441,0.11971008777618408,-0.4357447028160095,22.003173828125,-8.1634521484375,4.21142578125
10.8699999,-10.046070098876953,0.524330198764801,-0.4596867263317108,23.2696533203125,-19.195556640625,7.171630859375
10.889999900000001,-9.99100399017334,1.0582371950149536,-0.08858546614646912,6.40869140625,-16.9219970703125,-3.0670166015625
10.9099999,-9.77791976928711,1.4915876388549805,0.5626373887062073,-22.186279296875,6.1492919921875,-14.068603515625
10.9299999,-9.677363395690918,1.5275006294250488,1.1971008777618408,-31.7840576171875,18.8446044921875,-3.662109375
10.9499999,-9.619902610778809,1.194706678390503,1.4101848602294922,-25.634765625,15.106201171875,6.04248046875
10.969999900000001,-9.763554573059082,0.7757213711738586,0.9002198576927185,-18.5546875,7.0648193359375,8.7738037109375
10.9899999,-9.988609313964844,0.5793967843055725,-0.040701430290937424,-8.4075927734375,1.5106201171875,9.27734375
11.0099999,-10.108319282531738,0.5889736413955688,-0.6560112833976746,12.5274658203125,-25.390625,2.044677734375
11.0299999,-10.110713958740234,0.7709329724311829,-0.5793967843055725,14.0380859375,-25.5889892578125,-5.9967041015625
11.049999900000001,-9.998186111450195,0.8164227604866028,0.05985504388809204,-17.0135498046875,2.3040771484375,-1.9683837890625
11.069999900000001,-9.859322547912598,0.7637503147125244,0.9026140570640564,-29.388427734375,16.9525146484375,11.0626220703125
11.0899999,-9.832986831665039,0.667982280254364,1.2737152576446533,-11.444091796875,11.7034912109375,14.6026611328125
11.1099999,-9.813833236694336,0.7613561153411865,1.137245774269104,12.6190185546875,-3.3416748046875,3.3721923828125
11.129999900000001,-9.93354320526123,1.0319008827209473,0.6177040338516235,11.138916015625,-2.0599365234375,-8.4686279296875
11.149999900000001,-10.022128105163574,1.3024457693099976,0.20111294090747833,1.800537109375,-0.3814697265625,-3.7994384765625
11.1699999,-9.947908401489258,1.4269442558288574,0.16998831927776337,5.4931640625,-9.1094970703125,-3.7841796875
11.1899999,-9.861717224121094,1.2521674633026123,0.3758896589279175,-5.67626953125,-2.655029296875,-8.9111328125
11.209999900000001,-9.837775230407715,0.9145850539207458,0.4213795065879822,-27.7252197265625,14.16015625,2.2125244140625
11.229999900000001,-9.859322547912598,0.6344634294509888,0.49320554733276367,-18.3258056640625,8.270263671875,14.58740234375
11.2499999,-9.979032516479492,0.5315127968788147,0.17477671802043915,6.8511962890625,-10.284423828125,6.256103515625
11.2699999,-10.17296314239502,0.6272808313369751,-0.3208230137825012,17.4102783203125,-13.702392578125,-5.615234375
11.2899999,-10.168174743652344,0.9217676520347595,-0.4189853072166443,16.9830322265625,-20.4620361328125,0.5340576171875
11.309999900000001,-10.034099578857422,1.2761094570159912,0.14604631066322327,3.7689208984375,-19.9432373046875,1.800537109375
11.3299999,-9.801861763000488,1.4173674583435059,0.9097966551780701,-34.454345703125,4.9285888671875,-5.2337646484375
11.3499999,-9.672574996948242,1.436521053314209,1.5921441316604614,-59.50927734375,29.4952392578125,-1.617431640625
11.3699999,-9.655815124511719,1.1348515748977661,1.699883222579956,-38.0096435546875,19.6380615234375,10.772705078125
11.389999900000001,-9.821015357971191,0.7876923680305481,1.0582371950149536,-2.13623046875,-2.5634765625,7.965087890625
11.4099999,-10.070012092590332,0.524330198764801,-0.05267243832349777,22.216796875,-12.1002197265625,-1.068115234375
11.4299999,-10.163386344909668,0.6129156351089478,-0.5841852426528931,36.285400390625,-24.0325927734375,2.197265625
11.4499999,-10.036493301391602,0.9911994934082031,-0.35913026332855225,25.57373046875,-25.8636474609375,1.52587890625
11.469999900000001,-9.775525093078613,1.3551181554794312,0.545877993106842,-18.9208984375,2.13623046875,-5.6304931640625
11.4899999,-9.567230224609375,1.5729905366897583,1.5490485429763794,-55.9844970703125,33.75244140625,-5.279541015625
11.5099999,-9.488221168518066,1.4844050407409668,2.011129379272461,-45.196533203125,31.4178466796875,6.5155029296875
11.5299999,-9.641449928283691,1.2282254695892334,1.5179238319396973,-14.83154296875,10.7879638671875,7.568359375
11.549999900000001,-9.926360130310059,1.0558429956436157,0.363918662071228,4.39453125,0.2288818359375,-2.8533935546875
11.569999900000001,-10.010157585144043,0.9792284965515137,-0.3902548849582672,19.10400390625,-19.134521484375,-6.2103271484375
11.5899999,-10.050858497619629,1.015141487121582,-0.524330198764801,11.5814208984375,-17.2119140625,-9.429931640625
11.6099999,-9.864110946655273,0.9217676520347595,0.31364041566848755,-23.01025390625,7.2021484375,-3.0364990234375
11.629999900000001,-9.75637149810791,0.7398083209991455,1.1683704853057861,-55.7098388671875,34.7747802734375,7.3699951171875
11.649999900000001,-9.854534149169922,0.6392518281936646,1.280897855758667,-42.9534912109375,31.31103515625,17.7764892578125
11.6699999,-9.873687744140625,0.751779317855835,0.8259995579719543,8.6669921875,-4.4708251953125,9.9334716796875
11.6899999,-10.012551307678223,0.9983820915222168,-0.08379705995321274,36.9415283203125,-20.5078125,-12.14599609375
11.709999900000001,-10.067618370056152,1.235408067703247,-0.7182605266571045,31.524658203125,-12.420654296875,-15.3656005859375
11.729999900000001,-9.967061996459961,1.335964560508728,-0.5027823448181152,24.47509765625,-16.0369873046875,-3.509521484375
11.7499999,-9.849745750427246,1.3120225667953491,0.4644751250743866,3.692626953125,-7.4310302734375,-1.7242431640625
11.7699999,-9.718064308166504,1.158793568611145,1.3958195447921753,-44.9371337890625,24.3682861328125,-2.50244140625
11.7899999,-9.646238327026367,1.1013327836990356,1.8411411046981812,-68.450927734375,43.27392578125,9.368896484375
11.809999900000001,-9.708487510681152,1.1683704853057861,1.5921441316604614,-39.031982421875,16.204833984375,11.0321044921875
11.8299999,-9.744400978088379,1.170764684677124,0.49799394607543945,-8.9874267578125,-5.9051513671875,-7.2479248046875
11.8499999,-9.739612579345703,1.0606313943862915,-0.5937620401382446,4.119873046875,-8.60595703125,-10.650634765625
11.8699999,-8.683769226074219,0.8379706144332886,-0.6919242739677429,7.415771484375,-17.333984375,3.84521484375
11.889999900000001,-7.848193168640137,0.23702596127986908,-0.28969839215278625,-16.693115234375,-0.3509521484375,14.6026611328125
11.9099999,-7.493851184844971,0.272938996553421,0.5482721924781799,-35.33935546875,24.078369140625,18.1884765625
11.9299999,-8.094796180725098,0.6129156351089478,1.2258312702178955,-41.9464111328125,22.4609375,18.3563232421875
11.9499999,-9.75637149810791,1.4963760375976562,1.5107412338256836,-57.281494140625,21.6522216796875,5.767822265625
11.969999900000001,-11.23598861694336,1.9321208000183105,0.8667010068893433,-53.3905029296875,25.6805419921875,-14.7552490234375
11.9899999,-12.050017356872559,2.011129379272461,0.011971008032560349,2.105712890625,10.1318359375,-7.0648193359375
12.0099999,-11.923124313354492,1.1851298809051514,-0.9600749015808105,56.884765625,-31.6925048828125,-1.0986328125
12.0299999,-10.824186325073242,-0.09576806426048279,-1.036689281463623,84.16748046875,-31.7535400390625,3.0975341796875
12.049999900000001,-10.225635528564453,0.17956513166427612,0.13168109953403473,50.872802734375,-5.2642822265625,14.312744140625
12.069999900000001,-9.976638793945312,0.8738836050033569,1.2306196689605713,3.5858154296875,22.796630859375,7.99560546875
12.0899999,-9.806650161743164,1.7405846118927002,1.9728221893310547,-16.9219970703125,21.820068359375,-2.4261474609375
12.1099999,-9.974244117736816,2.229001760482788,1.843535304069519,-28.86962890625,20.6451416015625,-1.15966796875
12.129999900000001,-9.93354320526123,2.0470423698425293,1.2665326595306396,-34.3780517578125,17.9595947265625,5.1422119140625
12.149999900000001,-10.089165687561035,1.5753847360610962,0.42377370595932007,-31.7840576171875,8.23974609375,9.5672607421875
12.1699999,-10.127472877502441,0.9313444495201111,-0.569819986820221,-14.7705078125,-9.70458984375,10.07080078125
12.1899999,-9.983820915222168,0.5123591423034668,-0.9193734526634216,11.2457275390625,-25.9552001953125,8.544921875
12.209999900000001,-9.983820915222168,0.4692635238170624,-0.9768342971801758,17.8375244140625,-20.2178955078125,11.871337890625
12.229999900000001,-9.8784761428833,0.8427590131759644,-0.43095630407333374,4.7760009765625,-8.97216796875,8.2244873046875
12.2499999,-9.780313491821289,1.3096283674240112,0.22266076505184174,-10.2386474609375,0.1983642578125,-0.6103515625
12.2699999,-9.72285270690918,1.7286136150360107,0.7565677165985107,-9.6282958984375,0.9613037109375,-5.523681640625
12.289999900000002,-9.725247383117676,1.8626888990402222,0.9624691009521484,0.640869140625,-0.885009765625,-6.1492919921875
12.309999900000001,-9.770736694335938,1.6927006244659424,0.9720458984375,9.033203125,0.5340576171875,-5.462646484375
12.3299999,-9.799467086791992,1.3239935636520386,0.9193734526634216,13.7481689453125,1.9989013671875,-1.617431640625
12.3499999,-9.849745750427246,1.0271124839782715,0.8068459630012512,13.702392578125,3.8909912109375,5.43212890625
12.3699999,-9.885659217834473,0.8882488012313843,0.6392518281936646,9.8114013671875,4.608154296875,7.6446533203125
12.389999900000001,-9.880870819091797,1.0055646896362305,0.45250412821769714,4.7607421875,3.143310546875,2.7313232421875
12.4099999,-9.897629737854004,1.2952631711959839,0.28969839215278625,1.1444091796875,2.5177001953125,-3.4332275390625
12.4299999,-9.911994934082031,1.50355863571167,0.1867477297782898,1.8463134765625,1.5869140625,-6.4544677734375
12.4499999,-9.928754806518555,1.5490485429763794,0.15322890877723694,4.7149658203125,-1.40380859375,-4.0740966796875
12.469999900000001,-9.923966407775879,1.414973258972168,0.19871874153614044,3.7841796875,-2.44140625,0.54931640625
12.4899999,-9.914389610290527,1.2042834758758545,0.22505496442317963,1.8768310546875,0.3204345703125,3.2196044921875
12.5099999,-9.916783332824707,1.1061211824417114,0.2513911724090576,2.3345947265625,-0.244140625,2.99072265625
12.5299999,-9.90241813659668,1.1061211824417114,0.2513911724090576,2.01416015625,-4.69970703125,0.9002685546875
12.549999900000001,-9.897629737854004,1.2018892765045166,0.2561795711517334,-2.0294189453125,-4.7607421875,0.6103515625
12.569999900000001,-9.892841339111328,1.3192051649093628,0.2968810200691223,-7.049560546875,-2.86865234375,1.3275146484375
12.5899999,-9.873687744140625,1.3886369466781616,0.38307225704193115,-10.7879638671875,-2.0294189453125,1.495361328125
12.6099999,-9.854534149169922,1.3718775510787964,0.4644751250743866,-10.9405517578125,-0.91552734375,1.190185546875
12.629999900000001,-9.864110946655273,1.2545616626739502,0.4908113479614258,-6.89697265625,0.244140625,2.227783203125
12.649999900000001,-9.892841339111328,1.137245774269104,0.5171475410461426,-2.2430419921875,-1.2054443359375,5.645751953125
12.6699999,-9.888052940368652,1.1013327836990356,0.5482721924781799,-3.4637451171875,-2.2430419921875,8.758544921875
12.6899999,-9.859322547912598,1.1899182796478271,0.5482721924781799,-7.2174072265625,0.7476806640625,7.080078125
12.709999900000001,-9.818621635437012,1.37906014919281,0.5434837937355042,-4.3792724609375,2.0904541015625,1.708984375
12.729999900000001,-9.785101890563965,1.5394717454910278,0.5267243981361389,2.166748046875,-0.30517578125,-2.9296875
12.7499999,-9.801861763000488,1.6089035272598267,0.5027823448181152,1.7242431640625,-1.0223388671875,-3.35693359375
12.7699999,-9.828198432922363,1.5442601442337036,0.4668693244457245,-4.1046142578125,1.0833740234375,-0.9765625
12.789999900000002,-9.852140426635742,1.4484920501708984,0.4572925269603729,-2.01416015625,0.79345703125,0.701904296875
12.809999900000001,-9.840168952941895,1.3886369466781616,0.47165772318840027,3.4637451171875,-0.946044921875,0.030517578125
12.8299999,-9.852140426635742,1.3694833517074585,0.4812345504760742,1.129150390625,0.3814697265625,-2.3040771484375
12.8499999,-9.86889934539795,1.3623007535934448,0.4596867263317108,-2.99072265625,1.8768310546875,-2.8076171875
12.8699999,-9.84495735168457,1.4317326545715332,0.6320692300796509,-1.8157958984375,-0.3204345703125,-1.15966796875
12.889999900000001,-9.792284965515137,1.5825673341751099,0.8906430602073669,-14.9078369140625,5.37109375,-0.2593994140625
12.9099999,-9.66539192199707,1.8363527059555054,1.3072341680526733,-45.6695556640625,23.4527587890625,-2.2735595703125
12.9299999,-9.627084732055664,2.0398597717285156,1.3886369466781616,-71.044921875,40.0543212890625,-5.9356689453125
12.9499999,-9.727641105651855,1.9033904075622559,0.9983820915222168,-71.0601806640625,35.7208251953125,-8.3770751953125
12.969999900000001,-9.926360130310059,1.4700398445129395,0.05985504388809204,-41.473388671875,8.7127685546875,-6.2103271484375
12.9899999,-10.249577522277832,0.5434837937355042,-0.8882488012313843,-5.2642822265625,-15.411376953125,4.5928955078125
13.0099999,-10.35252857208252,0.14604631066322327,-1.4772224426269531,21.8658447265625,-27.801513671875,13.824462890625
13.0299999,-10.268731117248535,0.14365209639072418,-0.7182605266571045,26.947021484375,-25.115966796875,13.4735107421875
13.049999900000001,-9.979032516479492,0.7565677165985107,0.22026655077934265,-5.55419921875,10.6964111328125,-0.5035400390625
13.069999900000001,-9.677363395690918,1.5275006294250488,1.2186486721038818,-33.4930419921875,31.6009521484375,-4.5318603515625
13.0899999,-9.548076629638672,2.0039467811584473,1.5322890281677246,-31.9976806640625,20.81298828125,2.4871826171875
13.1099999,-9.799467086791992,1.8698714971542358,0.9002198576927185,-16.4031982421875,-2.6702880859375,-3.2196044921875
13.129999900000001,-9.95748519897461,1.455674648284912,0.07661445438861847,3.9520263671875,-12.5732421875,1.220703125
13.149999900000001,-10.192116737365723,1.173158884048462,-0.3016694188117981,15.5487060546875,-16.8914794921875,9.70458984375
13.1699999,-10.096348762512207,1.1540051698684692,0.009576806798577309,4.8828125,-9.5062255859375,1.5411376953125
13.1899999,-9.926360130310059,1.2689268589019775,0.33518823981285095,-21.759033203125,23.1475830078125,-7.9345703125
13.209999900000001,-9.821015357971191,1.5969325304031372,0.727837324142456,-18.61572265625,14.1754150390625,3.2501220703125
13.229999900000001,-9.825803756713867,1.6280571222305298,0.730231523513794,-10.1318359375,-7.75146484375,2.9144287109375
13.2499999,-9.856928825378418,1.4508862495422363,0.21787235140800476,-11.5509033203125,1.0986328125,-6.988525390625
13.2699999,-9.914389610290527,1.3407529592514038,-0.047884032130241394,1.983642578125,-1.2054443359375,3.448486328125
13.289999900000002,-9.765948295593262,1.3766659498214722,0.05267243832349777,9.246826171875,-17.4102783203125,1.9378662109375
13.309999900000001,-9.68933391571045,1.173158884048462,-0.09816227108240128,-7.9498291015625,0,-8.1024169921875
13.3299999,-9.627084732055664,1.2234370708465576,0.20111294090747833,-5.2337646484375,14.068603515625,-2.4566650390625
13.3499999,-9.624691009521484,1.1061211824417114,0.28730419278144836,12.5274658203125,-1.739501953125,7.6751708984375
13.3699999,-9.691728591918945,1.1683704853057861,0.35673606395721436,6.2103271484375,-0.1220703125,4.913330078125
13.389999900000001,-9.75637149810791,1.3718775510787964,0.304063618183136,-8.23974609375,9.8419189453125,-3.0059814453125
13.4099999,-9.797073364257812,1.680729627609253,0.35434186458587646,-2.197265625,4.5166015625,-10.1165771484375
13.4299999,-9.859322547912598,1.7310078144073486,0.2298433631658554,7.6904296875,-2.716064453125,-11.8865966796875
13.4499999,-9.909601211547852,1.5418659448623657,0.17956513166427612,11.2762451171875,-2.716064453125,-7.4310302734375
13.469999900000001,-9.919178009033203,1.2473790645599365,0.2513911724090576,13.00048828125,-1.9073486328125,-0.6866455078125
13.4899999,-9.93354320526123,1.0247182846069336,0.35913026332855225,7.659912109375,2.3956298828125,2.25830078125
13.5099999,-9.940725326538086,1.0127472877502441,0.40222588181495667,0.8544921875,4.974365234375,0.6256103515625
13.5299999,-9.895236015319824,1.1492167711257935,0.4596867263317108,1.434326171875,0.8392333984375,-3.326416015625
13.549999900000001,-9.880870819091797,1.3072341680526733,0.48602294921875,1.6937255859375,1.922607421875,-3.997802734375
13.569999900000001,-9.871294021606445,1.290474772453308,0.5003881454467773,2.99072265625,7.3089599609375,-1.4801025390625
13.5899999,-9.880870819091797,1.0630255937576294,0.45489832758903503,12.14599609375,5.4931640625,3.11279296875
13.6099999,-9.919178009033203,0.8810662031173706,0.3208230137825012,23.8800048828125,-0.3204345703125,8.270263671875
13.629999900000001,-9.931148529052734,0.8667010068893433,0.181959331035614,27.89306640625,-1.6632080078125,7.99560546875
13.649999900000001,-9.895236015319824,1.161187767982483,0.06464344263076782,19.989013671875,1.0223388671875,0.0152587890625
13.6699999,-9.813833236694336,1.5753847360610962,0.07661445438861847,8.4686279296875,1.983642578125,-8.9263916015625
13.6899999,-9.761159896850586,1.8818424940109253,0.16998831927776337,2.38037109375,1.9683837890625,-10.345458984375
13.709999900000001,-9.785101890563965,1.86508309841156,0.19632454216480255,2.960205078125,3.9215087890625,-6.6375732421875
13.729999900000001,-9.888052940368652,1.6184803247451782,-0.1173158809542656,10.9405517578125,0.42724609375,-4.8370361328125
13.7499999,-10.012551307678223,1.359906554222107,-0.33518823981285095,26.1077880859375,-15.5487060546875,-8.8043212890625
13.7699999,-10.127472877502441,1.0414776802062988,-0.8547300100326538,37.1551513671875,-25.4974365234375,-9.9334716796875
13.789999900000002,-10.192116737365723,0.9409212470054626,-0.8954314589500427,45.501708984375,-34.8052978515625,-6.622314453125
13.809999900000001,-10.070012092590332,0.8595184087753296,-0.3926490843296051,42.236328125,-34.5001220703125,-1.129150390625
13.8299999,-9.90241813659668,0.950498104095459,0.5386953949928284,17.4102783203125,-15.0909423828125,3.0517578125
13.8499999,-9.749189376831055,1.0989385843276978,1.37906014919281,-16.021728515625,10.8489990234375,6.2255859375
13.8699999,-9.706093788146973,1.2234370708465576,1.6400281190872192,-27.618408203125,10.0555419921875,9.4146728515625
13.889999900000001,-9.749189376831055,1.2952631711959839,1.2737152576446533,-20.4620361328125,-11.8255615234375,8.2244873046875
13.9099999,-9.804255485534668,1.3766659498214722,0.8355764150619507,-14.7705078125,-22.5067138671875,7.2021484375
13.9299999,-9.813833236694336,1.414973258972168,0.5410895943641663,-23.3306884765625,-4.7607421875,5.218505859375
13.9499999,-9.763554573059082,1.4317326545715332,0.6967126727104187,-23.3306884765625,9.2315673828125,0.9918212890625
13.969999900000001,-9.725247383117676,1.335964560508728,0.8738836050033569,-5.6610107421875,4.82177734375,-0.030517578125
13.9899999,-9.732429504394531,1.1635819673538208,1.0271124839782715,13.1683349609375,-0.579833984375,2.2430419921875
14.0099999,-9.773131370544434,0.9768342971801758,0.9888052940368652,18.524169921875,7.110595703125,4.39453125
14.0299999,-9.821015357971191,0.8882488012313843,0.9744400978088379,22.003173828125,10.1165771484375,3.875732421875
14.049999900000001,-9.813833236694336,0.8906430602073669,0.9385270476341248,26.9775390625,5.9661865234375,5.3253173828125
14.069999900000001,-9.830592155456543,1.0678139925003052,0.8140285611152649,25.1312255859375,8.5601806640625,8.1634521484375
14.0899999,-9.840168952941895,1.338358759880066,0.629675030708313,19.34814453125,12.51220703125,3.8909912109375
14.1099999,-9.830592155456543,1.6352397203445435,0.4884171485900879,16.5863037109375,8.72802734375,-4.1656494140625
14.129999900000001,-9.856928825378418,1.8267759084701538,0.2968810200691223,13.2904052734375,5.859375,-6.2103271484375
14.149999900000001,-9.888052940368652,1.8411411046981812,0.17477671802043915,9.4757080078125,5.126953125,-2.25830078125
14.1699999,-9.8784761428833,1.7070658206939697,0.16759411990642548,7.1563720703125,4.791259765625,-0.3814697265625
14.1899999,-9.86889934539795,1.580173134803772,0.19632454216480255,6.04248046875,7.4462890625,-2.1820068359375
14.209999900000001,-9.871294021606445,1.50355863571167,0.2801215946674347,9.185791015625,7.568359375,-5.645751953125
14.229999900000001,-9.90241813659668,1.4269442558288574,0.27054479718208313,13.7481689453125,5.43212890625,-7.354736328125
14.2499999,-9.95748519897461,1.3766659498214722,0.14844051003456116,13.9007568359375,0.3814697265625,-4.547119140625
14.2699999,-10.022128105163574,1.3623007535934448,-0.1604115068912506,6.5460205078125,-6.53076171875,-0.762939453125
14.289999900000002,-10.0580415725708,1.3335703611373901,-0.4213795065879822,-4.3182373046875,-15.9149169921875,-1.190185546875
14.309999900000001,-10.086771965026855,1.3335703611373901,-0.5913678407669067,-11.41357421875,-19.3634033203125,-1.556396484375
14.3299999,-10.007762908935547,1.2449848651885986,-0.3663128614425659,-11.9171142578125,-19.805908203125,1.4801025390625
14.3499999,-9.885659217834473,1.158793568611145,0.21787235140800476,-12.8326416015625,-12.0086669921875,5.645751953125
14.3699999,-9.768342971801758,1.0606313943862915,0.8188169598579407,-14.34326171875,4.2877197265625,7.415771484375
14.389999900000001,-9.660603523254395,1.1013327836990356,1.2665326595306396,-2.9296875,7.354736328125,5.828857421875
14.4099999,-9.677363395690918,1.170764684677124,1.2737152576446533,13.36669921875,-0.2899169921875,0.7781982421875
14.4299999,-9.75397777557373,1.2832920551300049,0.9792284965515137,26.6571044921875,-6.7596435546875,-3.143310546875
14.4499999,-9.859322547912598,1.381454348564148,0.7038952708244324,31.7535400390625,-6.7291259765625,-2.9296875
14.469999900000001,-9.995792388916016,1.237802267074585,0.3711012601852417,28.7628173828125,-1.6937255859375,-3.2501220703125
14.4899999,-10.141838073730469,1.259350061416626,-0.028730420395731926,42.0684814453125,-9.6893310546875,-6.7596435546875
14.5099999,-10.249577522277832,0.9840168952941895,-0.24660277366638184,59.75341796875,-20.1873779296875,-12.542724609375
14.5299999,-10.249577522277832,0.9792284965515137,-0.16998831927776337,60.9893798828125,-29.7698974609375,-8.941650390625
14.549999900000001,-10.091560363769531,1.0797849893569946,0.47644615173339844,34.2254638671875,-10.498046875,6.500244140625
14.569999900000001,-9.761159896850586,1.3646949529647827,1.290474772453308,-1.0528564453125,15.13671875,6.40869140625
14.5899999,-9.68694019317627,1.6160861253738403,1.7070658206939697,-14.5111083984375,28.9764404296875,-3.814697265625
14.6099999,-9.715670585632324,1.8076223134994507,1.6089035272598267,-8.636474609375,12.847900390625,-7.99560546875
14.629999900000001,-9.983820915222168,1.7190368175506592,0.8451532125473022,-8.4686279296875,0.9613037109375,-1.9073486328125
14.649999900000001,-10.050858497619629,1.5705963373184204,0.18914192914962769,-4.6844482421875,-5.5999755859375,8.2855224609375
14.6699999,-10.079588890075684,1.2617442607879639,-0.3926490843296051,6.500244140625,-12.20703125,4.364013671875
14.6899999,-9.856928825378418,1.0582371950149536,-0.33997663855552673,25.57373046875,-15.68603515625,-5.0048828125
14.709999900000001,-9.682151794433594,1.05105459690094,0.08619125932455063,29.327392578125,-10.80322265625,-0.762939453125
14.729999900000001,-9.567230224609375,1.278503656387329,0.8451532125473022,8.5906982421875,4.974365234375,5.5999755859375
14.7499999,-9.519346237182617,1.6663644313812256,1.3120225667953491,-11.016845703125,23.6053466796875,0.54931640625
14.7699999,-9.646238327026367,1.9105730056762695,1.3072341680526733,-3.4637451171875,15.8843994140625,-13.4429931640625
14.789999900000002,-9.80904483795166,1.7956513166427612,0.7852981686592102,14.46533203125,-5.2032470703125,-14.923095703125
14.809999900000001,-10.283096313476562,1.4772224426269531,0.2346317619085312,23.956298828125,-11.29150390625,-4.3487548828125
14.8299999,-10.304644584655762,1.0414776802062988,0.004788403399288654,20.599365234375,-9.70458984375,1.15966796875
14.8499999,-10.273519515991211,0.9576807022094727,0.1173158809542656,13.9923095703125,-0.6866455078125,9.796142578125
14.8699999,-10.182539939880371,1.072602391242981,0.43095630407333374,11.6729736328125,3.6468505859375,-2.6397705078125
14.889999900000001,-9.928754806518555,1.3287819623947144,0.5985504388809204,7.87353515625,-0.9918212890625,-10.2996826171875
14.9099999,-10.08198356628418,1.5753847360610962,0.8020575642585754,-0.5035400390625,3.72314453125,-0.0457763671875
14.9299999,-10.192116737365723,1.7166426181793213,0.7565677165985107,-7.6141357421875,4.4403076171875,-4.5623779296875
14.9499999,-10.299856185913086,1.6184803247451782,0.5841852426528931,-6.2713623046875,2.197265625,-4.852294921875
14.969999900000001,-10.426748275756836,1.4772224426269531,0.29209262132644653,3.8299560546875,-3.3721923828125,-4.08935546875
14.9899999,-10.424354553222656,1.2258312702178955,-0.07422025501728058,14.9078369140625,-13.7786865234375,-8.7890625
15.0099999,-10.345345497131348,1.0630255937576294,-0.26575639843940735,23.590087890625,-15.7318115234375,-2.2125244140625
15.0299999,-10.14902114868164,0.9864110946655273,-0.2801215946674347,28.472900390625,-16.3116455078125,-0.9307861328125
15.049999900000001,-10.046070098876953,1.0845733880996704,-0.004788403399288654,28.167724609375,-18.218994140625,-6.8511962890625
15.069999900000001,-9.919178009033203,1.216254472732544,0.3495534360408783,23.8494873046875,-17.2882080078125,-13.85498046875
15.0899999,-9.955090522766113,1.4437036514282227,0.8403648138046265,16.357421875,-7.9193115234375,-16.357421875
15.1099999,-9.995792388916016,1.5729905366897583,1.2521674633026123,4.9285888671875,-9.185791015625,-6.7596435546875
15.129999900000001,-10.022128105163574,1.7094600200653076,1.5490485429763794,-5.6915283203125,-0.7476806640625,-7.8277587890625
15.149999900000001,-10.012551307678223,1.644816517829895,1.7884687185287476,-10.589599609375,11.53564453125,-17.4713134765625
15.1699999,-9.967061996459961,1.5538369417190552,1.8387469053268433,-19.500732421875,22.9339599609375,-26.6876220703125
15.1899999,-9.821015357971191,1.2761094570159912,1.7477672100067139,-37.9638671875,32.8826904296875,-21.484375
15.209999900000001,-9.610325813293457,0.9361328482627869,1.414973258972168,-40.2984619140625,34.9884033203125,-11.16943359375
15.229999900000001,-9.354146003723145,0.5267243981361389,0.8379706144332886,-26.3824462890625,33.7677001953125,-10.43701171875
15.2499999,-9.150638580322266,0.12210428714752197,0.12689268589019775,-8.056640625,27.89306640625,-16.082763671875
15.2699999,-8.995016098022461,-0.2059013396501541,-0.5147533416748047,7.904052734375,11.5509033203125,-16.4337158203125
15.289999900000002,-8.9064302444458,-0.3423708379268646,-0.9313444495201111,17.1051025390625,-8.7890625,-7.7362060546875
15.309999900000001,-8.834604263305664,-0.33997663855552673,-1.0223240852355957,21.942138671875,-22.1099853515625,1.190185546875
15.3299999,-8.825027465820312,-0.1604115068912506,-0.8068459630012512,24.9176025390625,-23.7274169921875,11.016845703125
15.3499999,-8.983044624328613,0.17238251864910126,-0.38546648621559143,24.261474609375,-17.120361328125,15.7928466796875
15.3699999,-9.253589630126953,0.5674257874488831,0.13407529890537262,19.10400390625,-15.106201171875,5.7830810546875
15.389999900000001,-9.581595420837402,0.9552865028381348,0.6272808313369751,11.2457275390625,-13.092041015625,-8.30078125
15.4099999,-9.856928825378418,1.2473790645599365,1.0414776802062988,2.6092529296875,-6.4239501953125,-11.7645263671875
15.4299999,-9.962273597717285,1.3694833517074585,1.280897855758667,-7.5836181640625,0.6103515625,-4.425048828125
15.4499999,-9.888052940368652,1.3431471586227417,1.3527239561080933,-16.0980224609375,3.35693359375,2.7923583984375
15.469999900000001,-9.746794700622559,1.2090718746185303,1.237802267074585,-19.59228515625,8.270263671875,5.43212890625
15.4899999,-9.643844604492188,1.048660397529602,0.9888052940368652,-18.707275390625,13.7176513671875,4.6844482421875
15.5099999,-9.59596061706543,0.8738836050033569,0.6703764796257019,-15.1214599609375,13.336181640625,1.4190673828125
15.5299999,-9.622296333312988,0.7182605266571045,0.3519476354122162,-8.72802734375,10.650634765625,-1.220703125
15.549999900000001,-9.696516990661621,0.5985504388809204,0.10295066982507706,-0.9765625,7.354736328125,0.701904296875
15.569999900000001,-9.849745750427246,0.5363011956214905,-0.05027823522686958,3.7078857421875,-5.0201416015625,7.415771484375
15.5899999,-10.014945983886719,0.5363011956214905,-0.07182604819536209,5.5389404296875,-27.496337890625,12.0086669921875
15.6099999,-10.393229484558105,0.6607996821403503,0.1173158809542656,9.185791015625,-37.9180908203125,8.4228515625
15.629999900000001,-10.682928085327148,0.7757213711738586,0.29209262132644653,16.4947509765625,-9.033203125,-4.7607421875
15.649999900000001,-10.876858711242676,0.9768342971801758,0.5482721924781799,21.5911865234375,-8.4228515625,3.6468505859375
15.6699999,-10.864887237548828,1.1252747774124146,0.7158663272857666,21.148681640625,-12.725830078125,-3.4942626953125
15.6899999,-10.500968933105469,1.2210428714752197,0.849941611289978,16.4031982421875,-11.474609375,-15.594482421875
15.709999900000001,-10.007762908935547,1.259350061416626,0.9672574996948242,10.1470947265625,5.5999755859375,-20.2178955078125
15.729999900000001,-9.50498104095459,1.1109095811843872,1.2090718746185303,-4.150390625,-2.105712890625,-5.3863525390625
15.7499999,-9.593565940856934,0.9624691009521484,1.2330138683319092,-3.936767578125,2.777099609375,-0.0762939453125
15.7699999,-9.773131370544434,0.7350199222564697,1.1324573755264282,0.8544921875,2.685546875,-2.777099609375
15.789999900000002,-9.914389610290527,0.5195417404174805,0.9433154463768005,5.7373046875,-1.922607421875,-2.5482177734375
15.809999900000001,-9.99100399017334,0.3687070608139038,0.7709329724311829,8.087158203125,-2.25830078125,2.2430419921875
15.8299999,-10.062829971313477,0.2777273952960968,0.6105214357376099,6.1798095703125,-4.3182373046875,7.7056884765625
15.8499999,-10.077195167541504,0.3016694188117981,0.5482721924781799,4.94384765625,-2.593994140625,7.0648193359375
15.869999900000002,-10.034099578857422,0.3998316824436188,0.5985504388809204,6.0577392578125,-11.3983154296875,2.777099609375
15.889999900000001,-9.96945571899414,0.5626373887062073,0.7445967197418213,7.354736328125,-15.5792236328125,-1.9683837890625
15.9099999,-9.876082420349121,0.7422025203704834,0.9409212470054626,6.2408447265625,-0.1678466796875,-6.0272216796875
15.9299999,-9.813833236694336,0.8738836050033569,1.1037269830703735,2.838134765625,4.1961669921875,-0.3204345703125
15.9499999,-9.75397777557373,0.9528923034667969,1.1803414821624756,0.1678466796875,3.0059814453125,1.0986328125
15.969999900000001,-9.797073364257812,0.9696516990661621,1.0965443849563599,-1.434326171875,5.340576171875,-2.2735595703125
15.9899999,-9.837775230407715,0.9648633003234863,0.9169792532920837,-1.6937255859375,6.3018798828125,-1.5106201171875
16.0099999,-9.888052940368652,0.9624691009521484,0.727837324142456,-0.30517578125,2.166748046875,0.18310546875
16.0299999,-9.931148529052734,0.9744400978088379,0.6057330369949341,0.457763671875,1.434326171875,-2.3040771484375
16.0499999,-9.921571731567383,0.9074024558067322,0.5841852426528931,-1.6632080078125,3.72314453125,-2.25830078125
16.0699999,-9.938331604003906,0.7374141216278076,0.646434485912323,-2.0599365234375,8.8958740234375,2.6397705078125
16.089999900000002,-9.926360130310059,0.5219359993934631,0.7134721279144287,0.4119873046875,3.7994384765625,2.471923828125
16.109999900000002,-9.95748519897461,0.2992752194404602,0.727837324142456,2.7618408203125,1.678466796875,3.3111572265625
16.1299999,-9.914389610290527,0.2106897532939911,0.6799532771110535,3.8604736328125,0.579833984375,4.5166015625
16.1499999,-9.931148529052734,0.26815059781074524,0.6153098344802856,5.0201416015625,0,6.40869140625
16.1699999,-9.892841339111328,0.4357447028160095,0.5913678407669067,6.439208984375,-1.0528564453125,5.7525634765625
16.1899999,-9.911994934082031,0.6344634294509888,0.6177040338516235,5.126953125,-2.1514892578125,3.448486328125
16.2099999,-9.880870819091797,0.8020575642585754,0.7733271718025208,0.701904296875,1.556396484375,1.4495849609375
16.2299999,-9.86650562286377,1.0295066833496094,1.0271124839782715,-7.5531005859375,8.8958740234375,-0.274658203125
16.249999900000002,-9.801861763000488,1.1659762859344482,1.2737152576446533,-18.9056396484375,13.763427734375,3.3721923828125
16.269999900000002,-9.799467086791992,1.3407529592514038,1.4077905416488647,-27.7862548828125,18.1121826171875,1.983642578125
16.2899999,-9.782708168029785,1.4197616577148438,1.3886369466781616,-30.9295654296875,19.4091796875,-1.0986328125
16.3099999,-9.818621635437012,1.436521053314209,1.1635819673538208,-33.87451171875,19.53125,-3.60107421875
16.3299999,-9.86889934539795,1.338358759880066,0.7876923680305481,-34.637451171875,19.0277099609375,-4.9896240234375
16.3499999,-9.952696800231934,1.1683704853057861,0.35913026332855225,-27.435302734375,14.70947265625,-6.3323974609375
16.3699999,-10.046070098876953,0.9097966551780701,-0.10534487664699554,-13.7481689453125,7.568359375,-7.293701171875
16.3899999,-10.141838073730469,0.586579442024231,-0.569819986820221,1.8463134765625,-1.251220703125,-7.049560546875
16.4099999,-10.196905136108398,0.1843535304069519,-0.8595184087753296,17.181396484375,-11.2152099609375,-3.9825439453125
16.429999900000002,-10.225635528564453,-0.19632454216480255,-1.0007762908935547,25.604248046875,-17.791748046875,3.2196044921875
16.4499999,-10.220847129821777,-0.5315127968788147,-0.912190854549408,30.3497314453125,-22.613525390625,10.345458984375
16.4699999,-10.180145263671875,-0.7493851184844971,-0.6751648783683777,36.5753173828125,-27.4200439453125,17.0745849609375
16.4899999,-10.108319282531738,-0.7469909191131592,-0.3423708379268646,42.4346923828125,-30.303955078125,23.25439453125
16.5099999,-10.014945983886719,-0.5291185975074768,0.009576806798577309,45.47119140625,-31.2042236328125,28.289794921875
16.5299999,-9.897629737854004,-0.0933738648891449,0.37828385829925537,46.844482421875,-32.196044921875,29.1748046875
16.5499999,-9.751583099365234,0.569819986820221,0.8355764150619507,41.9921875,-31.1279296875,28.6865234375
16.5699999,-9.605537414550781,1.434126853942871,1.3742717504501343,22.1710205078125,-21.331787109375,26.0009765625
16.589999900000002,-9.469067573547363,2.343923568725586,1.8794482946395874,-3.2958984375,-10.772705078125,17.486572265625
16.609999900000002,-9.387664794921875,3.0813376903533936,2.252943754196167,-22.1710205078125,-3.387451171875,6.9122314453125
16.6299999,-9.411606788635254,3.4739866256713867,2.3774423599243164,-34.820556640625,0.5950927734375,1.434326171875
16.6499999,-9.502586364746094,3.5386300086975098,2.1978771686553955,-40.95458984375,1.3580322265625,-3.2196044921875
16.6699999,-9.627084732055664,3.157952070236206,1.8100165128707886,-36.2091064453125,-1.0833740234375,-10.7879638671875
16.6899999,-9.72285270690918,2.6384103298187256,1.3192051649093628,-19.8822021484375,-3.47900390625,-17.27294921875
16.7099999,-9.801861763000488,1.8842366933822632,0.8331822156906128,-1.0833740234375,-8.148193359375,-18.85986328125
16.7299999,-9.821015357971191,1.3072341680526733,0.6320692300796509,10.07080078125,-11.2457275390625,-15.8233642578125
16.749999900000002,-9.84495735168457,0.6799532771110535,0.6991068720817566,10.0250244140625,-11.2762451171875,-12.420654296875
16.769999900000002,-9.852140426635742,0.37828385829925537,1.0582371950149536,2.25830078125,-4.2266845703125,-10.5133056640625
16.7899999,-9.782708168029785,0.2777273952960968,1.5969325304031372,-7.1868896484375,0.213623046875,-3.8299560546875
16.8099999,-9.732429504394531,0.4213795065879822,2.1308395862579346,-17.2271728515625,8.056640625,-1.190185546875
16.8299999,-9.677363395690918,0.6200982332229614,2.4372973442077637,-22.0489501953125,17.9443359375,-2.44140625
16.8499999,-9.624691009521484,0.9768342971801758,2.5689783096313477,-20.69091796875,20.965576171875,-3.90625
16.8699999,-9.639056205749512,1.1994950771331787,2.363077163696289,-18.646240234375,25.7110595703125,-5.767822265625
16.8899999,-9.603142738342285,1.479616641998291,2.1308395862579346,-19.8211669921875,28.076171875,-6.1492919921875
16.9099999,-9.694122314453125,1.5155296325683594,1.6112977266311646,-23.49853515625,30.4718017578125,-7.8125
16.929999900000002,-9.737217903137207,1.4077905416488647,1.1204863786697388,-20.3094482421875,25.32958984375,-9.552001953125
16.9499999,-9.928754806518555,1.0630255937576294,0.44532153010368347,-1.007080078125,14.892578125,-9.002685546875
16.9699999,-10.077195167541504,0.6536170840263367,-0.22505496442317963,22.247314453125,2.3651123046875,-6.28662109375
16.9899999,-10.211270332336426,0.3687070608139038,-0.6200982332229614,34.85107421875,-7.0648193359375,-3.7078857421875
17.0099999,-10.204087257385254,0.28730419278144836,-0.6009446382522583,28.411865234375,-10.25390625,-1.4801025390625
17.0299999,-10.177751541137695,0.5219359993934631,-0.2298433631658554,11.23046875,-1.800537109375,1.220703125
17.0499999,-10.046070098876953,0.7206547260284424,0.3423708379268646,0.5035400390625,1.2969970703125,0.1373291015625
17.0699999,-9.955090522766113,0.9648633003234863,0.8475474119186401,-3.4942626953125,0.1068115234375,-4.9285888671875
17.089999900000002,-9.880870819091797,1.0127472877502441,1.2330138683319092,-3.2196044921875,1.3275146484375,-3.2196044921875
17.109999900000002,-9.768342971801758,0.9576807022094727,1.460463047027588,-6.2255859375,4.3792724609375,1.678466796875
17.1299999,-9.737217903137207,0.8427590131759644,1.4724340438842773,-6.622314453125,5.767822265625,0.5340576171875
17.1499999,-9.770736694335938,0.7158663272857666,1.3215993642807007,2.899169921875,5.4931640625,4.486083984375
17.1699999,-9.775525093078613,0.6727706789970398,1.1037269830703735,7.0343017578125,3.387451171875,2.777099609375
17.1899999,-9.919178009033203,0.7445967197418213,1.0295066833496094,2.685546875,5.8135986328125,0.1983642578125
17.2099999,-9.856928825378418,0.8427590131759644,1.070208191871643,-10.498046875,12.847900390625,3.387451171875
17.2299999,-9.876082420349121,0.8930372595787048,1.2761094570159912,-24.35302734375,20.751953125,4.791259765625
17.249999900000002,-9.806650161743164,0.9193734526634216,1.400607943534851,-25.6195068359375,22.2320556640625,6.77490234375
17.269999900000002,-9.780313491821289,0.811634361743927,1.316810965538025,-20.8740234375,21.1181640625,10.9100341796875
17.2899999,-9.849745750427246,0.7709329724311829,0.9959878921508789,-15.19775390625,21.0418701171875,5.7220458984375
17.3099999,-9.847352027893066,0.811634361743927,0.6655880808830261,-7.4920654296875,17.3492431640625,2.9296875
17.3299999,-9.943120002746582,0.9217676520347595,0.19153612852096558,-2.197265625,13.5955810546875,2.105712890625
17.3499999,-9.986215591430664,1.192312479019165,-0.13168109953403473,7.080078125,7.7667236328125,-1.3427734375
17.3699999,-9.99100399017334,1.2545616626739502,-0.3064578175544739,12.237548828125,3.3721923828125,-4.547119140625
17.3899999,-10.031704902648926,1.3766659498214722,-0.33758243918418884,6.4849853515625,3.9520263671875,-7.2021484375
17.409999900000003,-9.96945571899414,1.3024457693099976,-0.15562310814857483,-0.640869140625,5.5999755859375,-5.5389404296875
17.429999900000002,-9.99100399017334,1.0558429956436157,-0.06703764945268631,-3.2806396484375,4.7454833984375,-4.150390625
17.4499999,-9.967061996459961,0.8068459630012512,0.031124621629714966,3.96728515625,-2.0904541015625,-4.45556640625
17.4699999,-10.02691650390625,0.507570743560791,-0.06224924325942993,13.3056640625,-7.6141357421875,1.4801025390625
17.4899999,-10.041281700134277,0.42616790533065796,-0.08619125932455063,15.3961181640625,-9.0179443359375,2.227783203125
17.5099999,-10.046070098876953,0.40701428055763245,-0.08379705995321274,15.6097412109375,-10.650634765625,0.732421875
17.5299999,-10.04846477508545,0.6057330369949341,-0.038307227194309235,11.7340087890625,-8.6517333984375,1.373291015625
17.5499999,-9.988609313964844,0.8044517636299133,0.1604115068912506,7.7362060546875,-9.09423828125,1.6021728515625
17.5699999,-9.888052940368652,1.072602391242981,0.4189853072166443,3.570556640625,-7.4615478515625,2.410888671875
17.589999900000002,-9.859322547912598,1.2617442607879639,0.7422025203704834,-10.6964111328125,-0.213623046875,0.732421875
17.609999900000002,-9.823410034179688,1.3862427473068237,1.036689281463623,-22.9949951171875,6.2103271484375,-1.1138916015625
17.6299999,-9.804255485534668,1.338358759880066,1.158793568611145,-28.564453125,9.70458984375,0.7476806640625
17.6499999,-9.854534149169922,1.170764684677124,0.9576807022094727,-21.392822265625,9.27734375,0.335693359375
17.6699999,-9.904812812805176,0.9050082564353943,0.5913678407669067,0.06103515625,-0.3204345703125,-0.7781982421875
17.6899999,-9.938331604003906,0.5793967843055725,0.0933738648891449,19.378662109375,-10.0860595703125,1.983642578125
17.7099999,-10.055646896362305,0.40462008118629456,-0.28969839215278625,29.9835205078125,-15.350341796875,2.0599365234375
17.7299999,-10.098742485046387,0.3902548849582672,-0.4908113479614258,30.6396484375,-17.5018310546875,2.227783203125
17.749999900000002,-10.11789608001709,0.5219359993934631,-0.38307225704193115,23.86474609375,-16.204833984375,3.021240234375
17.769999900000002,-9.967061996459961,0.993593692779541,0.17956513166427612,16.8304443359375,-13.0462646484375,1.15966796875
17.7899999,-9.821015357971191,1.5131354331970215,0.9983820915222168,-5.0506591796875,-2.8533935546875,-0.396728515625
17.8099999,-9.569623947143555,1.9488801956176758,2.011129379272461,-39.5355224609375,17.8070068359375,-4.5318603515625
17.8299999,-9.488221168518066,2.3104045391082764,2.6599581241607666,-62.5457763671875,33.5540771484375,-8.544921875
17.8499999,-9.385271072387695,2.1739351749420166,2.8826189041137695,-69.39697265625,41.7938232421875,-8.4381103515625
17.8699999,-9.583989143371582,1.7405846118927002,2.2840683460235596,-54.412841796875,40.802001953125,-7.232666015625
17.8899999,-9.761159896850586,1.0271124839782715,1.2306196689605713,-25.4974365234375,29.632568359375,-4.08935546875
17.909999900000003,-10.022128105163574,0.2944868206977844,-0.004788403399288654,-0.9613037109375,19.6533203125,-3.082275390625
17.929999900000002,-10.211270332336426,-0.19871874153614044,-1.0582371950149536,19.287109375,7.3089599609375,-2.6702880859375
17.9499999,-10.24239444732666,-0.31124621629714966,-1.6519991159439087,28.74755859375,-1.800537109375,-0.2899169921875
17.9699999,-10.278307914733887,-0.16519992053508759,-1.8914192914962769,30.57861328125,-8.6822509765625,-0.030517578125
17.9899999,-10.113107681274414,0.3208230137825012,-1.4963760375976562,27.4505615234375,-15.3045654296875,0.0762939453125
18.0099999,-10.007762908935547,0.9385270476341248,-0.7469909191131592,2.0294189453125,-8.72802734375,-0.030517578125
18.0299999,-9.888052940368652,1.4987702369689941,0.09576806426048279,-30.853271484375,6.16455078125,-3.5552978515625
18.0499999,-9.775525093078613,1.764526605606079,0.8379706144332886,-49.6063232421875,15.7318115234375,-5.06591796875
18.0699999,-9.744400978088379,1.6519991159439087,1.0319008827209473,-40.22216796875,12.298583984375,-3.23486328125
18.089999900000002,-9.861717224121094,1.1994950771331787,0.6967126727104187,-15.8843994140625,-0.0457763671875,-3.9520263671875
18.109999900000002,-10.036493301391602,0.5817909836769104,0.035913024097681046,2.197265625,-3.90625,-0.67138671875
18.1299999,-10.168174743652344,0.090979665517807,-0.6009446382522583,14.9688720703125,-14.7705078125,6.28662109375
18.1499999,-10.321403503417969,-0.14365209639072418,-1.094150185585022,25.0244140625,-22.4151611328125,2.7313232421875
18.1699999,-10.304644584655762,-0.16998831927776337,-1.3239935636520386,42.1600341796875,-28.8848876953125,1.3885498046875
18.1899999,-10.165780067443848,0.15322890877723694,-1.1492167711257935,55.023193359375,-35.430908203125,3.5247802734375
18.2099999,-10.022128105163574,0.7038952708244324,-0.5674257874488831,43.88427734375,-32.4859619140625,1.0833740234375
18.2299999,-9.821015357971191,1.3407529592514038,0.2537853717803955,22.918701171875,-24.3682861328125,-0.79345703125
18.249999900000002,-9.701305389404297,1.821987509727478,1.158793568611145,4.6234130859375,-10.3302001953125,-5.340576171875
18.269999900000002,-9.63187313079834,2.0159177780151367,1.8722656965255737,-2.0904541015625,-4.364013671875,-7.32421875
18.2899999,-9.610325813293457,1.9057846069335938,2.2026655673980713,-6.2408447265625,-1.556396484375,-7.2174072265625
18.3099999,-9.682151794433594,1.5155296325683594,2.1715409755706787,-11.71875,4.302978515625,-4.3792724609375
18.3299999,-9.713275909423828,1.0773907899856567,1.9608511924743652,-14.58740234375,8.8653564453125,-1.9378662109375
18.3499999,-9.81143856048584,0.6320692300796509,1.4748282432556152,-11.23046875,8.9874267578125,-1.9683837890625
18.3699999,-9.86889934539795,0.3447650372982025,1.0606313943862915,-2.349853515625,5.9661865234375,0.5035400390625
18.3899999,-9.955090522766113,0.26575639843940735,0.7182605266571045,-3.814697265625,6.40869140625,2.716064453125
18.409999900000003,-9.959878921508789,0.3423708379268646,0.5099649429321289,-9.185791015625,6.072998046875,1.6937255859375
18.429999900000002,-9.971850395202637,0.4692635238170624,0.3423708379268646,-10.5743408203125,4.1961669921875,2.3193359375
18.4499999,-9.945513725280762,0.6033388376235962,0.29209262132644653,-3.326416015625,-0.2288818359375,2.38037109375
18.4699999,-9.952696800231934,0.7015010714530945,0.17238251864910126,4.6844482421875,-5.615234375,1.9073486328125
18.4899999,-9.959878921508789,0.6416460275650024,0.05267243832349777,-3.9520263671875,-2.99072265625,-0.79345703125
18.5099999,-9.979032516479492,0.7445967197418213,0.2346317619085312,-9.368896484375,-5.6915283203125,-0.2288818359375
18.5299999,-9.955090522766113,0.7805097699165344,0.38307225704193115,-13.275146484375,-4.1656494140625,1.251220703125
18.5499999,-9.904812812805176,0.7134721279144287,0.6320692300796509,-13.97705078125,0.091552734375,-2.3193359375
18.5699999,-9.93593692779541,0.6991068720817566,0.828393816947937,-7.32421875,0.2899169921875,0.9002685546875
18.589999900000002,-9.873687744140625,0.5841852426528931,0.9624691009521484,-3.4942626953125,-1.77001953125,1.800537109375
18.609999900000002,-9.931148529052734,0.5817909836769104,1.0438719987869263,-4.3792724609375,-2.655029296875,4.180908203125
18.6299999,-9.864110946655273,0.5913678407669067,1.1061211824417114,-11.8255615234375,4.7760009765625,3.0059814453125
18.6499999,-9.93593692779541,0.6991068720817566,0.9409212470054626,-8.3770751953125,6.744384765625,0.885009765625
18.6699999,-9.86889934539795,0.6607996821403503,0.6751648783683777,6.561279296875,-2.3956298828125,3.8909912109375
18.6899999,-9.952696800231934,0.7350199222564697,0.3519476354122162,15.68603515625,-7.171630859375,1.6021728515625
18.7099999,-9.952696800231934,0.8619126081466675,0.26336219906806946,16.78466796875,-9.46044921875,-1.0223388671875
18.7299999,-9.873687744140625,0.9959878921508789,0.40940847992897034,12.8326416015625,-7.904052734375,-2.197265625
18.749999900000002,-9.852140426635742,1.2401964664459229,0.9169792532920837,5.4473876953125,-0.9918212890625,-6.77490234375
18.769999900000002,-9.792284965515137,1.2761094570159912,1.280897855758667,-5.7525634765625,7.87353515625,-3.72314453125
18.7899999,-9.75397777557373,1.2114660739898682,1.6711528301239014,-12.39013671875,12.1917724609375,-1.3580322265625
18.8099999,-9.818621635437012,1.0678139925003052,1.656787633895874,-14.9078369140625,11.41357421875,0.8697509765625
18.8299999,-9.849745750427246,0.828393816947937,1.3263877630233765,-13.9617919921875,12.3138427734375,0.06103515625
18.8499999,-9.926360130310059,0.6536170840263367,0.7589619159698486,-0.8697509765625,3.72314453125,-1.1749267578125
18.8699999,-10.062829971313477,0.5746083855628967,0.12449848651885986,11.0626220703125,-1.983642578125,-2.5634765625
18.8899999,-10.096348762512207,0.5650315880775452,-0.35673606395721436,16.9677734375,-10.284423828125,-2.6702880859375
18.909999900000003,-10.127472877502441,0.6248866319656372,-0.3998316824436188,15.5792236328125,-17.4560546875,-3.5247802734375
18.929999900000002,-10.04846477508545,0.7493851184844971,-0.019153613597154617,8.1329345703125,-11.6424560546875,-4.5928955078125
18.9499999,-9.84256362915039,0.7781155705451965,0.6991068720817566,-5.31005859375,-0.67138671875,-3.3721923828125
18.9699999,-9.746794700622559,0.8164227604866028,1.3838485479354858,-21.2554931640625,12.237548828125,-0.396728515625
18.9899999,-9.567230224609375,0.811634361743927,2.0254945755004883,-28.3966064453125,15.1214599609375,2.9754638671875
19.0099999,-9.603142738342285,0.7038952708244324,2.099714994430542,-33.1878662109375,19.95849609375,5.4779052734375
19.0299999,-9.68933391571045,0.5530605912208557,1.886630892753601,-23.1170654296875,17.3187255859375,2.86865234375
19.0499999,-9.823410034179688,0.4836287498474121,1.235408067703247,-6.011962890625,8.11767578125,2.38037109375
19.0699999,-9.974244117736816,0.49320554733276367,0.5147533416748047,5.06591796875,1.190185546875,2.6092529296875
19.089999900000002,-10.079588890075684,0.5626373887062073,-0.15562310814857483,11.2762451171875,-9.0179443359375,-0.7476806640625
19.109999900000002,-10.079588890075684,0.6823474764823914,-0.38546648621559143,11.1083984375,-12.6190185546875,-3.7841796875
19.1299999,-10.043676376342773,0.790086567401886,-0.22505496442317963,12.6495361328125,-10.8184814453125,-5.0201416015625
19.1499999,-9.911994934082031,0.8236053586006165,0.1604115068912506,8.056640625,-4.0740966796875,-1.8463134765625
19.1699999,-9.852140426635742,0.9840168952941895,0.7445967197418213,0.8392333984375,2.3040771484375,2.74658203125
19.1899999,-9.732429504394531,1.0965443849563599,1.0678139925003052,-7.354736328125,4.302978515625,3.90625
19.2099999,-9.744400978088379,1.115697979927063,1.1779472827911377,-12.4969482421875,7.354736328125,2.288818359375
19.2299999,-9.739612579345703,1.0127472877502441,1.1994950771331787,-3.72314453125,2.99072265625,1.5716552734375
19.249999900000002,-9.828198432922363,0.9720458984375,0.9672574996948242,-3.23486328125,3.997802734375,1.77001953125
19.269999900000002,-9.883264541625977,0.9911994934082031,0.8619126081466675,-14.6026611328125,5.401611328125,3.2958984375
19.2899999,-9.909601211547852,1.091755986213684,0.8020575642585754,-30.4718017578125,7.1563720703125,-1.6021728515625
19.3099999,-9.897629737854004,1.0893617868423462,0.7493851184844971,-31.8145751953125,8.2550048828125,-5.9356689453125
19.3299999,-9.852140426635742,0.912190854549408,0.8044517636299133,-19.0277099609375,7.9345703125,-1.5869140625
19.3499999,-9.928754806518555,0.5530605912208557,0.5985504388809204,-10.1165771484375,8.392333984375,3.3416748046875
19.3699999,-10.007762908935547,0.17238251864910126,0.3758896589279175,-0.640869140625,3.7078857421875,8.7738037109375
19.3899999,-10.156203269958496,-0.014365210197865963,-0.05506663769483566,11.53564453125,-3.4637451171875,7.9498291015625
19.409999900000003,-10.309432983398438,-0.10534487664699554,-0.4836287498474121,34.66796875,-15.0909423828125,5.8441162109375
19.429999900000002,-10.280701637268066,0.1412578970193863,-0.6727706789970398,57.0831298828125,-29.3426513671875,5.2642822265625
19.4499999,-10.113107681274414,1.1803414821624756,-0.11252748221158981,38.6505126953125,-22.2015380859375,1.068115234375
19.4699999,-9.8784761428833,1.9249382019042969,0.811634361743927,7.9193115234375,-14.2364501953125,-2.13623046875
19.4899999,-9.588777542114258,2.427720546722412,1.944091796875,-29.0374755859375,4.3487548828125,-9.8876953125
19.5099999,-9.409213066101074,2.5330653190612793,2.894589900970459,-59.2498779296875,28.8848876953125,-12.8173828125
19.5299999,-9.334992408752441,2.118868589401245,3.3279404640197754,-70.068359375,43.15185546875,-10.040283203125
19.5499999,-9.461885452270508,1.278503656387329,2.889801502227783,-60.6536865234375,43.212890625,0.0762939453125
19.5699999,-9.720458984375,0.35673606395721436,1.6519991159439087,-33.3709716796875,29.4647216796875,5.7830810546875
19.589999900000002,-10.089165687561035,-0.43095630407333374,0.004788403399288654,3.9215087890625,6.8359375,5.1727294921875
19.609999900000002,-10.304644584655762,-0.7493851184844971,-1.4915876388549805,36.895751953125,-12.6953125,6.6986083984375
19.6299999,-10.491392135620117,-0.49320554733276367,-2.2912509441375732,51.2542724609375,-24.0325927734375,7.9345703125
19.6499999,-10.426748275756836,0.08619125932455063,-2.2864625453948975,36.6058349609375,-30.5023193359375,2.9754638671875
19.6699999,-10.158597946166992,1.072602391242981,-1.290474772453308,10.528564453125,-24.627685546875,-4.7454833984375
19.6899999,-9.90241813659668,1.7190368175506592,0.1412578970193863,-11.77978515625,-12.8326416015625,-7.4920654296875
19.7099999,-9.569623947143555,2.030282974243164,1.7501614093780518,-39.9169921875,8.941650390625,-8.11767578125
19.7299999,-9.457097053527832,1.8195933103561401,2.760514497756958,-60.638427734375,28.900146484375,-4.33349609375
19.749999900000002,-9.418789863586426,1.1875240802764893,3.0166940689086914,-56.1676025390625,32.562255859375,5.6610107421875
19.769999900000002,-9.634267807006836,0.5506663918495178,2.188300371170044,-30.303955078125,22.1710205078125,9.4451904296875
19.7899999,-9.852140426635742,-0.0933738648891449,0.9241618514060974,4.69970703125,2.99072265625,9.94873046875
19.8099999,-10.129867553710938,-0.2298433631658554,-0.4189853072166443,27.7099609375,-8.453369140625,7.9803466796875
19.8299999,-10.26394271850586,-0.023942016065120697,-1.194706678390503,32.8826904296875,-14.862060546875,6.34765625
19.8499999,-10.225635528564453,0.608127236366272,-1.2880805730819702,21.8505859375,-17.3187255859375,1.6937255859375
19.8699999,-10.074800491333008,1.2641384601593018,-0.6177040338516235,5.79833984375,-13.3819580078125,-8.4686279296875
19.8899999,-9.81143856048584,1.7908629179000854,0.38067805767059326,-8.1329345703125,-3.631591796875,-12.02392578125
19.909999900000003,-9.607931137084961,1.8483237028121948,1.5107412338256836,-28.1524658203125,12.115478515625,-8.5906982421875
19.929999900000002,-9.53849983215332,1.6974890232086182,2.185906171798706,-48.431396484375,25.87890625,0.0457763671875
19.9499999,-9.5408935546875,1.213860273361206,2.1811177730560303,-48.4161376953125,26.06201171875,3.875732421875
19.9699999,-9.684545516967773,0.768538773059845,1.6519991159439087,-33.63037109375,18.707275390625,0.18310546875
19.9899999,-9.832986831665039,0.3208230137825012,0.689530074596405,-15.655517578125,11.9171142578125,3.0059814453125
20.0099999,-10.072406768798828,0.06703764945268631,-0.3878606855869293,0.335693359375,5.9967041015625,2.7008056640625
20.0299999,-10.280701637268066,0.15801730751991272,-1.1252747774124146,18.61572265625,-14.22119140625,8.2550048828125
20.0499999,-10.342951774597168,0.3974374830722809,-1.4748282432556152,19.8822021484375,-28.7933349609375,0.5645751953125
