# Time (seconds),Accel_X,Accel_Y,Accel_Z,Gyro_X,Gyro_Y,Gyro_Z
0.0099999,-9.160215377807617,-3.339911460876465,1.039083480834961,-9.6435546875,2.5177001953125,6.5460205078125
0.029999900000000003,-9.169792175292969,-3.3494882583618164,0.9720458984375,-6.7901611328125,2.288818359375,7.38525390625
0.0499999,-9.181763648986816,-3.383007049560547,0.8762778043746948,-3.3721923828125,0.18310546875,6.8511962890625
0.0699999,-9.198522567749023,-3.445256233215332,0.7805097699165344,-2.227783203125,0.8392333984375,6.561279296875
0.08999990000000001,-9.224859237670898,-3.5266590118408203,0.7158663272857666,-0.5950927734375,4.5623779296875,6.1492919921875
0.10999990000000001,-9.296685218811035,-3.622427225112915,0.6943184733390808,0.732421875,9.490966796875,3.9215087890625
0.1299999,-9.421183586120605,-3.7181951999664307,0.6991068720817566,1.1138916015625,11.505126953125,0.030517578125
0.14999990000000002,-9.581595420837402,-3.797203779220581,0.706289529800415,2.4871826171875,8.697509765625,-2.5177001953125
0.1699999,-9.734824180603027,-3.8355112075805664,0.7086837291717529,3.6773681640625,4.7760009765625,-3.2196044921875
0.1899999,-9.801861763000488,-3.8331170082092285,0.7086837291717529,3.631591796875,2.8839111328125,-4.913330078125
0.20999990000000002,-9.770736694335938,-3.804386615753174,0.7230489253997803,2.4566650390625,1.068115234375,-6.591796875
0.2299999,-9.66539192199707,-3.7469255924224854,0.7637503147125244,1.1138916015625,-1.15966796875,-5.5999755859375
0.2499999,-9.514557838439941,-3.6846764087677,0.8307880163192749,-0.4119873046875,-0.091552734375,-4.4097900390625
0.2699999,-9.35893440246582,-3.6152446269989014,0.9361328482627869,-2.5177001953125,2.0599365234375,-3.9520263671875
0.28999990000000003,-9.248801231384277,-3.5458126068115234,1.0462661981582642,-5.2490234375,2.8533935546875,-2.5787353515625
0.3099999,-9.208099365234375,-3.4763808250427246,1.137245774269104,-7.8125,1.5869140625,-0.732421875
0.3299999,-9.227252960205078,-3.423708438873291,1.1779472827911377,-10.2691650390625,1.251220703125,-0.2288818359375
0.34999990000000003,-9.272743225097656,-3.40216064453125,1.1444283723831177,-12.725830078125,4.180908203125,-0.6256103515625
0.3699999,-9.306262016296387,-3.3901896476745605,1.0606313943862915,-13.916015625,7.1563720703125,0.0152587890625
0.3899999,-9.308655738830566,-3.397372245788574,0.912190854549408,-13.0615234375,10.345458984375,0.2899169921875
0.40999990000000003,-9.29189682006836,-3.404554843902588,0.7134721279144287,-8.9569091796875,9.82666015625,0.0762939453125
0.4299999,-9.287108421325684,-3.4141316413879395,0.4908113479614258,-3.4942626953125,5.67626953125,1.2359619140625
0.4499999,-9.313444137573242,-3.406949043273926,0.28730419278144836,1.068115234375,4.150390625,2.5482177734375
0.4699999,-9.337387084960938,-3.378218650817871,0.16519992053508759,5.06591796875,7.75146484375,1.2359619140625
0.4899999,-9.361329078674316,-3.3231520652770996,0.15083470940589905,8.4228515625,12.5274658203125,-1.251220703125
0.5099999,-9.368511199951172,-3.246537446975708,0.24181437492370605,11.1236572265625,12.3748779296875,-2.3193359375
0.5299999,-9.370905876159668,-3.1651346683502197,0.4213795065879822,12.8936767578125,6.4849853515625,-1.2359619140625
0.5499999,-9.3828763961792,-3.0789434909820557,0.6344634294509888,12.0849609375,1.9378662109375,-0.579833984375
0.5699999,-9.3828763961792,-3.004723072052002,0.8523358106613159,9.70458984375,-0.2899169921875,-0.9918212890625
0.5899998999999999,-9.404424667358398,-2.9472622871398926,1.036689281463623,6.9427490234375,-2.0294189453125,-0.7171630859375
0.6099998999999999,-9.454702377319336,-2.913743495941162,1.1516109704971313,3.4637451171875,-1.8157958984375,0.54931640625
0.6299999,-9.545681953430176,-2.920926094055176,1.1827356815338135,-0.9002685546875,0.54931640625,1.983642578125
0.6499999,-9.68694019317627,-2.9903578758239746,1.1109095811843872,-3.326416015625,2.4566650390625,2.4871826171875
0.6699999,-9.832986831665039,-3.1004912853240967,0.9720458984375,-0.8697509765625,0.3814697265625,2.1820068359375
0.6899999,-9.950302124023438,-3.2321722507476807,0.7972691655158997,2.8839111328125,-2.838134765625,0.1983642578125
0.7099999,-9.988609313964844,-3.3470940589904785,0.629675030708313,5.462646484375,-3.4637451171875,-4.7149658203125
0.7299998999999999,-9.940725326538086,-3.428496837615967,0.5027823448181152,8.270263671875,-3.0975341796875,-10.25390625
0.7499998999999999,-9.792284965515137,-3.464409828186035,0.4429273009300232,11.505126953125,-5.1116943359375,-12.3138427734375
0.7699999,-9.560047149658203,-3.466804027557373,0.44532153010368347,13.2293701171875,-5.92041015625,-10.6201171875
0.7899999,-9.301473617553711,-3.426102638244629,0.524330198764801,11.1083984375,-3.570556640625,-6.9427490234375
0.8099999,-9.066842079162598,-3.3423056602478027,0.6512228846549988,7.62939453125,-0.701904296875,-3.2196044921875
0.8299999,-8.884882926940918,-3.227383852005005,0.811634361743927,3.1280517578125,0.9002685546875,-0.0457763671875
0.8499998999999999,-8.777143478393555,-3.1244332790374756,0.950498104095459,-1.2054443359375,1.617431640625,2.716064453125
0.8699998999999999,-8.702922821044922,-3.0406360626220703,1.0582371950149536,-2.899169921875,-0.8087158203125,5.584716796875
0.8899999,-8.667010307312012,-2.983175277709961,1.1228805780410767,-2.593994140625,-3.8299560546875,8.8958740234375
0.9099999,-8.69095230102539,-2.9544448852539062,1.139639973640442,-1.6021728515625,-5.706787109375,13.214111328125
0.9299999,-8.774748802185059,-2.920926094055176,1.137245774269104,0.6256103515625,-10.284423828125,18.1732177734375
0.9499999,-8.935160636901855,-2.8874073028564453,1.1300631761550903,1.2969970703125,-13.3209228515625,21.9573974609375
0.9699998999999999,-9.62947940826416,-2.846705913543701,1.1827356815338135,0.4119873046875,-14.16015625,22.2320556640625
0.9899998999999999,-10.129867553710938,-2.875436305999756,1.2090718746185303,0.335693359375,-21.0723876953125,14.2974853515625
1.0099999,-10.76193618774414,-2.806004285812378,1.2665326595306396,-2.3956298828125,-18.8446044921875,18.707275390625
1.0299999,-10.826580047607422,-2.715024709701538,1.3000515699386597,-4.5166015625,-17.333984375,22.552490234375
1.0499999,-10.520122528076172,-2.5282769203186035,1.403002142906189,-6.6680908203125,-13.580322265625,17.5323486328125
1.0699999,-9.981427192687988,-2.3295583724975586,1.601720929145813,-9.765625,-11.41357421875,12.8173828125
1.0899999,-9.528923034667969,-2.209848165512085,1.8842366933822632,-15.8843994140625,-8.636474609375,11.4898681640625
1.1099999,-9.258378028869629,-2.2194249629974365,2.185906171798706,-23.193359375,-3.9215087890625,11.322021484375
1.1299999,-9.131484985351562,-2.3104045391082764,2.4205379486083984,-26.8402099609375,1.52587890625,10.9405517578125
1.1499999,-9.105149269104004,-2.425326347351074,2.535459518432617,-26.8096923828125,6.7138671875,9.82666015625
1.1699998999999999,-9.14345645904541,-2.492363929748535,2.5737667083740234,-25.69580078125,11.474609375,9.857177734375
1.1899998999999999,-9.157821655273438,-2.5306711196899414,2.5450363159179688,-28.4881591796875,17.852783203125,11.383056640625
1.2099999,-9.229647636413574,-2.4875755310058594,2.456450939178467,-34.2864990234375,22.430419921875,10.7574462890625
1.2299999,-9.29189682006836,-2.4851813316345215,2.27209734916687,-38.63525390625,26.3214111328125,9.674072265625
1.2499999,-9.399636268615723,-2.4588451385498047,1.9823989868164062,-41.5802001953125,30.45654296875,11.5814208984375
1.2699999,-9.533711433410645,-2.4803929328918457,1.5610195398330688,-43.9605712890625,30.548095703125,13.0615234375
1.2899999,-9.646238327026367,-2.5234885215759277,1.01753568649292,-43.5333251953125,29.1900634765625,13.458251953125
1.3099999,-9.737217903137207,-2.5689783096313477,0.4141969084739685,-38.9556884765625,26.214599609375,13.458251953125
1.3299999,-9.792284965515137,-2.612074136734009,-0.17956513166427612,-31.9061279296875,21.1639404296875,12.87841796875
1.3499999,-9.840168952941895,-2.6408045291900635,-0.7326257228851318,-25.0244140625,15.594482421875,12.5274658203125
1.3699999,-9.897629737854004,-2.6575639247894287,-1.1994950771331787,-14.0380859375,10.040283203125,11.90185546875
1.3899999,-9.95748519897461,-2.6599581241607666,-1.522712230682373,3.631591796875,3.2501220703125,10.3912353515625
1.4099999,-10.005369186401367,-2.6384103298187256,-1.6663644313812256,18.4326171875,-3.753662109375,9.1705322265625
1.4299998999999999,-10.002974510192871,-2.5689783096313477,-1.6184803247451782,23.92578125,-8.7432861328125,9.4146728515625
1.4499999,-9.964667320251465,-2.4588451385498047,-1.3503297567367554,25.3143310546875,-12.2833251953125,8.9874267578125
1.4699999,-9.9000244140625,-2.3271639347076416,-0.9217676520347595,25.0701904296875,-15.2587890625,7.99560546875
1.4899999,-9.835380554199219,-2.207453966140747,-0.4357447028160095,20.599365234375,-16.90673828125,8.1787109375
1.5099999,-9.768342971801758,-2.1356279850006104,0.05267243832349777,14.312744140625,-17.5628662109375,9.8114013671875
1.5299999,-9.691728591918945,-2.073378562927246,0.5554547905921936,9.9639892578125,-16.5557861328125,11.23046875
1.5499999,-9.605537414550781,-2.0207061767578125,0.9576807022094727,5.706787109375,-13.336181640625,11.383056640625
1.5699999,-9.567230224609375,-1.9632453918457031,1.2210428714752197,2.8228759765625,-9.9639892578125,10.406494140625
1.5899999,-9.624691009521484,-1.8842366933822632,1.3407529592514038,1.9989013671875,-8.4991455078125,9.674072265625
1.6099999,-9.739612579345703,-1.7812861204147339,1.3000515699386597,0.30517578125,-7.9345703125,9.0789794921875
1.6299999,-9.837775230407715,-1.7046716213226318,1.1180921792984009,-0.8087158203125,-7.38525390625,7.080078125
1.6499999,-9.916783332824707,-1.6208745241165161,0.9097966551780701,2.7313232421875,-7.843017578125,4.638671875
1.6699999,-9.931148529052734,-1.5897499322891235,0.790086567401886,6.561279296875,-8.575439453125,3.2806396484375
1.6899998999999999,-9.911994934082031,-1.5610195398330688,0.8403648138046265,2.655029296875,-6.6680908203125,3.143310546875
1.7099999,-9.864110946655273,-1.522712230682373,1.0989385843276978,-6.103515625,-2.3345947265625,2.25830078125
1.7299999,-9.744400978088379,-1.5083470344543457,1.4269442558288574,-14.5263671875,1.7852783203125,1.434326171875
1.7499999,-9.624691009521484,-1.534683346748352,1.7046716213226318,-19.3328857421875,5.92041015625,1.3885498046875
1.7699999,-9.557653427124023,-1.6328455209732056,1.7621324062347412,-19.0887451171875,9.2010498046875,1.89208984375
1.7899999,-9.567230224609375,-1.7860745191574097,1.577778935432434,-14.8468017578125,11.474609375,1.617431640625
1.8099999,-9.670180320739746,-1.9393033981323242,1.194706678390503,-5.523681640625,11.383056640625,1.7852783203125
1.8299999,-9.780313491821289,-2.0638017654418945,0.7182605266571045,2.2430419921875,8.6822509765625,1.9989013671875
1.8499999,-9.876082420349121,-2.123656988143921,0.23942017555236816,4.669189453125,4.7454833984375,2.7923583984375
1.8699999,-9.921571731567383,-2.1547815799713135,-0.16519992053508759,6.1187744140625,0.2288818359375,3.3111572265625
1.8899999,-9.99100399017334,-2.1595699787139893,-0.40222588181495667,11.71875,-4.21142578125,3.2501220703125
1.9099999,-9.986215591430664,-2.1308395862579346,-0.45250412821769714,16.3421630859375,-7.8887939453125,4.0130615234375
1.9299998999999999,-9.981427192687988,-2.030282974243164,-0.24420857429504395,14.22119140625,-9.3536376953125,5.5389404296875
1.9499999,-9.916783332824707,-1.8746598958969116,0.10295066982507706,9.58251953125,-8.6212158203125,4.791259765625
1.9699999,-9.837775230407715,-1.6974890232086182,0.5123591423034668,7.965087890625,-7.965087890625,2.7618408203125
1.9899999,-9.81143856048584,-1.5418659448623657,0.9002198576927185,6.988525390625,-8.697509765625,1.8463134765625
2.0099999,-9.770736694335938,-1.479616641998291,1.1252747774124146,2.2735595703125,-8.3770751953125,2.716064453125
2.0299999,-9.787496566772461,-1.460463047027588,1.2545616626739502,-1.2054443359375,-5.5694580078125,2.13623046875
2.0499999,-9.75397777557373,-1.5059528350830078,1.290474772453308,0.4730224609375,-4.6234130859375,0.8087158203125
2.0699999,-9.72285270690918,-1.5466543436050415,1.314416766166687,1.0833740234375,-3.662109375,0.5035400390625
2.0899999,-9.710882186889648,-1.5969325304031372,1.3048399686813354,-1.8463134765625,-0.030517578125,1.556396484375
2.1099999,-9.734824180603027,-1.647210717201233,1.3646949529647827,-5.615234375,2.0904541015625,1.9683837890625
2.1299999,-9.758766174316406,-1.656787633895874,1.3623007535934448,-7.659912109375,3.5247802734375,1.7242431640625
2.1499999,-9.794678688049316,-1.599326729774475,1.3982137441635132,-8.4381103515625,4.5166015625,1.0223388671875
2.1699999,-9.832986831665039,-1.6136919260025024,1.2521674633026123,-7.0953369140625,5.340576171875,0.9613037109375
2.1899999,-9.830592155456543,-1.6041151285171509,1.0678139925003052,-4.150390625,5.18798828125,0.274658203125
2.2099999,-9.852140426635742,-1.6304513216018677,0.7469909191131592,2.1514892578125,2.8533935546875,-1.007080078125
2.2299999,-9.8784761428833,-1.7190368175506592,0.4596867263317108,9.0179443359375,-1.8768310546875,-1.4190673828125
2.2499999,-9.890447616577148,-1.7621324062347412,0.31364041566848755,9.063720703125,-4.69970703125,-0.2593994140625
2.2699999,-9.90241813659668,-1.7118542194366455,0.33039984107017517,6.1798095703125,-4.08935546875,-0.8697509765625
2.2899999,-9.888052940368652,-1.6639702320098877,0.4836287498474121,5.9814453125,-3.0975341796875,-3.509521484375
2.3099999,-9.883264541625977,-1.5203180313110352,0.7182605266571045,5.340576171875,-2.4871826171875,-4.791259765625
2.3299999,-9.86889934539795,-1.3838485479354858,0.9720458984375,0.457763671875,-2.74658203125,-4.9285888671875
2.3499999,-9.837775230407715,-1.338358759880066,1.1276689767837524,-4.5166015625,-1.434326171875,-5.6304931640625
2.3699999,-9.818621635437012,-1.3910311460494995,1.1659762859344482,-1.678466796875,-1.708984375,-7.8277587890625
2.3899999,-9.825803756713867,-1.6112977266311646,1.0749965906143188,4.94384765625,-3.7689208984375,-8.544921875
2.4099999,-9.840168952941895,-1.8746598958969116,0.9361328482627869,6.7901611328125,-5.3558349609375,-5.18798828125
2.4299999,-9.80904483795166,-2.094926595687866,0.8259995579719543,6.28662109375,-4.82177734375,-1.8463134765625
2.4499999,-9.804255485534668,-2.1715409755706787,0.8547300100326538,8.1024169921875,-3.35693359375,-1.6021728515625
2.4699999,-9.751583099365234,-2.056619167327881,0.9576807022094727,8.941650390625,-2.3040771484375,-2.86865234375
2.4899999,-9.746794700622559,-1.86508309841156,1.137245774269104,4.0283203125,-2.13623046875,-2.532958984375
2.5099999,-9.770736694335938,-1.659181833267212,1.2880805730819702,-0.823974609375,-2.410888671875,-2.9449462890625
2.5299999,-9.782708168029785,-1.5634137392044067,1.3862427473068237,-1.953125,-0.762939453125,-5.645751953125
2.5499999,-9.768342971801758,-1.5538369417190552,1.4317326545715332,-2.3040771484375,0.640869140625,-7.8582763671875
2.5699999,-9.742006301879883,-1.6328455209732056,1.381454348564148,-4.3487548828125,0.762939453125,-6.9732666015625
2.5899999,-9.708487510681152,-1.745373010635376,1.292868971824646,-4.4097900390625,1.708984375,-5.4473876953125
2.6099999,-9.710882186889648,-1.8602946996688843,1.1755530834197998,-0.579833984375,3.0059814453125,-4.8828125
2.6299999,-9.725247383117676,-1.98958158493042,1.036689281463623,3.1585693359375,1.4495849609375,-4.2877197265625
2.6499999,-9.732429504394531,-2.1068975925445557,0.9193734526634216,3.8909912109375,-1.8768310546875,-3.0364990234375
2.6699999,-9.744400978088379,-2.1978771686553955,0.8068459630012512,5.5999755859375,-1.4801025390625,-3.082275390625
2.6899999,-9.758766174316406,-2.229001760482788,0.7924807667732239,10.0860595703125,-0.3662109375,-4.180908203125
2.7099999,-9.732429504394531,-2.190694570541382,0.8906430602073669,9.4757080078125,-0.8697509765625,-3.4942626953125
2.7299999,-9.713275909423828,-1.98958158493042,1.1444283723831177,-0.457763671875,1.556396484375,-1.190185546875
2.7499999,-9.66539192199707,-1.7812861204147339,1.4437036514282227,-11.6119384765625,4.1656494140625,-0.6103515625
2.7699999,-9.658209800720215,-1.5634137392044067,1.6855180263519287,-16.66259765625,5.9356689453125,-4.669189453125
2.7899999,-9.658209800720215,-1.501164436340332,1.745373010635376,-16.0675048828125,6.1798095703125,-8.4991455078125
2.8099999,-9.682151794433594,-1.5825673341751099,1.5921441316604614,-13.5498046875,7.01904296875,-8.60595703125
2.8299999,-9.718064308166504,-1.8076223134994507,1.3024457693099976,-7.5836181640625,8.5906982421875,-7.4462890625
2.8499999,-9.75637149810791,-2.075772762298584,0.9433154463768005,1.495361328125,9.033203125,-6.7291259765625
2.8699999,-9.768342971801758,-2.2888567447662354,0.6272808313369751,6.011962890625,6.40869140625,-5.1727294921875
2.8899999,-9.81143856048584,-2.3965959548950195,0.3974374830722809,4.39453125,1.3427734375,-3.0670166015625
2.9099999,-9.816226959228516,-2.449268341064453,0.2801215946674347,3.11279296875,-2.7313232421875,-2.44140625
2.9299999,-9.854534149169922,-2.4636335372924805,0.26096799969673157,6.591796875,-3.082275390625,-5.0201416015625
2.9499999,-9.859322547912598,-2.403778553009033,0.3280056416988373,12.115478515625,-5.2490234375,-6.04248046875
2.9699999,-9.821015357971191,-2.4181437492370605,0.3974374830722809,10.3607177734375,-6.744384765625,-1.9378662109375
2.9899999,-9.806650161743164,-2.276885747909546,0.5626373887062073,5.706787109375,-6.256103515625,1.617431640625
3.0099999,-9.765948295593262,-2.233790159225464,0.6440402865409851,7.0953369140625,-9.9029541015625,-0.8697509765625
3.0299999,-9.725247383117676,-2.1715409755706787,0.7757213711738586,8.48388671875,-12.5885009765625,-4.45556640625
3.0499999,-9.773131370544434,-2.1308395862579346,0.9169792532920837,5.9051513671875,-11.65771484375,-3.021240234375
3.0699999,-9.691728591918945,-2.1284453868865967,1.0319008827209473,3.143310546875,-10.4827880859375,-0.8392333984375
3.0899999,-9.715670585632324,-2.0254945755004883,1.2832920551300049,1.953125,-7.7056884765625,-1.7242431640625
3.1099999,-9.68933391571045,-1.9153614044189453,1.4915876388549805,-0.0762939453125,-8.8348388671875,-4.39453125
3.1299999,-9.660603523254395,-1.9177556037902832,1.7070658206939697,-3.0517578125,-8.97216796875,-6.77490234375
3.1499999,-9.641449928283691,-1.9536685943603516,1.86508309841156,-2.7923583984375,-2.7923583984375,-7.4615478515625
3.1699999,-9.57201862335205,-2.0398597717285156,1.9728221893310547,1.007080078125,2.1514892578125,-6.34765625
3.1899999,-9.526528358459473,-2.190694570541382,1.8962076902389526,0.9613037109375,4.669189453125,-3.9825439453125
3.2099999,-9.528923034667969,-2.212242364883423,1.843535304069519,-3.6163330078125,2.6397705078125,-2.5482177734375
3.2299999,-9.583989143371582,-2.2361843585968018,1.6376339197158813,-6.8206787109375,-0.2899169921875,-3.6163330078125
3.2499999,-9.627084732055664,-2.4396915435791016,1.170764684677124,3.6773681640625,3.3111572265625,-6.9122314453125
3.2699999,-9.63187313079834,-2.513911724090576,0.9481038451194763,8.97216796875,2.74658203125,-2.25830078125
3.2899999,-9.636661529541016,-2.583343744277954,0.768538773059845,9.8724365234375,-0.9765625,0.640869140625
3.3099999,-9.677363395690918,-2.5450363159179688,0.7541735172271729,9.765625,-5.4779052734375,-1.7242431640625
3.3299999000000002,-9.660603523254395,-2.451662540435791,0.8451532125473022,9.46044921875,-4.669189453125,-5.1727294921875
3.3499999,-9.66539192199707,-2.3511061668395996,1.01753568649292,9.2010498046875,-3.35693359375,-5.43212890625
3.3699999,-9.605537414550781,-2.2888567447662354,1.2497732639312744,5.2032470703125,-2.105712890625,-2.4261474609375
3.3899999,-9.59835433959961,-2.1547815799713135,1.5179238319396973,-1.1444091796875,-1.617431640625,-1.46484375
3.4099999,-9.579200744628906,-2.1284453868865967,1.7310078144073486,-6.378173828125,-2.3040771484375,-3.1585693359375
3.4299999,-9.586383819580078,-2.1595699787139893,1.8555063009262085,-8.392333984375,-0.579833984375,-5.5389404296875
3.4499999,-9.521739959716797,-2.212242364883423,1.8411411046981812,-7.2479248046875,1.861572265625,-6.5765380859375
3.4699999,-9.533711433410645,-2.3104045391082764,1.7166426181793213,-6.8817138671875,3.6468505859375,-4.3487548828125
3.4899999,-9.545681953430176,-2.389413356781006,1.5275006294250488,-5.0506591796875,3.84521484375,-1.40380859375
3.5099999,-9.569623947143555,-2.52109432220459,1.2880805730819702,-1.2054443359375,-0.518798828125,-1.617431640625
3.5299999,-9.63187313079834,-2.5977089405059814,1.1276689767837524,2.3651123046875,-2.899169921875,-3.0364990234375
3.5499999,-9.648633003234863,-2.7006595134735107,1.0414776802062988,4.730224609375,-1.3885498046875,-4.82177734375
3.5699999,-9.59835433959961,-2.736572504043579,1.0103530883789062,5.8441162109375,0.1983642578125,-2.8533935546875
3.5899999,-9.583989143371582,-2.6623523235321045,1.1013327836990356,4.8675537109375,-0.244140625,1.1749267578125
3.6099999,-9.569623947143555,-2.6408045291900635,1.192312479019165,2.838134765625,-4.7149658203125,2.655029296875
3.6299999,-9.543288230895996,-2.63362193107605,1.2832920551300049,-0.1068115234375,-6.378173828125,1.6021728515625
3.6499999,-9.576807022094727,-2.628833532333374,1.4077905416488647,0.1983642578125,-2.74658203125,-0.67138671875
3.6699999,-9.567230224609375,-2.5977089405059814,1.4891934394836426,1.617431640625,-0.1678466796875,-0.244140625
3.6899999,-9.624691009521484,-2.5330653190612793,1.577778935432434,-1.9683837890625,1.5716552734375,3.4027099609375
3.7099999,-9.646238327026367,-2.360682964324951,1.6280571222305298,-4.2572021484375,-1.0986328125,4.6844482421875
3.7299999,-9.636661529541016,-2.2409727573394775,1.6352397203445435,-5.096435546875,-2.4261474609375,1.9378662109375
3.7499999,-9.619902610778809,-2.2146365642547607,1.577778935432434,-2.777099609375,-0.5340576171875,-1.678466796875
3.7699999,-9.533711433410645,-2.255337953567505,1.522712230682373,-0.579833984375,-0.0152587890625,-2.105712890625
3.7899999,-9.579200744628906,-2.319981336593628,1.4963760375976562,-4.852294921875,1.861572265625,1.495361328125
3.8099999,-9.564835548400879,-2.4133553504943848,1.5442601442337036,-9.0179443359375,1.6021728515625,4.058837890625
3.8299999000000002,-9.581595420837402,-2.456450939178467,1.601720929145813,-8.8043212890625,0.4119873046875,2.593994140625
3.8499999,-9.5624418258667,-2.4229321479797363,1.6615760326385498,-5.157470703125,1.6937255859375,-0.4425048828125
3.8699999,-9.536105155944824,-2.4875755310058594,1.6160861253738403,-3.9215087890625,4.119873046875,-1.3427734375
3.8899999,-9.576807022094727,-2.4205379486083984,1.5418659448623657,-6.134033203125,7.01904296875,1.3580322265625
3.9099999,-9.619902610778809,-2.3295583724975586,1.4293384552001953,-4.57763671875,6.072998046875,3.5400390625
3.9299999,-9.670180320739746,-2.319981336593628,1.3000515699386597,-0.823974609375,1.8310546875,1.2969970703125
3.9499999,-9.653421401977539,-2.3032219409942627,1.1875240802764893,0.3204345703125,0.8392333984375,-1.220703125
3.9699999,-9.667786598205566,-2.322375535964966,1.1468225717544556,-1.678466796875,2.0904541015625,-2.9449462890625
3.9899999,-9.62947940826416,-2.43011474609375,1.0893617868423462,-4.9896240234375,3.3111572265625,-1.5411376953125
4.0099999,-9.641449928283691,-2.4181437492370605,1.1516109704971313,-4.1351318359375,3.082275390625,1.6021728515625
4.029999900000001,-9.612719535827637,-2.406172752380371,1.1276689767837524,-1.983642578125,-1.2664794921875,1.861572265625
4.0499999,-9.622296333312988,-2.4396915435791016,1.161187767982483,-1.8768310546875,-2.3651123046875,0.1983642578125
4.069999900000001,-9.600749015808105,-2.425326347351074,1.2521674633026123,-3.23486328125,-1.3275146484375,-1.8463134765625
4.0899999000000005,-9.593565940856934,-2.4612393379211426,1.3407529592514038,-6.0577392578125,1.9073486328125,-0.42724609375
4.1099999,-9.615114212036133,-2.542642116546631,1.414973258972168,-5.645751953125,4.974365234375,3.021240234375
4.1299999000000005,-9.593565940856934,-2.4851813316345215,1.4508862495422363,-1.0986328125,0.640869140625,4.1961669921875
4.1499999,-9.615114212036133,-2.470816135406494,1.41257905960083,0.8697509765625,-1.2054443359375,2.5482177734375
4.1699999000000005,-9.607931137084961,-2.3918075561523438,1.3718775510787964,0.18310546875,0.274658203125,-0.4119873046875
4.1899999,-9.612719535827637,-2.27209734916687,1.3742717504501343,-4.3487548828125,2.7313232421875,-1.64794921875
4.209999900000001,-9.62947940826416,-2.3104045391082764,1.3287819623947144,-9.3536376953125,4.150390625,1.5716552734375
4.2299999,-9.612719535827637,-2.3080103397369385,1.3431471586227417,-8.6822509765625,0.30517578125,4.5928955078125
4.249999900000001,-9.619902610778809,-2.410961151123047,1.2330138683319092,-3.6468505859375,-1.6021728515625,3.387451171875
4.2699999,-9.610325813293457,-2.5115175247192383,1.1683704853057861,2.3956298828125,-0.823974609375,0.335693359375
4.289999900000001,-9.615114212036133,-2.47560453414917,1.1563993692398071,3.1890869140625,0,-0.9613037109375
4.3099999,-9.660603523254395,-2.4229321479797363,1.1324573755264282,-3.082275390625,1.953125,1.1749267578125
4.329999900000001,-9.68694019317627,-2.3104045391082764,1.1827356815338135,-3.0364990234375,2.01416015625,2.38037109375
4.3499999,-9.732429504394531,-2.1739351749420166,1.2258312702178955,1.7852783203125,-2.8076171875,0.7476806640625
4.369999900000001,-9.730035781860352,-2.188300371170044,1.2401964664459229,1.03759765625,-3.5858154296875,-0.9918212890625
4.3899999,-9.710882186889648,-2.164358377456665,1.3048399686813354,-2.685546875,-1.7547607421875,-3.6773681640625
4.409999900000001,-9.62947940826416,-2.2697031497955322,1.3215993642807007,-4.2266845703125,1.46484375,-3.5858154296875
4.4299999,-9.617507934570312,-2.3487119674682617,1.3431471586227417,-2.5177001953125,3.0364990234375,-1.0528564453125
4.449999900000001,-9.57201862335205,-2.3702597618103027,1.3670891523361206,1.5716552734375,-1.7547607421875,0.5035400390625
4.4699999,-9.581595420837402,-2.4588451385498047,1.3407529592514038,3.3111572265625,-2.655029296875,0.701904296875
4.489999900000001,-9.62947940826416,-2.473210334777832,1.37906014919281,2.8076171875,-0.2288818359375,-2.13623046875
4.5099999,-9.591172218322754,-2.449268341064453,1.3982137441635132,-0.2899169921875,2.197265625,-3.0059814453125
4.529999900000001,-9.59596061706543,-2.477998733520508,1.3407529592514038,-2.8076171875,3.997802734375,0.396728515625
4.5499999,-9.610325813293457,-2.367865562438965,1.3335703611373901,0.1373291015625,0.1068115234375,3.0364990234375
4.569999900000001,-9.636661529541016,-2.3750481605529785,1.3096283674240112,0.396728515625,-2.6092529296875,1.129150390625
4.5899999000000005,-9.684545516967773,-2.341529369354248,1.3192051649093628,-3.5247802734375,-1.03759765625,-1.2664794921875
4.609999900000001,-9.636661529541016,-2.346317768096924,1.3694833517074585,-7.75146484375,0.1373291015625,-1.953125
4.6299999000000005,-9.605537414550781,-2.4396915435791016,1.357512354850769,-10.55908203125,1.220703125,1.5106201171875
4.6499999,-9.62947940826416,-2.492363929748535,1.3335703611373901,-6.927490234375,0.732421875,4.974365234375
4.6699999000000005,-9.545681953430176,-2.561795711517334,1.2713210582733154,-0.6256103515625,-4.0435791015625,5.0201416015625
4.6899999,-9.636661529541016,-2.580949544906616,1.2042834758758545,2.3956298828125,-3.6468505859375,4.180908203125
4.709999900000001,-9.634267807006836,-2.456450939178467,1.2737152576446533,1.678466796875,-2.9449462890625,1.953125
4.7299999,-9.581595420837402,-2.31758713722229,1.3958195447921753,-6.9122314453125,-0.823974609375,1.2359619140625
4.749999900000001,-9.658209800720215,-2.1164743900299072,1.4676456451416016,-16.5252685546875,4.5166015625,0.5035400390625
4.7699999,-9.646238327026367,-2.1116859912872314,1.4844050407409668,-8.7432861328125,0.3662109375,1.007080078125
4.789999900000001,-9.694122314453125,-2.121262788772583,1.4053963422775269,1.6937255859375,-3.753662109375,0.48828125
4.8099999,-9.710882186889648,-2.2577321529388428,1.3287819623947144,4.7607421875,-1.1138916015625,-0.885009765625
4.829999900000001,-9.639056205749512,-2.343923568725586,1.3120225667953491,1.52587890625,2.3040771484375,-2.7618408203125
4.8499999,-9.593565940856934,-2.387019157409668,1.3503297567367554,-1.220703125,4.7607421875,-0.2593994140625
4.869999900000001,-9.658209800720215,-2.4684219360351562,1.3239935636520386,-0.7171630859375,1.89208984375,2.349853515625
4.8899999,-9.600749015808105,-2.389413356781006,1.2665326595306396,0.1220703125,-3.90625,1.495361328125
4.909999900000001,-9.701305389404297,-2.346317768096924,1.2306196689605713,-0.152587890625,-2.227783203125,-0.9765625
4.9299999,-9.655815124511719,-2.2361843585968018,1.2234370708465576,-2.2735595703125,-1.15966796875,-5.1116943359375
4.949999900000001,-9.639056205749512,-2.2146365642547607,1.2330138683319092,-5.279541015625,-2.0294189453125,-2.25830078125
4.9699999,-9.641449928283691,-2.27209734916687,1.2497732639312744,-5.3863525390625,-1.7547607421875,1.9683837890625
4.989999900000001,-9.607931137084961,-2.432508945465088,1.2689268589019775,-1.129150390625,-4.669189453125,2.471923828125
5.0099999,-9.648633003234863,-2.583343744277954,1.3072341680526733,1.7852783203125,-4.5013427734375,3.1890869140625
5.029999900000001,-9.600749015808105,-2.58813214302063,1.4939818382263184,1.2054443359375,-1.861572265625,3.0670166015625
5.0499999,-9.548076629638672,-2.513911724090576,1.699883222579956,-7.4005126953125,0.885009765625,3.8909912109375
5.069999900000001,-9.555258750915527,-2.319981336593628,1.8746598958969116,-20.172119140625,6.2255859375,6.04248046875
5.0899999000000005,-9.536105155944824,-2.1739351749420166,1.9704279899597168,-20.0347900390625,4.5013427734375,5.9967041015625
5.109999900000001,-9.548076629638672,-2.118868589401245,1.742978811264038,-12.20703125,0.5035400390625,3.2196044921875
5.1299999000000005,-9.612719535827637,-2.0446481704711914,1.5729905366897583,-6.5460205078125,2.5787353515625,2.0599365234375
5.1499999,-9.646238327026367,-2.1811177730560303,1.139639973640442,-6.9427490234375,2.9754638671875,-2.7008056640625
5.1699999000000005,-9.773131370544434,-2.1715409755706787,0.8259995579719543,2.9754638671875,1.6021728515625,-2.8839111328125
5.1899999,-9.828198432922363,-2.2864625453948975,0.5650315880775452,21.6827392578125,-4.4708251953125,-1.15966796875
5.209999900000001,-9.856928825378418,-2.2888567447662354,0.3998316824436188,31.5093994140625,-11.077880859375,-3.936767578125
5.2299999,-9.84256362915039,-2.3295583724975586,0.6584054827690125,28.2440185546875,-9.368896484375,-4.5928955078125
5.249999900000001,-9.720458984375,-2.2864625453948975,1.1085153818130493,15.228271484375,-4.45556640625,-5.4473876953125
5.2699999,-9.622296333312988,-2.140416383743286,1.889025092124939,-5.4473876953125,-1.6021728515625,-0.7781982421875
5.289999900000001,-9.476250648498535,-2.1308395862579346,2.4013843536376953,-29.205322265625,3.936767578125,2.2735595703125
5.3099999,-9.397241592407227,-2.209848165512085,2.669534921646118,-34.72900390625,5.0048828125,1.5716552734375
5.329999900000001,-9.459490776062012,-2.3965959548950195,2.542642116546631,-27.3590087890625,4.608154296875,3.2806396484375
5.3499999,-9.41639518737793,-2.669534921646118,2.0422539710998535,-17.39501953125,6.7291259765625,5.2490234375
5.369999900000001,-9.430760383605957,-2.82515811920166,1.403002142906189,-5.18798828125,5.218505859375,6.34765625
5.3899999,-9.59596061706543,-2.782062292098999,0.8547300100326538,8.5906982421875,2.6397705078125,9.94873046875
5.409999900000001,-9.677363395690918,-2.650381326675415,0.43095630407333374,15.07568359375,-5.8135986328125,8.2855224609375
5.4299999,-9.804255485534668,-2.3104045391082764,0.3256114423274994,11.53564453125,-8.85009765625,3.5552978515625
5.449999900000001,-9.871294021606445,-1.9153614044189453,0.6536170840263367,6.866455078125,-5.584716796875,1.5106201171875
5.4699999,-9.720458984375,-1.6304513216018677,1.1444283723831177,-5.7525634765625,-3.4942626953125,-3.143310546875
5.489999900000001,-9.703699111938477,-1.4652514457702637,1.7070658206939697,-24.688720703125,0.67138671875,-2.38037109375
5.5099999,-9.622296333312988,-1.6496049165725708,2.0159177780151367,-25.81787109375,0.1373291015625,-2.1514892578125
5.529999900000001,-9.548076629638672,-2.013523578643799,1.9919757843017578,-11.505126953125,-0.6256103515625,-1.7852783203125
5.5499999,-9.593565940856934,-2.3989901542663574,1.7884687185287476,1.9073486328125,1.2359619140625,1.46484375
5.569999900000001,-9.543288230895996,-2.7006595134735107,1.50355863571167,6.011962890625,3.1890869140625,0.396728515625
5.5899999000000005,-9.59835433959961,-2.58813214302063,1.41257905960083,5.4931640625,5.37109375,0.9765625
5.609999900000001,-9.615114212036133,-2.3104045391082764,1.4532804489135742,4.302978515625,5.6304931640625,1.678466796875
5.6299999000000005,-9.651026725769043,-2.011129379272461,1.5179238319396973,-0.244140625,3.0059814453125,-3.082275390625
5.6499999,-9.715670585632324,-1.7070658206939697,1.6400281190872192,-9.6435546875,3.1280517578125,-4.547119140625
5.6699999000000005,-9.694122314453125,-1.7812861204147339,1.5705963373184204,-20.0653076171875,5.828857421875,-7.0648193359375
5.6899999,-9.653421401977539,-1.9105730056762695,1.3646949529647827,-19.71435546875,5.7220458984375,-6.6375732421875
5.709999900000001,-9.768342971801758,-2.3726539611816406,1.01753568649292,-6.256103515625,1.64794921875,1.373291015625
5.7299999,-9.607931137084961,-2.693476915359497,0.7422025203704834,4.486083984375,-5.55419921875,1.5869140625
5.749999900000001,-9.734824180603027,-2.9520506858825684,0.5889736413955688,6.5765380859375,-5.3253173828125,3.9825439453125
5.7699999,-9.68933391571045,-3.0382418632507324,0.6967126727104187,5.6915283203125,-2.2430419921875,4.82177734375
5.789999900000001,-9.59596061706543,-2.741360902786255,1.0247182846069336,4.0435791015625,-1.861572265625,5.0201416015625
5.8099999,-9.605537414550781,-2.4133553504943848,1.3670891523361206,-3.5858154296875,-0.6103515625,5.889892578125
5.829999900000001,-9.564835548400879,-2.1308395862579346,1.5538369417190552,-9.063720703125,-2.0599365234375,1.708984375
5.8499999,-9.583989143371582,-1.8938134908676147,1.7070658206939697,-9.8419189453125,-1.77001953125,0.396728515625
5.869999900000001,-9.742006301879883,-1.9560627937316895,1.5322890281677246,-9.94873046875,-1.0986328125,1.52587890625
5.8899999,-9.627084732055664,-2.075772762298584,1.434126853942871,-9.9029541015625,-1.3885498046875,0.213623046875
5.909999900000001,-9.742006301879883,-2.2218191623687744,1.3215993642807007,-4.547119140625,-0.5950927734375,2.593994140625
5.9299999,-9.737217903137207,-2.3918075561523438,1.1994950771331787,4.302978515625,-2.166748046875,6.3934326171875
5.949999900000001,-9.696516990661621,-2.3535003662109375,1.2473790645599365,9.490966796875,-4.33349609375,5.0048828125
5.9699999,-9.713275909423828,-2.1571757793426514,1.3024457693099976,7.843017578125,-3.173828125,1.678466796875
5.989999900000001,-9.57441234588623,-1.944091796875,1.4700398445129395,-2.685546875,1.708984375,-3.875732421875
6.0099999,-9.490615844726562,-1.647210717201233,1.7525556087493896,-14.190673828125,5.7525634765625,-5.1727294921875
6.029999900000001,-9.552865028381348,-1.625662922859192,1.8531121015548706,-14.678955078125,5.6610107421875,-2.0294189453125
6.0499999,-9.564835548400879,-1.8555063009262085,1.8195933103561401,-8.23974609375,0.1983642578125,-4.302978515625
6.069999900000001,-9.576807022094727,-1.9800047874450684,1.7166426181793213,-3.72314453125,1.6632080078125,-2.6092529296875
6.0899999000000005,-9.639056205749512,-2.2840683460235596,1.3934253454208374,0.30517578125,6.256103515625,-2.899169921875
6.109999900000001,-9.531316757202148,-2.389413356781006,1.1779472827911377,7.8125,4.5013427734375,-5.4931640625
6.1299999000000005,-9.617507934570312,-2.473210334777832,0.9959878921508789,10.0250244140625,1.4190673828125,-2.4261474609375
6.149999900000001,-9.658209800720215,-2.5785553455352783,0.8427590131759644,3.387451171875,-2.9754638671875,-1.46484375
6.1699999000000005,-9.701305389404297,-2.6360161304473877,0.9313444495201111,-3.8299560546875,-3.0517578125,2.1209716796875
6.1899999,-9.746794700622559,-2.6455929279327393,1.0271124839782715,-7.568359375,-1.7547607421875,2.227783203125
6.209999900000001,-9.627084732055664,-2.6839001178741455,1.1827356815338135,-4.33349609375,-2.5482177734375,2.288818359375
6.2299999,-9.682151794433594,-2.5761611461639404,1.3503297567367554,-0.9613037109375,-1.6021728515625,8.758544921875
6.249999900000001,-9.533711433410645,-2.38462495803833,1.4676456451416016,-2.2430419921875,-3.2958984375,9.1400146484375
6.2699999,-9.62947940826416,-2.2218191623687744,1.5394717454910278,-4.150390625,-3.84521484375,3.60107421875
6.289999900000001,-9.643844604492188,-1.8818424940109253,1.7070658206939697,-8.941650390625,-1.983642578125,1.9378662109375
6.3099999,-9.643844604492188,-1.7860745191574097,1.599326729774475,-21.4996337890625,1.434326171875,-0.9307861328125
6.329999900000001,-9.703699111938477,-1.7357962131500244,1.5418659448623657,-22.3541259765625,3.143310546875,-0.3204345703125
6.3499999,-9.832986831665039,-1.9536685943603516,1.292868971824646,-7.0037841796875,-1.556396484375,0.9613037109375
6.369999900000001,-9.715670585632324,-2.1068975925445557,1.1228805780410767,5.157470703125,-5.7830810546875,-2.9296875
6.3899999,-9.718064308166504,-2.250549554824829,1.0773907899856567,5.3863525390625,-3.9520263671875,0.1373291015625
6.409999900000001,-9.619902610778809,-2.3487119674682617,1.1444283723831177,-1.6021728515625,-0.6866455078125,-0.6561279296875
6.4299999,-9.514557838439941,-2.2242133617401123,1.3670891523361206,-3.2196044921875,0.457763671875,-0.7781982421875
6.449999900000001,-9.581595420837402,-2.2649147510528564,1.5538369417190552,-4.058837890625,0.3204345703125,0.48828125
6.4699999,-9.545681953430176,-2.164358377456665,1.6041151285171509,-5.4473876953125,-0.4425048828125,-1.8310546875
6.489999900000001,-9.696516990661621,-2.0853497982025146,1.7286136150360107,-7.476806640625,2.593994140625,-0.18310546875
6.5099999,-9.713275909423828,-2.0374655723571777,1.6424223184585571,-15.4266357421875,4.0130615234375,-3.814697265625
6.529999900000001,-9.68694019317627,-1.9800047874450684,1.482010841369629,-20.2484130859375,3.2196044921875,-7.6446533203125
6.5499999,-9.78989028930664,-2.233790159225464,1.1899182796478271,-11.16943359375,0.5950927734375,-0.1983642578125
6.569999900000001,-9.775525093078613,-2.540247917175293,0.8906430602073669,3.60107421875,-5.645751953125,3.753662109375
6.5899999000000005,-9.797073364257812,-2.7940332889556885,0.6057330369949341,13.9007568359375,-7.87353515625,1.3427734375
6.609999900000001,-9.636661529541016,-2.7102363109588623,0.7829039692878723,16.6778564453125,-6.9580078125,1.0223388671875
6.6299999000000005,-9.469067573547363,-2.4468741416931152,1.091755986213684,-0.152587890625,-5.3558349609375,1.0833740234375
6.649999900000001,-9.433155059814453,-2.1356279850006104,1.4915876388549805,-24.261474609375,0.274658203125,4.7454833984375
6.6699999000000005,-9.435548782348633,-2.0661959648132324,1.766920804977417,-25.665283203125,-2.9449462890625,5.79833984375
6.6899999,-9.524134635925293,-2.0590133666992188,1.8698714971542358,-6.9732666015625,-3.1585693359375,0.701904296875
6.709999900000001,-9.624691009521484,-2.121262788772583,1.8698714971542358,0.457763671875,0.518798828125,4.119873046875
6.7299999,-9.742006301879883,-2.2002713680267334,1.8531121015548706,-15.167236328125,2.288818359375,3.90625
6.749999900000001,-9.715670585632324,-2.1308395862579346,1.702277421951294,-18.768310546875,4.7454833984375,0.1678466796875
6.7699999,-9.830592155456543,-2.2409727573394775,1.4508862495422363,0.54931640625,0.4730224609375,1.068115234375
6.789999900000001,-9.782708168029785,-2.33913516998291,1.1204863786697388,16.3421630859375,-3.5552978515625,1.0833740234375
6.8099999,-9.931148529052734,-2.33913516998291,0.9457096457481384,16.754150390625,-1.8463134765625,0.274658203125
6.829999900000001,-9.825803756713867,-2.1380221843719482,1.173158884048462,8.5601806640625,-1.4190673828125,-4.2266845703125
6.8499999,-9.694122314453125,-1.764526605606079,1.4628572463989258,-10.19287109375,3.0517578125,-7.843017578125
6.869999900000001,-9.615114212036133,-1.7118542194366455,1.843535304069519,-22.7813720703125,8.1634521484375,-1.8157958984375
6.8899999,-9.469067573547363,-1.7501614093780518,1.9057846069335938,-15.411376953125,2.105712890625,-0.946044921875
6.909999900000001,-9.41639518737793,-2.032677173614502,1.802833914756775,-2.288818359375,2.197265625,-3.4332275390625
6.9299999,-9.476250648498535,-2.31758713722229,1.6280571222305298,-1.7547607421875,4.974365234375,-0.1373291015625
6.949999900000001,-9.555258750915527,-2.5977089405059814,1.3934253454208374,-11.8408203125,4.94384765625,-0.1373291015625
6.9699999,-9.720458984375,-2.6623523235321045,0.9074024558067322,4.8675537109375,-3.5247802734375,2.2125244140625
6.989999900000001,-9.684545516967773,-2.647987127304077,0.6655880808830261,16.1285400390625,-5.706787109375,0.2899169921875
7.0099999,-9.799467086791992,-2.4444799423217773,0.6392518281936646,14.2974853515625,-4.608154296875,0.8544921875
7.029999900000001,-9.653421401977539,-2.2912509441375732,0.9457096457481384,2.593994140625,-6.2255859375,0.335693359375
7.0499999,-9.667786598205566,-1.987187385559082,1.3646949529647827,-14.7705078125,-1.03759765625,-2.13623046875
7.069999900000001,-9.567230224609375,-1.9752163887023926,1.7980455160140991,-21.8048095703125,2.62451171875,2.3040771484375
7.0899999000000005,-9.68933391571045,-2.0614075660705566,1.9369091987609863,-14.6026611328125,-1.068115234375,1.678466796875
7.109999900000001,-9.607931137084961,-2.255337953567505,1.9512743949890137,-4.8370361328125,0.335693359375,0.1373291015625
7.1299999000000005,-9.6989107131958,-2.454056739807129,1.6974890232086182,-2.685546875,4.2572021484375,4.425048828125
7.149999900000001,-9.600749015808105,-2.4181437492370605,1.501164436340332,-3.2501220703125,5.06591796875,2.716064453125
7.1699999000000005,-9.72285270690918,-2.382230758666992,1.235408067703247,2.5787353515625,3.4942626953125,5.615234375
7.1899999,-9.701305389404297,-2.2433669567108154,0.9983820915222168,9.5672607421875,-2.838134765625,1.8310546875
7.209999900000001,-9.567230224609375,-2.075772762298584,0.9289502501487732,12.237548828125,-2.9296875,-1.7547607421875
7.2299999,-9.677363395690918,-2.0805611610412598,0.8882488012313843,7.4005126953125,-0.152587890625,1.5869140625
7.249999900000001,-9.581595420837402,-1.9847931861877441,1.1109095811843872,-0.0762939453125,-2.9296875,-1.2054443359375
7.2699999,-9.703699111938477,-2.0422539710998535,1.2641384601593018,-2.86865234375,-0.152587890625,-2.197265625
7.289999900000001,-9.758766174316406,-2.056619167327881,1.414973258972168,-0.91552734375,-0.5340576171875,0.48828125
7.3099999,-9.880870819091797,-2.2912509441375732,1.4676456451416016,4.486083984375,-3.2501220703125,-1.0833740234375
7.329999900000001,-9.801861763000488,-2.1978771686553955,1.5298948287963867,8.6822509765625,-2.1514892578125,-4.4708251953125
7.3499999,-9.605537414550781,-2.1116859912872314,1.6065093278884888,1.3275146484375,2.7313232421875,-2.0751953125
7.369999900000001,-9.648633003234863,-2.166752576828003,1.6927006244659424,-9.09423828125,2.4261474609375,-2.3193359375
7.3899999,-9.641449928283691,-2.011129379272461,1.7884687185287476,-10.7574462890625,3.7994384765625,-1.0986328125
7.409999900000001,-9.47146224975586,-2.0374655723571777,1.6639702320098877,-6.805419921875,3.4332275390625,0.7476806640625
7.4299999,-9.593565940856934,-2.205059766769409,1.4676456451416016,-2.4871826171875,1.28173828125,-0.091552734375
7.449999900000001,-9.62947940826416,-2.3080103397369385,1.256955862045288,0.91552734375,-0.9002685546875,-2.655029296875
7.4699999,-9.658209800720215,-2.3056161403656006,1.137245774269104,-1.495361328125,-1.129150390625,-0.42724609375
7.489999900000001,-9.600749015808105,-2.365471363067627,1.0582371950149536,-10.6658935546875,1.1444091796875,-2.1209716796875
7.5099999,-9.768342971801758,-2.43011474609375,0.9313444495201111,-1.77001953125,-2.685546875,4.2572021484375
7.529999900000001,-9.658209800720215,-2.518700122833252,0.9002198576927185,19.9432373046875,-7.7362060546875,0.3204345703125
7.5499999,-9.524134635925293,-2.389413356781006,0.9840168952941895,28.62548828125,-6.1492919921875,-0.9307861328125
7.569999900000001,-9.57201862335205,-2.382230758666992,1.3694833517074585,12.1917724609375,-2.0751953125,6.53076171875
7.5899999000000005,-9.454702377319336,-1.9153614044189453,2.027888774871826,-15.167236328125,-0.274658203125,3.082275390625
7.609999900000001,-9.555258750915527,-1.8363527059555054,2.451662540435791,-36.895751953125,6.0577392578125,0.79345703125
7.6299999000000005,-9.593565940856934,-1.800439715385437,2.4875755310058594,-33.2794189453125,7.2174072265625,3.265380859375
7.649999900000001,-9.751583099365234,-2.123656988143921,2.140416383743286,-12.3748779296875,3.9825439453125,2.685546875
7.6699999000000005,-9.821015357971191,-2.2912509441375732,1.6136919260025024,-0.91552734375,2.1209716796875,2.38037109375
7.6899999,-9.742006301879883,-2.4205379486083984,1.1659762859344482,-4.2877197265625,2.6702880859375,1.678466796875
7.709999900000001,-9.761159896850586,-2.2409727573394775,1.036689281463623,-3.387451171875,5.126953125,-0.3509521484375
7.7299999,-9.703699111938477,-2.1811177730560303,0.8810662031173706,3.4332275390625,-1.312255859375,2.3956298828125
7.749999900000001,-9.57441234588623,-1.9823989868164062,0.9528923034667969,6.8511962890625,-3.814697265625,-2.960205078125
7.7699999,-9.459490776062012,-1.9800047874450684,0.9481038451194763,6.072998046875,-0.946044921875,-3.7841796875
7.789999900000001,-9.497797966003418,-1.920149803161621,1.1971008777618408,0.2899169921875,0.579833984375,0.732421875
7.8099999,-9.557653427124023,-2.0231003761291504,1.4484920501708984,-7.8277587890625,1.556396484375,-1.7547607421875
7.829999900000001,-9.734824180603027,-2.0661959648132324,1.678335428237915,-15.167236328125,2.655029296875,0.7171630859375
7.8499999,-9.763554573059082,-2.2577321529388428,1.7262194156646729,-13.61083984375,2.4871826171875,0.3509521484375
7.869999900000001,-9.86889934539795,-2.4205379486083984,1.6280571222305298,-6.7596435546875,2.9449462890625,0.091552734375
7.8899999,-9.806650161743164,-2.3367409706115723,1.6304513216018677,-7.4005126953125,2.7313232421875,0.91552734375
7.909999900000001,-9.670180320739746,-2.2409727573394775,1.5155296325683594,-18.8140869140625,6.1187744140625,-1.7242431640625
7.9299999,-9.801861763000488,-2.140416383743286,1.5155296325683594,-20.965576171875,8.3160400390625,-1.77001953125
7.949999900000001,-9.792284965515137,-2.212242364883423,1.2210428714752197,-8.8043212890625,-0.30517578125,1.3275146484375
7.9699999,-9.725247383117676,-2.22660756111145,0.8355764150619507,8.819580078125,-3.173828125,-3.021240234375
7.989999900000001,-9.718064308166504,-2.5282769203186035,0.49320554733276367,22.003173828125,-4.5166015625,-2.2735595703125
8.0099999,-9.694122314453125,-2.4013843536376953,0.6536170840263367,17.7459716796875,-5.92041015625,-1.1749267578125
8.0299999,-9.643844604492188,-2.2649147510528564,0.9265560507774353,-4.9285888671875,-1.89208984375,-0.2288818359375
8.049999900000001,-9.651026725769043,-2.049436569213867,1.479616641998291,-21.026611328125,1.251220703125,-1.2054443359375
8.069999900000001,-9.466673851013184,-1.824381709098816,1.7501614093780518,-22.2625732421875,2.349853515625,-2.716064453125
8.0899999,-9.35893440246582,-1.9273324012756348,1.6855180263519287,-13.2598876953125,0.91552734375,1.007080078125
8.1099999,-9.275136947631836,-2.1068975925445557,1.50355863571167,1.4495849609375,-1.3275146484375,-0.3204345703125
8.129999900000001,-9.287108421325684,-2.2673089504241943,1.2306196689605713,7.7972412109375,1.2664794921875,-0.518798828125
8.149999900000001,-9.531316757202148,-2.4229321479797363,1.2761094570159912,1.922607421875,0.946044921875,2.0599365234375
8.1699999,-9.66299819946289,-2.3127987384796143,1.314416766166687,-15.3656005859375,4.69970703125,-1.9683837890625
8.1899999,-9.947908401489258,-2.3367409706115723,1.4652514457702637,-22.2320556640625,6.53076171875,-1.2969970703125
8.2099999,-9.947908401489258,-2.2577321529388428,1.3455413579940796,-12.6495361328125,0.885009765625,-1.495361328125
8.229999900000001,-9.8784761428833,-2.3367409706115723,1.0630255937576294,1.6937255859375,0.8087158203125,-3.8299560546875
8.2499999,-9.81143856048584,-2.3942017555236816,0.8092401623725891,17.08984375,-1.953125,-4.1351318359375
8.2699999,-9.57441234588623,-2.315192937850952,0.7852981686592102,14.739990234375,-1.9683837890625,-4.852294921875
8.2899999,-9.524134635925293,-2.166752576828003,1.091755986213684,-5.4473876953125,-1.0986328125,0.732421875
8.309999900000001,-9.454702377319336,-2.0374655723571777,1.4652514457702637,-29.0985107421875,5.340576171875,-3.3111572265625
8.3299999,-9.50737476348877,-2.1045033931732178,1.7046716213226318,-29.0374755859375,8.36181640625,-2.6092529296875
8.3499999,-9.624691009521484,-2.4372973442077637,1.53707754611969,-11.5814208984375,1.434326171875,-0.4730224609375
8.3699999,-9.727641105651855,-2.782062292098999,1.1276689767837524,10.2996826171875,-1.129150390625,0.0762939453125
8.389999900000001,-9.849745750427246,-3.045424461364746,0.7422025203704834,24.6124267578125,-2.99072265625,2.197265625
8.4099999,-9.763554573059082,-2.6647465229034424,0.9433154463768005,12.1612548828125,-2.3651123046875,1.6632080078125
8.4299999,-9.674968719482422,-2.126051187515259,1.4915876388549805,-28.900146484375,2.8228759765625,4.302978515625
8.4499999,-9.476250648498535,-1.2521674633026123,2.540247917175293,-81.5582275390625,12.115478515625,-0.5035400390625
8.469999900000001,-9.217676162719727,-0.6607996821403503,3.337517261505127,-126.2664794921875,20.3094482421875,0.762939453125
8.4899999,-9.124302864074707,-0.05267243832349777,4.091690540313721,-161.4532470703125,21.392822265625,3.2501220703125
8.5099999,-9.002198219299316,0.629675030708313,4.702212333679199,-237.152099609375,34.36279296875,10.25390625
8.5299999,-8.810662269592285,1.50355863571167,4.726154327392578,-360.0921630859375,51.849365234375,7.8887939453125
8.549999900000001,-9.11233139038086,2.0590133666992188,3.9887399673461914,-447.6470947265625,68.3441162109375,6.622314453125
8.569999900000001,-9.224859237670898,2.051830768585205,1.8171991109848022,-434.9212646484375,64.361572265625,8.5296630859375
8.5899999,-10.378864288330078,-0.031124621629714966,-2.4803929328918457,-342.041015625,54.6875,12.6800537109375
8.6099999,-10.939107894897461,-2.4684219360351562,-7.489062786102295,-120.941162109375,18.890380859375,18.9208984375
8.629999900000001,-11.434707641601562,-4.726154327392578,-11.695674896240234,100.616455078125,-31.3873291015625,19.71435546875
8.649999900000001,-11.21444034576416,-5.679046630859375,-13.30218505859375,138.031005859375,-70.343017578125,11.6424560546875
8.6699999,-10.505757331848145,-4.838681697845459,-11.410765647888184,35.7818603515625,-77.6214599609375,18.4326171875
8.6899999,-9.792284965515137,-3.1435868740081787,-7.127538681030273,-64.2547607421875,-53.1158447265625,25.8941650390625
8.709999900000001,-8.911218643188477,-1.5921441316604614,-2.2697031497955322,-87.860107421875,-34.9884033203125,12.39013671875
8.729999900000001,-8.121131896972656,-0.5841852426528931,1.3407529592514038,-59.906005859375,-9.521484375,-1.1138916015625
8.7499999,-7.134721279144287,-0.24660277366638184,3.1531636714935303,-14.4500732421875,-2.777099609375,-2.2430419921875
8.7699999,-7.137115478515625,-0.30885201692581177,3.6296098232269287,27.557373046875,-13.48876953125,-6.072998046875
8.7899999,-7.908048152923584,-0.6967126727104187,3.1244332790374756,38.238525390625,-3.448486328125,-21.2249755859375
8.809999900000001,-9.44991397857666,-0.8978256583213806,2.1811177730560303,8.026123046875,11.016845703125,-12.9547119140625
8.8299999,-10.83855152130127,-1.0007762908935547,0.811634361743927,-16.7236328125,8.9111328125,-7.87353515625
8.8499999,-11.513715744018555,-0.9145850539207458,-0.5291185975074768,-7.9193115234375,-2.9144287109375,-21.1944580078125
8.8699999,-11.307814598083496,-0.9624691009521484,-1.6089035272598267,13.824462890625,-10.4827880859375,-32.6385498046875
8.889999900000001,-10.759542465209961,-1.2689268589019775,-2.2026655673980713,13.24462890625,-11.16943359375,-29.0374755859375
8.9099999,-10.319009780883789,-1.7405846118927002,-2.300827741622925,-3.3111572265625,-14.9993896484375,-22.552490234375
8.9299999,-9.983820915222168,-2.3918075561523438,-2.03507137298584,-8.9569091796875,-22.4761962890625,-19.622802734375
8.9499999,-9.739612579345703,-2.918531894683838,-1.6352397203445435,-1.64794921875,-24.7802734375,-15.3961181640625
8.969999900000001,-9.47146224975586,-3.3494882583618164,-1.2114660739898682,7.171630859375,-21.2860107421875,-8.30078125
8.9899999,-9.296685218811035,-3.3231520652770996,-0.5961562395095825,6.5460205078125,-21.3623046875,-4.791259765625
9.0099999,-9.196128845214844,-2.913743495941162,0.35913026332855225,-22.27783203125,-22.186279296875,-3.9520263671875
9.0299999,-9.229647636413574,-2.6886885166168213,0.7757213711738586,-73.822021484375,-7.5225830078125,-9.1705322265625
9.049999900000001,-9.131484985351562,-2.497152328491211,0.8882488012313843,-56.4422607421875,-4.8675537109375,-16.29638671875
9.069999900000001,-9.346963882446289,-2.7461493015289307,0.35673606395721436,2.0751953125,-14.068603515625,-0.91552734375
9.0899999,-9.500192642211914,-2.8993782997131348,-0.7038952708244324,35.3851318359375,-22.705078125,0.579833984375
9.1099999,-9.830592155456543,-2.209848165512085,-0.45489832758903503,26.4434814453125,-18.7530517578125,-1.3885498046875
9.129999900000001,-9.442731857299805,-0.7996633648872375,1.1994950771331787,-52.734375,-12.481689453125,-9.1705322265625
9.149999900000001,-8.808267593383789,0.8690952062606812,2.956839084625244,-249.5269775390625,-0.1220703125,-2.9144287109375
9.1699999,-7.481880187988281,1.0247182846069336,4.048594951629639,-350.9521484375,32.3028564453125,2.6702880859375
9.1899999,-6.878541469573975,-0.47165772318840027,2.609679937362671,-223.419189453125,2.349853515625,16.4031982421875
9.209999900000001,-7.637503623962402,-3.2632968425750732,-1.1420341730117798,-39.794921875,-13.0767822265625,20.0347900390625
9.229999900000001,-9.758766174316406,-5.66228723526001,-5.078101634979248,88.7451171875,-9.307861328125,29.1748046875
9.2499999,-11.963826179504395,-6.078877925872803,-7.400477409362793,118.6981201171875,-39.9627685546875,29.876708984375
9.2699999,-13.615824699401855,-4.54419469833374,-6.861782073974609,52.5054931640625,-46.32568359375,14.5263671875
9.2899999,-13.362039566040039,-2.4420857429504395,-4.642356872558594,-24.5361328125,-20.08056640625,-6.2408447265625
9.309999900000001,-11.918335914611816,-0.8307880163192749,-1.460463047027588,-21.8353271484375,-2.8228759765625,-5.2642822265625
9.3299999,-10.163386344909668,-0.3280056416988373,0.8834604024887085,5.462646484375,-2.1820068359375,3.1585693359375
9.3499999,-8.789113998413086,-0.7254431247711182,1.8818424940109253,-3.204345703125,1.373291015625,1.9989013671875
9.3699999,-8.17380428314209,-1.3000515699386597,1.920149803161621,-14.312744140625,0.732421875,3.997802734375
9.389999900000001,-8.226476669311523,-1.7812861204147339,1.4173674583435059,1.007080078125,-3.9215087890625,7.4615478515625
9.4099999,-8.65982723236084,-2.094926595687866,0.667982280254364,4.1351318359375,-6.072998046875,5.4168701171875
9.4299999,-9.198522567749023,-2.2242133617401123,0.08619125932455063,-3.997802734375,-4.150390625,1.190185546875
9.4499999,-9.72285270690918,-2.185906171798706,-0.16519992053508759,-0.5035400390625,1.2664794921875,0.885009765625
9.469999900000001,-10.065223693847656,-2.10210919380188,-0.33997663855552673,0.8544921875,2.6702880859375,1.6632080078125
9.4899999,-10.249577522277832,-2.0015525817871094,-0.4884171485900879,0.48828125,-2.2430419921875,-0.5645751953125
9.5099999,-10.283096313476562,-1.8315643072128296,-0.629675030708313,5.5084228515625,-6.3629150390625,-3.11279296875
9.5299999,-10.163386344909668,-1.723825216293335,-0.6847416758537292,5.2032470703125,-6.7138671875,-5.06591796875
9.549999900000001,-9.981427192687988,-1.7262194156646729,-0.5339069962501526,0,-5.8746337890625,-5.4931640625
9.569999900000001,-9.770736694335938,-1.8746598958969116,-0.24181437492370605,-0.518798828125,-4.547119140625,-4.9285888671875
9.5899999,-9.600749015808105,-2.094926595687866,0.12449848651885986,-0.1068115234375,-1.3427734375,-2.1820068359375
9.6099999,-9.502586364746094,-2.31758713722229,0.43095630407333374,-4.425048828125,4.425048828125,1.52587890625
9.629999900000001,-9.478644371032715,-2.4612393379211426,0.5889736413955688,-5.0811767578125,9.674072265625,3.5858154296875
9.649999900000001,-9.591172218322754,-2.451662540435791,0.5171475410461426,-0.244140625,10.528564453125,4.08935546875
9.6699999,-9.763554573059082,-2.3056161403656006,0.26815059781074524,-0.1220703125,8.087158203125,3.2501220703125
9.6899999,-9.926360130310059,-1.987187385559082,-0.021547814831137657,-2.99072265625,8.087158203125,0.4425048828125
9.709999900000001,-9.904812812805176,-1.644816517829895,-0.2298433631658554,-6.53076171875,14.1143798828125,-4.8065185546875
9.729999900000001,-9.821015357971191,-1.3910311460494995,-0.3878606855869293,-14.3890380859375,19.8211669921875,-10.3759765625
9.7499999,-9.828198432922363,-1.4317326545715332,-0.6224924325942993,-15.19775390625,15.3656005859375,-12.0086669921875
9.7699999,-9.782708168029785,-1.7741034030914307,-0.9983820915222168,-0.7781982421875,-2.38037109375,-9.9334716796875
9.7899999,-10.036493301391602,-2.1308395862579346,-1.2641384601593018,5.340576171875,-14.46533203125,-3.5858154296875
9.809999900000001,-10.04846477508545,-2.58813214302063,-1.4197616577148438,-8.026123046875,-18.0816650390625,-0.6866455078125
9.8299999,-10.000580787658691,-2.8610711097717285,-1.3096283674240112,-6.0272216796875,-14.801025390625,1.0833740234375
9.8499999,-9.926360130310059,-2.937685489654541,-0.9217676520347595,5.9661865234375,-14.678955078125,5.523681640625
9.8699999,-9.749189376831055,-2.935291290283203,-0.5027823448181152,4.119873046875,-13.9617919921875,8.2855224609375
9.889999900000001,-9.610325813293457,-2.8227639198303223,-0.05267243832349777,-1.373291015625,-8.23974609375,10.07080078125
9.9099999,-9.473855972290039,-2.580949544906616,0.47644615173339844,-1.8768310546875,2.1514892578125,11.3525390625
9.9299999,-9.481039047241211,-2.3702597618103027,0.751779317855835,-5.889892578125,8.7127685546875,11.871337890625
9.9499999,-9.536105155944824,-2.094926595687866,0.8595184087753296,-9.429931640625,9.4146728515625,10.284423828125
9.969999900000001,-9.548076629638672,-1.623268723487854,0.8331822156906128,-15.350341796875,11.199951171875,6.317138671875
9.9899999,-9.859322547912598,-1.3862427473068237,0.3711012601852417,-5.43212890625,11.932373046875,-2.166748046875
10.0099999,-9.821015357971191,-1.036689281463623,0.014365210197865963,1.89208984375,5.4473876953125,-8.0108642578125
10.0299999,-9.950302124023438,-0.8930372595787048,-0.2585737705230713,2.8839111328125,0.18310546875,-9.3536376953125
10.049999900000001,-9.943120002746582,-0.9624691009521484,-0.38546648621559143,-5.279541015625,3.9825439453125,-15.2740478515625
10.069999900000001,-9.904812812805176,-1.1755530834197998,-0.3208230137825012,-4.547119140625,10.0555419921875,-18.9361572265625
10.0899999,-9.816226959228516,-1.5179238319396973,-0.21547815203666687,-0.5340576171875,7.354736328125,-18.1884765625
10.1099999,-9.78989028930664,-1.9393033981323242,-0.2825157940387726,0,6.5460205078125,-13.4735107421875
10.129999900000001,-9.792284965515137,-2.382230758666992,-0.44771572947502136,13.519287109375,11.5814208984375,-12.664794921875
10.149999900000001,-9.792284965515137,-2.6791117191314697,-0.586579442024231,15.655517578125,8.2244873046875,-10.55908203125
10.1699999,-9.737217903137207,-3.00711727142334,-0.586579442024231,3.1585693359375,1.6326904296875,-4.33349609375
10.1899999,-9.68933391571045,-3.2561142444610596,-0.5339069962501526,-1.8157958984375,6.378173828125,2.0904541015625
10.209999900000001,-9.636661529541016,-3.5218706130981445,-0.5793967843055725,-0.732421875,8.7738037109375,9.246826171875
10.229999900000001,-9.667786598205566,-3.5889084339141846,-0.7445967197418213,1.5411376953125,1.129150390625,15.93017578125
10.2499999,-9.749189376831055,-3.378218650817871,-0.9720458984375,1.8463134765625,-8.2244873046875,20.08056640625
10.2699999,-9.904812812805176,-2.9041666984558105,-1.1540051698684692,-1.7242431640625,-10.284423828125,16.7236328125
10.2899999,-10.010157585144043,-2.2170307636260986,-1.161187767982483,-1.190185546875,-8.7127685546875,8.72802734375
10.309999900000001,-10.062829971313477,-1.4724340438842773,-0.9528923034667969,4.5166015625,-11.1083984375,0.946044921875
10.3299999,-10.074800491333008,-0.9528923034667969,-0.6727706789970398,1.4495849609375,-11.71875,-6.2255859375
10.3499999,-10.043676376342773,-0.790086567401886,-0.33279404044151306,-2.777099609375,-7.2174072265625,-11.9171142578125
10.3699999,-9.962273597717285,-0.9672574996948242,0.043095629662275314,1.922607421875,-2.5482177734375,-12.9241943359375
10.389999900000001,-9.856928825378418,-1.4508862495422363,0.33279404044151306,1.0223388671875,0.3204345703125,-9.4451904296875
10.4099999,-9.706093788146973,-2.0398597717285156,0.4572925269603729,-5.8746337890625,3.021240234375,-5.7373046875
10.4299999,-9.586383819580078,-2.557007312774658,0.4405331015586853,-5.218505859375,4.45556640625,-1.28173828125
10.4499999,-9.500192642211914,-2.8419175148010254,0.27054479718208313,-0.7781982421875,5.615234375,1.617431640625
10.469999900000001,-9.493009567260742,-2.9664158821105957,-0.10773907601833344,-1.5411376953125,5.2642822265625,2.6092529296875
10.4899999,-9.536105155944824,-2.9065608978271484,-0.6057330369949341,7.7362060546875,1.9073486328125,0.5035400390625
10.5099999,-9.684545516967773,-2.7533318996429443,-1.0199298858642578,31.3568115234375,-5.1422119140625,0.3204345703125
10.5299999,-9.794678688049316,-2.434903144836426,-1.259350061416626,41.9921875,-8.0413818359375,-1.8463134765625
10.549999900000001,-9.93354320526123,-2.3295583724975586,-1.5322890281677246,37.445068359375,-7.659912109375,-6.622314453125
10.569999900000001,-10.062829971313477,-2.3367409706115723,-1.7501614093780518,70.556640625,-6.866455078125,-12.237548828125
10.5899999,-10.283096313476562,-2.5689783096313477,-2.3918075561523438,132.1258544921875,-0.6866455078125,-15.716552734375
10.6099999,-10.596736907958984,-2.7269957065582275,-2.6623523235321045,183.1207275390625,-1.953125,-21.5911865234375
10.629999900000001,-10.682928085327148,-2.470816135406494,-2.2218191623687744,178.9093017578125,-15.716552734375,-22.4151611328125
10.649999900000001,-10.682928085327148,-2.2026655673980713,-1.4173674583435059,127.960205078125,-4.058837890625,-21.8963623046875
10.6699999,-9.890447616577148,-1.5322890281677246,1.1994950771331787,93.597412109375,8.331298828125,-27.374267578125
10.6899999,-9.5408935546875,-1.7525556087493896,1.9488801956176758,95.7489013671875,-20.1416015625,-11.04736328125
10.709999900000001,-9.083600997924805,-2.0685901641845703,2.1739351749420166,102.386474609375,-16.387939453125,-2.8228759765625
10.729999900000001,-8.796297073364258,-2.6001031398773193,2.013523578643799,102.4627685546875,-5.157470703125,-4.3182373046875
10.7499999,-8.638279914855957,-2.782062292098999,1.7693150043487549,116.058349609375,-3.570556640625,-6.195068359375
10.7699999,-8.611943244934082,-2.765302896499634,1.3982137441635132,126.983642578125,-3.662109375,-6.4239501953125
10.7899999,-8.674192428588867,-2.142810583114624,1.6974890232086182,122.13134765625,-2.0294189453125,-6.7138671875
10.809999900000001,-8.863334655761719,-1.3287819623947144,2.5234885215759277,58.868408203125,9.2010498046875,-0.4425048828125
10.8299999,-8.908824920654297,-0.7134721279144287,3.3734302520751953,-32.5164794921875,30.059814453125,-12.9852294921875
10.8499999,-9.090784072875977,-0.8810662031173706,3.648763418197632,-41.3818359375,36.2091064453125,-17.6544189453125
10.8699999,-9.246406555175781,-1.6280571222305298,3.224989652633667,19.4854736328125,27.5726318359375,-7.6751708984375
10.889999900000001,-9.442731857299805,-2.8778305053710938,1.9943699836730957,42.2210693359375,23.62060546875,3.0975341796875
10.9099999,-9.648633003234863,-3.7253777980804443,1.0247182846069336,42.1600341796875,24.6734619140625,6.5765380859375
10.9299999,-9.885659217834473,-3.9695863723754883,0.44771572947502136,46.1578369140625,25.7110595703125,6.16455078125
10.9499999,-10.070012092590332,-3.663128614425659,0.19632454216480255,43.4417724609375,25.421142578125,3.0517578125
10.969999900000001,-10.216058731079102,-3.0813376903533936,0.07661445438861847,34.0728759765625,21.575927734375,-1.007080078125
10.9899999,-10.316615104675293,-2.7940332889556885,-0.38546648621559143,35.4766845703125,15.7470703125,-4.5928955078125
11.0099999,-10.225635528564453,-2.8179752826690674,-1.1228805780410767,90.2099609375,6.011962890625,-13.6566162109375
11.0299999,-10.220847129821777,-3.050212860107422,-1.699883222579956,173.2330322265625,-8.1329345703125,-3.6468505859375
11.049999900000001,-9.830592155456543,-3.0142998695373535,-1.7980455160140991,193.634033203125,-12.176513671875,-2.288818359375
11.069999900000001,-9.5408935546875,-2.535459518432617,-0.9050082564353943,161.041259765625,-5.3863525390625,-4.82177734375
11.0899999,-8.96389102935791,-1.659181833267212,0.49799394607543945,124.9542236328125,4.4097900390625,-10.009765625
11.1099999,-8.62391471862793,-0.6536170840263367,2.3343467712402344,103.6376953125,12.8631591796875,-13.458251953125
11.129999900000001,-8.362946510314941,-0.023942016065120697,3.6535518169403076,55.8319091796875,25.7110595703125,-17.6544189453125
11.149999900000001,-8.542511940002441,0.15562310814857483,4.398148536682129,1.6021728515625,34.48486328125,-22.4151611328125
11.1699999,-8.877699851989746,-0.15562310814857483,4.436455726623535,-24.658203125,33.75244140625,-18.5546875
11.1899999,-9.35893440246582,-0.9983820915222168,3.734954595565796,-28.6407470703125,29.7393798828125,-9.0484619140625
11.209999900000001,-9.854534149169922,-2.0661959648132324,2.5929205417633057,-10.955810546875,27.4810791015625,-2.25830078125
11.229999900000001,-10.177751541137695,-2.9759926795959473,1.4867992401123047,22.4761962890625,24.017333984375,3.7841796875
11.2499999,-10.400412559509277,-3.5649664402008057,0.5554547905921936,38.6505126953125,17.120361328125,16.357421875
11.2699999,-10.493785858154297,-3.646369218826294,0.0454898327589035,37.506103515625,12.39013671875,22.8729248046875
11.2899999,-10.486603736877441,-3.3207578659057617,-0.05746084079146385,36.956787109375,13.214111328125,14.7705078125
11.309999900000001,-10.409989356994629,-2.8179752826690674,0.090979665517807,34.97314453125,18.463134765625,-0.54931640625
11.3299999,-10.220847129821777,-2.346317768096924,0.3734954595565796,29.23583984375,22.9644775390625,-14.70947265625
11.3499999,-9.90241813659668,-2.1356279850006104,0.5386953949928284,19.500732421875,23.0560302734375,-19.59228515625
11.3699999,-9.612719535827637,-2.499546527862549,0.1364694982767105,26.885986328125,19.10400390625,-16.5863037109375
11.389999900000001,-9.32541561126709,-3.134010076522827,-0.7805097699165344,82.58056640625,6.622314453125,-14.984130859375
11.4099999,-9.215282440185547,-3.7421371936798096,-1.558625340461731,164.8101806640625,-5.218505859375,-9.2926025390625
11.4299999,-9.253589630126953,-3.6822822093963623,-1.7405846118927002,175.9490966796875,-11.474609375,6.011962890625
11.4499999,-9.265560150146484,-2.9257144927978516,-0.8403648138046265,101.531982421875,-6.195068359375,1.190185546875
11.469999900000001,-9.560047149658203,-1.8579005002975464,0.727837324142456,25.543212890625,-0.9918212890625,-4.364013671875
11.4899999,-9.399636268615723,-0.6727706789970398,2.432508945465088,-11.077880859375,-3.5552978515625,-12.1612548828125
11.5099999,-9.646238327026367,-0.26336219906806946,3.450044631958008,-41.8701171875,17.913818359375,-2.4261474609375
11.5299999,-9.555258750915527,-0.4357447028160095,3.7852327823638916,-57.43408203125,20.5230712890625,-9.796142578125
11.549999900000001,-9.677363395690918,-1.1492167711257935,3.335123062133789,-46.5545654296875,21.17919921875,-14.068603515625
11.569999900000001,-9.715670585632324,-2.3080103397369385,2.3511061668395996,-13.85498046875,19.6685791015625,-5.462646484375
11.5899999,-9.770736694335938,-3.335123062133789,1.2042834758758545,21.7132568359375,15.7623291015625,2.7008056640625
11.6099999,-9.706093788146973,-3.845088005065918,0.33758243918418884,38.665771484375,12.8173828125,7.38525390625
11.629999900000001,-9.679757118225098,-3.778050184249878,-0.043095629662275314,27.740478515625,13.7939453125,5.8746337890625
11.649999900000001,-9.646238327026367,-3.1531636714935303,0.07900865375995636,14.7552490234375,16.8304443359375,1.922607421875
11.6699999,-9.677363395690918,-2.3127987384796143,0.4357447028160095,7.3089599609375,19.5770263671875,-2.4261474609375
11.6899999,-9.713275909423828,-1.6089035272598267,0.7781155705451965,-0.06103515625,19.8974609375,-8.23974609375
11.709999900000001,-9.832986831665039,-1.235408067703247,0.9528923034667969,-5.828857421875,18.0206298828125,-14.862060546875
11.729999900000001,-9.888052940368652,-1.403002142906189,0.849941611289978,-6.805419921875,16.845703125,-15.2740478515625
11.7499999,-10.074800491333008,-2.10210919380188,0.22266076505184174,9.9945068359375,14.9688720703125,-9.368896484375
11.7699999,-10.340557098388672,-2.808398485183716,-0.2777273952960968,56.121826171875,1.708984375,-3.997802734375
11.7899999,-10.735600471496582,-3.4356794357299805,-0.811634361743927,79.5440673828125,-24.3682861328125,17.5018310546875
11.809999900000001,-11.221623420715332,-3.4141316413879395,-0.7565677165985107,70.7855224609375,-32.40966796875,28.38134765625
11.8299999,-11.508927345275879,-2.937685489654541,-0.16519992053508759,47.3785400390625,-25.115966796875,10.6658935546875
11.8499999,-11.465831756591797,-2.2218191623687744,0.5793967843055725,21.1639404296875,-1.312255859375,-12.4664306640625
11.8699999,-11.042057991027832,-1.4844050407409668,1.5322890281677246,-0.1068115234375,18.61572265625,-25.69580078125
11.889999900000001,-10.309432983398438,-0.9864110946655273,2.0374655723571777,-34.2254638671875,28.6102294921875,-24.8565673828125
11.9099999,-9.514557838439941,-0.9169792532920837,2.183511972427368,-58.4259033203125,30.3497314453125,-14.373779296875
11.9299999,-8.83699893951416,-1.173158884048462,1.766920804977417,-51.69677734375,24.71923828125,-4.119873046875
11.9499999,-8.413225173950195,-1.7908629179000854,0.9265560507774353,-25.665283203125,19.256591796875,2.0751953125
11.969999900000001,-8.324639320373535,-2.499546527862549,-0.026336219161748886,4.6539306640625,15.2740478515625,3.753662109375
11.9899999,-8.473079681396484,-3.0358476638793945,-0.751779317855835,31.494140625,2.38037109375,2.6092529296875
12.0099999,-8.7268648147583,-3.2824504375457764,-1.0271124839782715,44.2352294921875,-12.115478515625,2.3040771484375
12.0299999,-8.999804496765137,-3.1938650608062744,-0.8259995579719543,43.3502197265625,-12.2222900390625,1.861572265625
12.049999900000001,-9.215282440185547,-2.8802247047424316,-0.24660277366638184,35.3546142578125,-4.1351318359375,-1.7242431640625
12.069999900000001,-9.41400146484375,-2.4660277366638184,0.47165772318840027,25.2227783203125,-1.6021728515625,-6.7291259765625
12.0899999,-9.569623947143555,-2.099714994430542,1.1061211824417114,15.4266357421875,-8.026123046875,-10.2996826171875
12.1099999,-9.619902610778809,-1.8698714971542358,1.5322890281677246,5.584716796875,-14.801025390625,-8.3770751953125
12.129999900000001,-9.567230224609375,-1.7836803197860718,1.6735470294952393,-2.349853515625,-11.41357421875,0.335693359375
12.149999900000001,-9.452308654785156,-1.843535304069519,1.5825673341751099,-5.767822265625,-2.8228759765625,8.4381103515625
12.1699999,-9.370905876159668,-1.98958158493042,1.3072341680526733,-4.547119140625,-0.7171630859375,9.3536376953125
12.1899999,-9.363722801208496,-2.1978771686553955,0.9385270476341248,-0.9765625,-3.4637451171875,4.1351318359375
12.209999900000001,-9.418789863586426,-2.434903144836426,0.5793967843055725,4.5623779296875,-2.899169921875,-2.655029296875
12.229999900000001,-9.473855972290039,-2.655169725418091,0.33279404044151306,10.19287109375,0.5340576171875,-4.8065185546875
12.2499999,-9.555258750915527,-2.829946517944336,0.19871874153614044,14.6484375,2.1209716796875,-2.3345947265625
12.2699999,-9.627084732055664,-2.911349296569824,0.2537853717803955,19.2108154296875,-5.279541015625,0.1983642578125
12.289999900000002,-9.718064308166504,-2.913743495941162,0.43095630407333374,21.484375,-8.544921875,-1.1138916015625
12.309999900000001,-9.799467086791992,-2.846705913543701,0.7038952708244324,20.7672119140625,-8.60595703125,-5.828857421875
12.3299999,-9.909601211547852,-2.7509377002716064,1.0438719987869263,18.1427001953125,-14.495849609375,-10.711669921875
12.3499999,-9.921571731567383,-2.6216509342193604,1.4915876388549805,14.0533447265625,-29.571533203125,-14.8773193359375
12.3699999,-9.794678688049316,-2.609679937362671,1.678335428237915,1.9683837890625,-24.10888671875,-18.4478759765625
12.389999900000001,-9.583989143371582,-2.580949544906616,2.0254945755004883,-3.5858154296875,2.0904541015625,-17.8375244140625
12.4099999,-9.44752025604248,-2.655169725418091,2.03507137298584,-0.091552734375,12.8631591796875,-18.0816650390625
12.4299999,-9.385271072387695,-2.7509377002716064,2.0231003761291504,-0.06103515625,-3.143310546875,-26.9622802734375
12.4499999,-9.469067573547363,-2.8586769104003906,1.8842366933822632,-1.5716552734375,-16.2506103515625,-36.7889404296875
12.469999900000001,-9.452308654785156,-2.9879636764526367,1.6735470294952393,-0.762939453125,-18.5394287109375,-33.7982177734375
12.4899999,-9.198522567749023,-3.1076738834381104,1.4939818382263184,-1.800537109375,-14.2059326171875,-19.3634033203125
12.5099999,-8.772355079650879,-3.1651346683502197,1.400607943534851,-3.2501220703125,-2.3956298828125,-2.593994140625
12.5299999,-8.348581314086914,-3.1220390796661377,1.41257905960083,-4.7454833984375,7.1563720703125,9.1705322265625
12.549999900000001,-8.054094314575195,-3.002328872680664,1.4915876388549805,-8.9569091796875,6.04248046875,17.1051025390625
12.569999900000001,-7.965508937835693,-2.786850690841675,1.5897499322891235,-13.3209228515625,7.14111328125,22.613525390625
12.5899999,-8.068459510803223,-2.5929205417633057,1.6184803247451782,-19.500732421875,16.4642333984375,22.03369140625
12.6099999,-8.26478385925293,-2.4684219360351562,1.6208745241165161,-20.5535888671875,20.660400390625,19.3939208984375
12.629999900000001,-8.65743350982666,-2.4157495498657227,1.501164436340332,-16.815185546875,20.3857421875,15.625
12.649999900000001,-9.078812599182129,-2.4851813316345215,1.3431471586227417,-9.8876953125,10.7269287109375,7.3699951171875
12.6699999,-9.493009567260742,-2.6168625354766846,1.1348515748977661,-5.462646484375,-9.3536376953125,4.3182373046875
12.6899999,-9.794678688049316,-2.7557260990142822,0.9720458984375,-4.180908203125,-25.1922607421875,8.514404296875
12.709999900000001,-9.873687744140625,-2.8850131034851074,0.8906430602073669,-3.3416748046875,-25.87890625,12.4359130859375
12.729999900000001,-9.794678688049316,-2.956839084625244,0.9265560507774353,-0.6103515625,-17.3797607421875,14.16015625
12.7499999,-9.68694019317627,-2.9664158821105957,1.039083480834961,-0.1373291015625,-9.94873046875,15.3656005859375
12.7699999,-9.648633003234863,-2.918531894683838,1.1803414821624756,-3.2806396484375,-6.16455078125,14.9993896484375
12.789999900000002,-9.703699111938477,-2.8395233154296875,1.2856862545013428,-7.14111328125,-4.94384765625,13.214111328125
12.809999900000001,-9.799467086791992,-2.7557260990142822,1.3215993642807007,-9.7808837890625,-5.6610107421875,12.603759765625
12.8299999,-9.876082420349121,-2.6815059185028076,1.3000515699386597,-12.725830078125,-5.31005859375,12.9547119140625
12.8499999,-9.907206535339355,-2.626439332962036,1.2186486721038818,-16.143798828125,0.0152587890625,10.43701171875
12.8699999,-9.890447616577148,-2.6024973392486572,1.1085153818130493,-16.7999267578125,5.2032470703125,6.34765625
12.889999900000001,-9.849745750427246,-2.5929205417633057,0.9648633003234863,-14.9993896484375,4.0283203125,5.126953125
12.9099999,-9.708487510681152,-2.604891538619995,0.8547300100326538,-13.397216796875,0.4730224609375,5.7525634765625
12.9299999,-9.485827445983887,-2.6001031398773193,0.8020575642585754,-14.34326171875,6.4239501953125,7.568359375
12.9499999,-9.172186851501465,-2.561795711517334,0.8140285611152649,-13.5650634765625,15.594482421875,11.9171142578125
12.969999900000001,-9.476250648498535,-2.6216509342193604,0.9433154463768005,-10.7421875,11.4898681640625,19.6685791015625
12.9899999,-9.785101890563965,-2.6886885166168213,0.9552865028381348,-12.75634765625,3.7994384765625,-6.77490234375
13.0099999,-10.484209060668945,-2.985569477081299,1.0247182846069336,-18.646240234375,3.570556640625,-25.665283203125
13.0299999,-11.006145477294922,-3.2130186557769775,0.9576807022094727,-22.979736328125,5.7525634765625,10.8184814453125
13.049999900000001,-10.953473091125488,-3.3662476539611816,0.933738648891449,-22.064208984375,5.035400390625,16.8304443359375
13.069999900000001,-10.654197692871094,-3.2848446369171143,0.8762778043746948,-18.37158203125,5.0048828125,15.68603515625
13.0899999,-10.180145263671875,-2.9233202934265137,0.8212111592292786,-8.9111328125,6.16455078125,12.3291015625
13.1099999,-9.730035781860352,-2.4588451385498047,0.7757213711738586,-0.6561279296875,5.7830810546875,7.3699951171875
13.129999900000001,-9.493009567260742,-2.0231003761291504,0.7805097699165344,-2.1209716796875,4.2877197265625,4.0130615234375
13.149999900000001,-9.454702377319336,-1.7405846118927002,0.8307880163192749,-3.5858154296875,5.0811767578125,2.50244140625
13.1699999,-9.524134635925293,-1.6711528301239014,0.8906430602073669,-1.556396484375,6.561279296875,1.373291015625
13.1899999,-9.672574996948242,-1.742978811264038,0.8954314589500427,-0.5950927734375,5.9051513671875,1.2969970703125
13.209999900000001,-9.718064308166504,-1.8794482946395874,0.8762778043746948,-1.6326904296875,3.96728515625,1.15966796875
13.229999900000001,-9.787496566772461,-2.0183119773864746,0.7876923680305481,-4.5166015625,3.4942626953125,1.3427734375
13.2499999,-9.801861763000488,-2.1499931812286377,0.7134721279144287,-7.14111328125,2.1514892578125,1.8768310546875
13.2699999,-9.840168952941895,-2.279279947280884,0.6200982332229614,-9.7503662109375,-0.54931640625,3.2958984375
13.289999900000002,-9.883264541625977,-2.3798365592956543,0.5315127968788147,-11.23046875,-3.3721923828125,5.859375
13.309999900000001,-9.864110946655273,-2.406172752380371,0.4836287498474121,-10.833740234375,-5.4931640625,6.5765380859375
13.3299999,-9.801861763000488,-2.315192937850952,0.49799394607543945,-11.5509033203125,-6.2713623046875,5.8746337890625
13.3499999,-9.734824180603027,-2.1356279850006104,0.5530605912208557,-11.1083984375,-5.67626953125,3.72314453125
13.3699999,-9.691728591918945,-1.9081788063049316,0.7158663272857666,-10.19287109375,-6.6375732421875,0.6561279296875
13.389999900000001,-9.627084732055664,-1.7501614093780518,0.8571242094039917,-12.9241943359375,-6.439208984375,-1.2359619140625
13.4099999,-9.607931137084961,-1.6950948238372803,0.9744400978088379,-12.664794921875,-3.8604736328125,-1.9378662109375
13.4299999,-9.643844604492188,-1.6831238269805908,1.0079588890075684,-7.843017578125,-2.7923583984375,-3.692626953125
13.4499999,-9.773131370544434,-1.721431016921997,0.9840168952941895,-4.2877197265625,-5.06591796875,-7.1868896484375
13.469999900000001,-9.93593692779541,-1.8100165128707886,0.8331822156906128,-0.9002685546875,-5.523681640625,-11.3525390625
13.4899999,-10.050858497619629,-1.941697597503662,0.6177040338516235,7.4462890625,-6.4697265625,-12.5732421875
13.5099999,-10.04846477508545,-2.123656988143921,0.4572925269603729,19.7601318359375,-10.8795166015625,-11.7950439453125
13.5299999,-9.916783332824707,-2.315192937850952,0.40701428055763245,29.0679931640625,-11.5509033203125,-12.298583984375
13.549999900000001,-9.739612579345703,-2.4803929328918457,0.524330198764801,29.9224853515625,-9.246826171875,-12.1002197265625
13.569999900000001,-9.548076629638672,-2.6144683361053467,0.8164227604866028,26.9927978515625,-8.697509765625,-9.3841552734375
13.5899999,-9.433155059814453,-2.693476915359497,1.256955862045288,23.7579345703125,-7.904052734375,-5.3863525390625
13.6099999,-9.368511199951172,-2.719813108444214,1.7046716213226318,15.228271484375,-4.3487548828125,-1.556396484375
13.629999900000001,-9.35654067993164,-2.631227731704712,2.1763293743133545,2.2735595703125,0.213623046875,-0.0457763671875
13.649999900000001,-9.334992408752441,-2.5977089405059814,2.4684219360351562,-11.3525390625,5.1727294921875,1.220703125
13.6699999,-9.32302188873291,-2.5450363159179688,2.535459518432617,-18.6309814453125,9.2010498046875,4.7607421875
13.6899999,-9.313444137573242,-2.612074136734009,2.2601263523101807,-19.0277099609375,8.72802734375,8.819580078125
13.709999900000001,-9.39245319366455,-2.691082715988159,1.699883222579956,-13.092041015625,5.340576171875,9.796142578125
13.729999900000001,-9.531316757202148,-2.75812029838562,0.9720458984375,3.4942626953125,2.4566650390625,8.85009765625
13.7499999,-9.710882186889648,-2.671929121017456,0.2968810200691223,22.5982666015625,-2.166748046875,8.331298828125
13.7699999,-9.904812812805176,-2.4899697303771973,-0.11971008777618408,32.1197509765625,-6.683349609375,5.8441162109375
13.789999900000002,-10.002974510192871,-2.188300371170044,-0.21308395266532898,33.203125,-9.979248046875,0.91552734375
13.809999900000001,-10.0580415725708,-1.8076223134994507,0.08140286058187485,29.510498046875,-11.505126953125,-2.3956298828125
13.8299999,-10.010157585144043,-1.5538369417190552,0.5985504388809204,22.0947265625,-13.0462646484375,-3.4027099609375
13.8499999,-9.897629737854004,-1.3718775510787964,1.1899182796478271,10.3607177734375,-12.4359130859375,-5.0201416015625
13.8699999,-9.761159896850586,-1.4437036514282227,1.7334020137786865,3.6468505859375,-7.8277587890625,-6.561279296875
13.889999900000001,-9.648633003234863,-1.644816517829895,2.1547815799713135,4.058837890625,-4.5013427734375,-6.134033203125
13.9099999,-9.509769439697266,-1.9632453918457031,2.43011474609375,3.2196044921875,-1.9683837890625,-3.8299560546875
13.9299999,-9.399636268615723,-2.2697031497955322,2.5665841102600098,1.0833740234375,1.0528564453125,-1.5716552734375
13.9499999,-9.368511199951172,-2.4660277366638184,2.5929205417633057,-0.9918212890625,6.683349609375,-0.457763671875
13.969999900000001,-9.378087997436523,-2.5258827209472656,2.537853717803955,-3.662109375,10.80322265625,1.3275146484375
13.9899999,-9.476250648498535,-2.427720546722412,2.3750481605529785,-8.2550048828125,11.566162109375,1.89208984375
14.0099999,-9.581595420837402,-2.2697031497955322,2.1499931812286377,-13.916015625,12.8021240234375,0.1373291015625
14.0299999,-9.634267807006836,-2.1308395862579346,1.7836803197860718,-14.678955078125,13.2904052734375,-1.1444091796875
14.049999900000001,-9.68694019317627,-2.049436569213867,1.3766659498214722,-7.4920654296875,12.6800537109375,-1.40380859375
14.069999900000001,-9.703699111938477,-2.070984363555908,0.9241618514060974,0.518798828125,6.7138671875,-1.2969970703125
14.0899999,-9.75397777557373,-2.073378562927246,0.569819986820221,4.119873046875,2.6702880859375,-2.0904541015625
14.1099999,-9.746794700622559,-2.1595699787139893,0.3926490843296051,3.8604736328125,0.5950927734375,-2.86865234375
14.129999900000001,-9.75397777557373,-2.140416383743286,0.44771572947502136,2.716064453125,-1.03759765625,-4.1961669921875
14.149999900000001,-9.720458984375,-2.1978771686553955,0.6560112833976746,1.5869140625,-1.9073486328125,-4.6234130859375
14.1699999,-9.746794700622559,-2.1787235736846924,0.9624691009521484,-0.1373291015625,-1.251220703125,-5.31005859375
14.1899999,-9.742006301879883,-2.207453966140747,1.2521674633026123,-1.495361328125,-0.1678466796875,-5.3863525390625
14.209999900000001,-9.775525093078613,-2.183511972427368,1.4772224426269531,-1.0528564453125,1.4495849609375,-5.92041015625
14.229999900000001,-9.720458984375,-2.2457611560821533,1.5897499322891235,-0.2899169921875,1.9073486328125,-5.9967041015625
14.2499999,-9.691728591918945,-2.3104045391082764,1.6160861253738403,-0.8392333984375,3.3111572265625,-5.5389404296875
14.2699999,-9.607931137084961,-2.3487119674682617,1.53707754611969,0.2593994140625,3.3111572265625,-4.913330078125
14.289999900000002,-9.59596061706543,-2.454056739807129,1.3958195447921753,4.33349609375,3.7078857421875,-5.7525634765625
14.309999900000001,-9.624691009521484,-2.470816135406494,1.2880805730819702,7.568359375,3.8604736328125,-5.828857421875
14.3299999,-9.696516990661621,-2.537853717803955,1.1803414821624756,7.7972412109375,3.0517578125,-5.4779052734375
14.3499999,-9.6989107131958,-2.427720546722412,1.1994950771331787,5.2032470703125,3.3111572265625,-6.3018798828125
14.3699999,-9.622296333312988,-2.3343467712402344,1.2497732639312744,3.631591796875,3.9825439453125,-6.5155029296875
14.389999900000001,-9.512163162231445,-2.3511061668395996,1.3048399686813354,0.06103515625,3.5858154296875,-5.6610107421875
14.4099999,-9.459490776062012,-2.406172752380371,1.359906554222107,-4.33349609375,3.7994384765625,-4.241943359375
14.4299999,-9.47146224975586,-2.5043349266052246,1.4077905416488647,-5.035400390625,4.7454833984375,-3.082275390625
14.4499999,-9.5624418258667,-2.650381326675415,1.3718775510787964,-2.7313232421875,4.9285888671875,-2.50244140625
14.469999900000001,-9.677363395690918,-2.7269957065582275,1.2617442607879639,-1.739501953125,3.0059814453125,-1.7852783203125
14.4899999,-9.832986831665039,-2.8107926845550537,1.1563993692398071,-0.885009765625,2.4871826171875,-0.54931640625
14.5099999,-9.854534149169922,-2.8826189041137695,1.0606313943862915,2.0751953125,3.47900390625,0.701904296875
14.5299999,-9.847352027893066,-2.8850131034851074,1.1420341730117798,1.800537109375,5.5694580078125,2.4871826171875
14.549999900000001,-9.725247383117676,-2.9281086921691895,1.2832920551300049,-5.401611328125,6.103515625,6.591796875
14.569999900000001,-9.564835548400879,-2.9233202934265137,1.4844050407409668,-13.5955810546875,7.5836181640625,10.589599609375
14.5899999,-9.421183586120605,-2.9281086921691895,1.6304513216018677,-16.66259765625,9.124755859375,14.068603515625
14.6099999,-9.311050415039062,-2.8586769104003906,1.6663644313812256,-17.181396484375,11.3983154296875,15.6707763671875
14.629999900000001,-9.26795482635498,-2.7557260990142822,1.558625340461731,-16.4794921875,12.1002197265625,16.204833984375
14.649999900000001,-9.339780807495117,-2.561795711517334,1.3287819623947144,-12.8936767578125,13.1683349609375,15.2587890625
14.6699999,-9.461885452270508,-2.2864625453948975,1.05105459690094,-7.598876953125,12.420654296875,13.4124755859375
14.6899999,-9.634267807006836,-2.008735179901123,0.7350199222564697,-4.241943359375,11.71875,9.796142578125
14.709999900000001,-9.780313491821289,-1.7597382068634033,0.5147533416748047,-0.396728515625,9.1705322265625,6.378173828125
14.729999900000001,-9.8784761428833,-1.6184803247451782,0.40222588181495667,1.800537109375,8.1024169921875,2.8533935546875
14.7499999,-9.981427192687988,-1.601720929145813,0.40222588181495667,1.2359619140625,7.293701171875,1.4190673828125
14.7699999,-10.105925559997559,-1.764526605606079,0.4812345504760742,3.2501220703125,2.166748046875,-3.60107421875
14.789999900000002,-10.070012092590332,-1.9847931861877441,0.6823474764823914,9.8114013671875,-15.1519775390625,-19.012451171875
14.809999900000001,-9.93354320526123,-2.322375535964966,1.0031704902648926,13.0462646484375,-23.834228515625,-29.9072265625
14.8299999,-9.670180320739746,-2.7126305103302,1.4484920501708984,9.09423828125,-19.6380615234375,-27.16064453125
14.8499999,-9.32302188873291,-3.0837318897247314,1.889025092124939,2.4261474609375,-11.71875,-20.0653076171875
14.8699999,-9.064447402954102,-3.3925838470458984,2.2697031497955322,-3.5400390625,-8.30078125,-8.0718994140625
14.889999900000001,-9.002198219299316,-3.5960910320281982,2.3558945655822754,-7.8582763671875,-1.5106201171875,3.265380859375
14.9099999,-8.932766914367676,-3.5649664402008057,2.166752576828003,-6.5765380859375,8.4991455078125,4.9896240234375
14.9299999,-9.107542991638184,-3.332728862762451,1.6927006244659424,-4.150390625,24.0020751953125,14.6942138671875
14.9499999,-9.373299598693848,-2.853888511657715,1.0031704902648926,-4.33349609375,31.3262939453125,27.7557373046875
14.969999900000001,-9.643844604492188,-2.1978771686553955,0.272938996553421,-3.936767578125,25.87890625,27.9693603515625
14.9899999,-9.974244117736816,-1.5634137392044067,-0.3926490843296051,-6.0272216796875,17.4407958984375,21.1181640625
15.0099999,-10.139444351196289,-1.113303780555725,-0.8331822156906128,-9.0789794921875,10.7269287109375,13.9617919921875
15.0299999,-10.220847129821777,-0.8643068075180054,-1.0319008827209473,-11.3067626953125,2.7618408203125,6.9427490234375
15.049999900000001,-10.247182846069336,-0.849941611289978,-0.9313444495201111,-10.0860595703125,-4.57763671875,2.105712890625
15.069999900000001,-10.182539939880371,-1.0007762908935547,-0.6416460275650024,-9.002685546875,-7.0037841796875,-2.3651123046875
15.0899999,-10.06043529510498,-1.1851298809051514,-0.2537853717803955,-4.4708251953125,-5.8135986328125,-6.77490234375
15.1099999,-9.90241813659668,-1.5179238319396973,0.1388636976480484,2.2125244140625,-6.3018798828125,-9.613037109375
15.129999900000001,-9.775525093078613,-1.8171991109848022,0.49799394607543945,3.4942626953125,-6.5155029296875,-8.6822509765625
15.149999900000001,-9.639056205749512,-2.1571757793426514,0.7613561153411865,2.5634765625,-5.340576171875,-5.43212890625
15.1699999,-9.619902610778809,-2.403778553009033,0.9768342971801758,5.706787109375,-1.0833740234375,-3.2501220703125
15.1899999,-9.581595420837402,-2.6240451335906982,1.1085153818130493,8.0413818359375,-0.9765625,-1.617431640625
15.209999900000001,-9.5624418258667,-2.7054479122161865,1.194706678390503,3.997802734375,-2.777099609375,1.9683837890625
15.229999900000001,-9.567230224609375,-2.7246015071868896,1.1994950771331787,-3.1890869140625,-0.946044921875,4.150390625
15.2499999,-9.591172218322754,-2.6455929279327393,1.1324573755264282,-4.0435791015625,0.6866455078125,2.38037109375
15.2699999,-9.643844604492188,-2.52109432220459,1.0103530883789062,-2.655029296875,-0.5340576171875,2.38037109375
15.289999900000002,-9.701305389404297,-2.382230758666992,0.8307880163192749,-4.669189453125,-2.62451171875,5.5999755859375
15.309999900000001,-9.785101890563965,-2.2409727573394775,0.6919242739677429,-3.692626953125,-2.3956298828125,5.523681640625
15.3299999,-9.837775230407715,-2.0805611610412598,0.5770025849342346,1.4495849609375,-1.64794921875,3.0364990234375
15.3499999,-9.861717224121094,-1.9704279899597168,0.49320554733276367,3.387451171875,-4.5013427734375,1.983642578125
15.3699999,-9.873687744140625,-1.886630892753601,0.45250412821769714,1.46484375,-8.5296630859375,1.922607421875
15.389999900000001,-9.864110946655273,-1.8770540952682495,0.4908113479614258,3.2501220703125,-7.7972412109375,-0.8544921875
15.4099999,-9.832986831665039,-1.8722656965255737,0.5889736413955688,8.72802734375,-5.6915283203125,-4.669189453125
15.4299999,-9.78989028930664,-1.8914192914962769,0.7876923680305481,8.8653564453125,-4.638671875,-5.7220458984375
15.4499999,-9.75637149810791,-1.8746598958969116,1.0247182846069336,2.6397705078125,-3.6773681640625,-4.1961669921875
15.469999900000001,-9.696516990661621,-1.8938134908676147,1.2018892765045166,-2.716064453125,-1.03759765625,-4.5318603515625
15.4899999,-9.694122314453125,-1.941697597503662,1.3311761617660522,-3.35693359375,0.9765625,-5.340576171875
15.5099999,-9.672574996948242,-2.027888774871826,1.3694833517074585,-3.2501220703125,0.3204345703125,-3.7384033203125
15.5299999,-9.643844604492188,-2.1547815799713135,1.3766659498214722,-6.40869140625,-0.2593994140625,-1.6937255859375
15.549999900000001,-9.639056205749512,-2.2816741466522217,1.3527239561080933,-8.9263916015625,2.410888671875,-2.01416015625
15.569999900000001,-9.607931137084961,-2.43011474609375,1.2761094570159912,-7.14111328125,4.9285888671875,-2.25830078125
15.5899999,-9.586383819580078,-2.5115175247192383,1.1204863786697388,-4.364013671875,4.0435791015625,-0.5950927734375
15.6099999,-9.651026725769043,-2.5785553455352783,0.9481038451194763,-3.60107421875,2.6702880859375,2.197265625
15.629999900000001,-9.679757118225098,-2.52109432220459,0.8140285611152649,-4.547119140625,2.9449462890625,3.4637451171875
15.649999900000001,-9.749189376831055,-2.3726539611816406,0.7350199222564697,-8.1634521484375,5.3863525390625,3.082275390625
15.6699999,-9.768342971801758,-2.2194249629974365,0.7493851184844971,-11.6119384765625,3.41796875,3.173828125
15.6899999,-9.80904483795166,-2.1284453868865967,0.7206547260284424,-12.3443603515625,0.8392333984375,2.6397705078125
15.709999900000001,-9.761159896850586,-2.1380221843719482,0.6919242739677429,-8.392333984375,-1.0986328125,2.655029296875
15.729999900000001,-9.765948295593262,-2.2218191623687744,0.5722141861915588,-2.105712890625,-1.0833740234375,1.6632080078125
15.7499999,-9.775525093078613,-2.382230758666992,0.507570743560791,4.2877197265625,-2.5787353515625,1.708984375
15.7699999,-9.770736694335938,-2.454056739807129,0.40940847992897034,8.636474609375,-4.852294921875,2.532958984375
15.789999900000002,-9.801861763000488,-2.406172752380371,0.4620809257030487,8.0108642578125,-6.0577392578125,3.8604736328125
15.809999900000001,-9.765948295593262,-2.2697031497955322,0.608127236366272,1.983642578125,-5.584716796875,3.2501220703125
15.8299999,-9.770736694335938,-2.0829553604125977,0.811634361743927,-4.2266845703125,-2.716064453125,1.373291015625
15.8499999,-9.763554573059082,-1.8626888990402222,1.0103530883789062,-7.2021484375,-3.570556640625,1.251220703125
15.869999900000002,-9.768342971801758,-1.7166426181793213,1.1563993692398071,-8.5601806640625,-4.57763671875,0.67138671875
15.889999900000001,-9.782708168029785,-1.6543933153152466,1.2234370708465576,-8.4991455078125,-4.302978515625,-3.1280517578125
15.9099999,-9.751583099365234,-1.644816517829895,1.2401964664459229,-4.57763671875,-2.410888671875,-7.0037841796875
15.9299999,-9.765948295593262,-1.7956513166427612,1.1803414821624756,0.6103515625,-0.518798828125,-7.8582763671875
15.9499999,-9.761159896850586,-1.9704279899597168,1.0965443849563599,2.6397705078125,-0.42724609375,-5.9661865234375
15.969999900000001,-9.794678688049316,-2.248155355453491,1.0247182846069336,1.5411376953125,1.15966796875,-3.35693359375
15.9899999,-9.75637149810791,-2.4013843536376953,0.9840168952941895,0.518798828125,1.495361328125,-1.1444091796875
16.0099999,-9.770736694335938,-2.52109432220459,0.9552865028381348,-0.8392333984375,0.6866455078125,0.9002685546875
16.0299999,-9.773131370544434,-2.518700122833252,0.9217676520347595,-2.227783203125,-0.762939453125,2.716064453125
16.0499999,-9.797073364257812,-2.4133553504943848,0.8738836050033569,-1.52587890625,-3.204345703125,2.685546875
16.0699999,-9.830592155456543,-2.2673089504241943,0.8259995579719543,-1.9073486328125,-4.5623779296875,1.6021728515625
16.089999900000002,-9.770736694335938,-2.1523873805999756,0.8212111592292786,-2.25830078125,-7.080078125,0.5645751953125
16.109999900000002,-9.684545516967773,-2.075772762298584,0.8523358106613159,0.1220703125,-6.53076171875,-0.8392333984375
16.1299999,-9.605537414550781,-2.094926595687866,0.9648633003234863,3.204345703125,-5.218505859375,-2.593994140625
16.1499999,-9.564835548400879,-2.1787235736846924,1.094150185585022,4.791259765625,-3.7841796875,-3.2196044921875
16.1699999,-9.586383819580078,-2.2385785579681396,1.2617442607879639,4.94384765625,-0.9918212890625,-0.91552734375
16.1899999,-9.536105155944824,-2.2409727573394775,1.3838485479354858,3.9825439453125,-0.701904296875,1.7852783203125
16.2099999,-9.555258750915527,-2.1571757793426514,1.4676456451416016,0.152587890625,1.953125,1.64794921875
16.2299999,-9.57201862335205,-1.9776105880737305,1.5059528350830078,-5.3253173828125,2.7618408203125,-3.0517578125
16.249999900000002,-9.636661529541016,-1.8387469053268433,1.5322890281677246,-10.3912353515625,2.5177001953125,-4.5318603515625
16.269999900000002,-9.720458984375,-1.8315643072128296,1.4772224426269531,-13.519287109375,1.556396484375,-2.593994140625
16.2899999,-9.694122314453125,-1.9632453918457031,1.3000515699386597,-11.9476318359375,4.425048828125,-3.2501220703125
16.3099999,-9.627084732055664,-2.2146365642547607,1.0606313943862915,-1.190185546875,5.4779052734375,-4.7149658203125
16.3299999,-9.5624418258667,-2.454056739807129,0.8188169598579407,7.7972412109375,2.3345947265625,-4.5013427734375
16.3499999,-9.593565940856934,-2.609679937362671,0.6799532771110535,10.040283203125,0.7781982421875,-2.5482177734375
16.3699999,-9.672574996948242,-2.6455929279327393,0.6703764796257019,10.2386474609375,2.86865234375,-0.396728515625
16.3899999,-9.691728591918945,-2.5522189140319824,0.7613561153411865,9.2926025390625,2.7008056640625,1.64794921875
16.4099999,-9.713275909423828,-2.3582887649536133,0.8427590131759644,6.3323974609375,0.213623046875,0.6866455078125
16.429999900000002,-9.720458984375,-2.1715409755706787,0.8906430602073669,4.058837890625,-2.685546875,-1.9683837890625
16.4499999,-9.768342971801758,-2.0183119773864746,0.8882488012313843,0.4425048828125,-3.5858154296875,-5.9661865234375
16.4699999,-9.782708168029785,-1.9632453918457031,0.8523358106613159,-1.5106201171875,-5.9661865234375,-6.622314453125
16.4899999,-9.75637149810791,-2.027888774871826,0.7996633648872375,-0.1068115234375,-8.209228515625,-5.5389404296875
16.5099999,-9.674968719482422,-2.1499931812286377,0.8140285611152649,3.1890869140625,-9.2926025390625,-5.9356689453125
16.5299999,-9.600749015808105,-2.3127987384796143,0.8954314589500427,2.899169921875,-6.5765380859375,-4.852294921875
16.5499999,-9.576807022094727,-2.432508945465088,1.1180921792984009,-0.9613037109375,-5.218505859375,-1.8463134765625
16.5699999,-9.591172218322754,-2.5115175247192383,1.3958195447921753,-3.387451171875,-4.57763671875,-0.3509521484375
16.589999900000002,-9.581595420837402,-2.542642116546631,1.6855180263519287,-3.662109375,-2.410888671875,-0.2593994140625
16.609999900000002,-9.5624418258667,-2.6168625354766846,1.8315643072128296,-3.5552978515625,1.4801025390625,-0.152587890625
16.6299999,-9.569623947143555,-2.604891538619995,1.8746598958969116,-3.11279296875,2.8533935546875,1.800537109375
16.6499999,-9.576807022094727,-2.607285737991333,1.8579005002975464,-6.622314453125,3.11279296875,3.0517578125
16.6699999,-9.586383819580078,-2.4803929328918457,1.800439715385437,-14.6942138671875,5.889892578125,2.838134765625
16.6899999,-9.615114212036133,-2.3032219409942627,1.721431016921997,-19.53125,9.7808837890625,2.4261474609375
16.7099999,-9.639056205749512,-2.145204782485962,1.5610195398330688,-20.111083984375,9.0484619140625,3.204345703125
16.7299999,-9.643844604492188,-2.056619167327881,1.292868971824646,-18.61572265625,4.9896240234375,2.74658203125
16.749999900000002,-9.6989107131958,-2.049436569213867,0.9768342971801758,-15.0146484375,2.4871826171875,0.5340576171875
16.769999900000002,-9.718064308166504,-2.1284453868865967,0.7110779285430908,-9.6282958984375,1.6021728515625,-2.166748046875
16.7899999,-9.72285270690918,-2.255337953567505,0.5219359993934631,-4.7607421875,0.9765625,-2.5177001953125
16.8099999,-9.744400978088379,-2.38462495803833,0.4644751250743866,-3.2958984375,-0.6103515625,-1.434326171875
16.8299999,-9.72285270690918,-2.477998733520508,0.5722141861915588,-5.340576171875,-0.732421875,-0.67138671875
16.8499999,-9.706093788146973,-2.513911724090576,0.7206547260284424,-8.7127685546875,-0.9002685546875,-0.4730224609375
16.8699999,-9.643844604492188,-2.516305923461914,0.9193734526634216,-10.55908203125,-0.1373291015625,-0.244140625
16.8899999,-9.648633003234863,-2.5282769203186035,1.0127472877502441,-6.7901611328125,0.5035400390625,1.0833740234375
16.9099999,-9.634267807006836,-2.5665841102600098,1.0055646896362305,-0.4730224609375,-1.220703125,2.960205078125
16.929999900000002,-9.655815124511719,-2.535459518432617,1.0007762908935547,1.28173828125,-2.166748046875,3.0975341796875
16.9499999,-9.66539192199707,-2.497152328491211,1.039083480834961,-0.79345703125,-3.570556640625,1.861572265625
16.9699999,-9.636661529541016,-2.387019157409668,1.1204863786697388,-4.45556640625,-0.2288818359375,0.7171630859375
16.9899999,-9.617507934570312,-2.319981336593628,1.2330138683319092,-8.1024169921875,1.6021728515625,1.77001953125
17.0099999,-9.576807022094727,-2.205059766769409,1.290474772453308,-11.260986328125,1.4801025390625,1.312255859375
17.0299999,-9.59596061706543,-2.1332337856292725,1.359906554222107,-16.4947509765625,2.5634765625,-0.0762939453125
17.0499999,-9.603142738342285,-2.097320795059204,1.3742717504501343,-21.1944580078125,4.8828125,-0.457763671875
17.0699999,-9.653421401977539,-2.0685901641845703,1.3192051649093628,-16.6168212890625,5.6915283203125,-0.244140625
17.089999900000002,-9.739612579345703,-2.1811177730560303,1.070208191871643,-5.9051513671875,1.5716552734375,0.9765625
17.109999900000002,-9.758766174316406,-2.2146365642547607,0.8451532125473022,-0.091552734375,-1.8768310546875,-0.213623046875
17.1299999,-9.835380554199219,-2.31758713722229,0.5650315880775452,0.9307861328125,-3.0975341796875,-2.5787353515625
17.1499999,-9.806650161743164,-2.3918075561523438,0.47165772318840027,2.7313232421875,-3.1890869140625,-3.47900390625
17.1699999,-9.797073364257812,-2.389413356781006,0.5530605912208557,3.2196044921875,-3.60107421875,-2.532958984375
17.1899999,-9.710882186889648,-2.4851813316345215,0.6751648783683777,0.9918212890625,-4.2572021484375,-2.2125244140625
17.2099999,-9.677363395690918,-2.4444799423217773,0.8834604024887085,-0.701904296875,-2.7313232421875,-1.6632080078125
17.2299999,-9.600749015808105,-2.492363929748535,1.0654197931289673,-3.1280517578125,-2.197265625,-0.885009765625
17.249999900000002,-9.5624418258667,-2.47560453414917,1.2521674633026123,-7.1868896484375,-0.42724609375,0.396728515625
17.269999900000002,-9.560047149658203,-2.4420857429504395,1.3718775510787964,-9.674072265625,2.2430419921875,2.6092529296875
17.2899999,-9.593565940856934,-2.3774423599243164,1.4269442558288574,-12.39013671875,3.23486328125,2.3040771484375
17.3099999,-9.607931137084961,-2.315192937850952,1.3646949529647827,-15.0299072265625,3.3111572265625,0.91552734375
17.3299999,-9.639056205749512,-2.296039342880249,1.1875240802764893,-13.00048828125,1.6021728515625,0.6866455078125
17.3499999,-9.62947940826416,-2.365471363067627,1.0319008827209473,-8.1329345703125,0.762939453125,0.8392333984375
17.3699999,-9.670180320739746,-2.4157495498657227,0.8595184087753296,-5.7373046875,1.8157958984375,0.9307861328125
17.3899999,-9.670180320739746,-2.38462495803833,0.8595184087753296,-9.3994140625,1.89208984375,-0.244140625
17.409999900000003,-9.708487510681152,-2.365471363067627,0.9074024558067322,-16.1590576171875,2.410888671875,-0.4119873046875
17.429999900000002,-9.727641105651855,-2.1787235736846924,1.0127472877502441,-19.5770263671875,3.60107421875,-1.129150390625
17.4499999,-9.701305389404297,-2.2433669567108154,0.9672574996948242,-15.9912109375,3.5400390625,-3.0364990234375
17.4699999,-9.725247383117676,-2.3056161403656006,0.7996633648872375,-4.2877197265625,2.9449462890625,-3.326416015625
17.4899999,-9.765948295593262,-2.4851813316345215,0.47884035110473633,10.0555419921875,-0.4119873046875,-1.2359619140625
17.5099999,-9.794678688049316,-2.6360161304473877,0.20111294090747833,18.524169921875,-6.134033203125,0
17.5299999,-9.816226959228516,-2.695871114730835,0.10534487664699554,19.5159912109375,-7.6141357421875,-1.9073486328125
17.5499999,-9.794678688049316,-2.5929205417633057,0.2801215946674347,17.242431640625,-8.4381103515625,-2.7313232421875
17.5699999,-9.730035781860352,-2.5330653190612793,0.6607996821403503,8.544921875,-7.0648193359375,-1.0986328125
17.589999900000002,-9.636661529541016,-2.367865562438965,1.0654197931289673,-3.570556640625,-5.55419921875,-0.6561279296875
17.609999900000002,-9.624691009521484,-2.3989901542663574,1.3718775510787964,-7.659912109375,-3.90625,-1.9073486328125
17.6299999,-9.533711433410645,-2.3511061668395996,1.4652514457702637,-6.195068359375,-1.89208984375,-1.5869140625
17.6499999,-9.536105155944824,-2.4205379486083984,1.4724340438842773,-6.4544677734375,-1.800537109375,0.7476806640625
17.6699999,-9.50498104095459,-2.343923568725586,1.4484920501708984,-10.589599609375,0.30517578125,1.5716552734375
17.6899999,-9.555258750915527,-2.31758713722229,1.403002142906189,-14.95361328125,3.4942626953125,0.2593994140625
17.7099999,-9.557653427124023,-2.2002713680267334,1.357512354850769,-16.17431640625,3.2958984375,-0.7781982421875
17.7299999,-9.667786598205566,-2.229001760482788,1.2306196689605713,-14.2822265625,1.953125,-1.0833740234375
17.749999900000002,-9.655815124511719,-2.2864625453948975,0.9768342971801758,-6.683349609375,1.3275146484375,-2.777099609375
17.769999900000002,-9.713275909423828,-2.434903144836426,0.7829039692878723,3.35693359375,0.4119873046875,-4.9591064453125
17.7899999,-9.720458984375,-2.5234885215759277,0.6009446382522583,11.41357421875,0.48828125,-5.0048828125
17.8099999,-9.746794700622559,-2.626439332962036,0.5578489899635315,13.5955810546875,-1.2969970703125,-4.94384765625
17.8299999,-9.737217903137207,-2.5689783096313477,0.6368576288223267,10.0250244140625,-1.7242431640625,-5.0506591796875
17.8499999,-9.744400978088379,-2.542642116546631,0.8236053586006165,4.69970703125,-0.885009765625,-4.608154296875
17.8699999,-9.641449928283691,-2.403778553009033,1.1228805780410767,-5.9814453125,-0.2288818359375,-3.387451171875
17.8899999,-9.62947940826416,-2.403778553009033,1.335964560508728,-17.7764892578125,3.173828125,-2.166748046875
17.909999900000003,-9.579200744628906,-2.4396915435791016,1.4413094520568848,-19.7296142578125,4.1351318359375,-1.0986328125
17.929999900000002,-9.548076629638672,-2.626439332962036,1.314416766166687,-12.51220703125,2.197265625,0.7171630859375
17.9499999,-9.555258750915527,-2.786850690841675,1.0654197931289673,-2.1209716796875,0.5340576171875,1.5411376953125
17.9699999,-9.533711433410645,-2.894589900970459,0.849941611289978,3.875732421875,-1.739501953125,2.1514892578125
17.9899999,-9.555258750915527,-2.9089550971984863,0.7445967197418213,1.8310546875,-1.007080078125,3.1890869140625
18.0099999,-9.543288230895996,-2.8155810832977295,0.828393816947937,-3.35693359375,0.0762939453125,3.7689208984375
18.0299999,-9.588777542114258,-2.564189910888672,0.993593692779541,-2.3193359375,1.7547607421875,3.082275390625
18.0499999,-9.624691009521484,-2.4205379486083984,1.0199298858642578,-0.5340576171875,2.1820068359375,2.7923583984375
18.0699999,-9.655815124511719,-2.274491548538208,0.9600749015808105,-3.387451171875,1.220703125,1.3580322265625
18.089999900000002,-9.696516990661621,-2.1475989818573,0.9193734526634216,-5.2032470703125,0.30517578125,-1.5411376953125
18.109999900000002,-9.68933391571045,-2.1045033931732178,0.9481038451194763,-4.486083984375,-1.8157958984375,-3.6163330078125
18.1299999,-9.706093788146973,-2.2002713680267334,0.9169792532920837,-2.4261474609375,-0.5035400390625,-3.8909912109375
18.1499999,-9.679757118225098,-2.276885747909546,0.9744400978088379,-1.4495849609375,1.6632080078125,-4.4403076171875
18.1699999,-9.672574996948242,-2.470816135406494,0.8978256583213806,0.3509521484375,1.556396484375,-4.21142578125
18.1899999,-9.682151794433594,-2.5522189140319824,0.8834604024887085,4.5928955078125,-0.2288818359375,-4.1656494140625
18.2099999,-9.667786598205566,-2.5953147411346436,0.8475474119186401,6.439208984375,0.1983642578125,-2.5482177734375
18.2299999,-9.624691009521484,-2.6024973392486572,0.9528923034667969,3.4332275390625,-0.06103515625,-1.6021728515625
18.249999900000002,-9.605537414550781,-2.5953147411346436,1.039083480834961,0.06103515625,-0.152587890625,-2.0904541015625
18.269999900000002,-9.583989143371582,-2.6360161304473877,1.2114660739898682,-3.021240234375,1.1749267578125,-1.800537109375
18.2899999,-9.509769439697266,-2.7030537128448486,1.2210428714752197,-7.9345703125,2.8228759765625,-1.068115234375
18.3099999,-9.531316757202148,-2.760514497756958,1.1635819673538208,-10.650634765625,3.1890869140625,0.5645751953125
18.3299999,-9.47146224975586,-2.7748796939849854,0.9840168952941895,-6.7596435546875,1.0528564453125,0.9002685546875
18.3499999,-9.567230224609375,-2.7030537128448486,0.8092401623725891,-0.91552734375,0.8392333984375,2.3345947265625
18.3699999,-9.610325813293457,-2.6575639247894287,0.6177040338516235,1.89208984375,-2.349853515625,2.471923828125
18.3899999,-9.701305389404297,-2.5234885215759277,0.524330198764801,3.753662109375,-4.8065185546875,1.068115234375
18.409999900000003,-9.732429504394531,-2.535459518432617,0.5363011956214905,6.9122314453125,-5.4473876953125,-1.5716552734375
18.429999900000002,-9.749189376831055,-2.4636335372924805,0.6823474764823914,4.302978515625,-3.875732421875,-1.64794921875
18.4499999,-9.694122314453125,-2.4636335372924805,0.9720458984375,-6.2713623046875,-1.7852783203125,-0.7476806640625
18.4699999,-9.627084732055664,-2.454056739807129,1.2330138683319092,-15.0299072265625,-0.457763671875,1.1444091796875
18.4899999,-9.576807022094727,-2.492363929748535,1.45806884765625,-15.80810546875,2.655029296875,1.9989013671875
18.5099999,-9.5408935546875,-2.585737943649292,1.414973258972168,-12.39013671875,3.631591796875,3.692626953125
18.5299999,-9.548076629638672,-2.7102363109588623,1.2641384601593018,-4.5013427734375,1.6021728515625,3.753662109375
18.5499999,-9.557653427124023,-2.7269957065582275,1.0582371950149536,4.2266845703125,0.5035400390625,2.777099609375
18.5699999,-9.605537414550781,-2.655169725418091,0.9409212470054626,3.0670166015625,1.4801025390625,1.556396484375
18.589999900000002,-9.641449928283691,-2.4133553504943848,1.0007762908935547,-8.72802734375,3.8604736328125,-1.1749267578125
18.609999900000002,-9.679757118225098,-2.22660756111145,1.0630255937576294,-21.759033203125,4.3792724609375,-2.2735595703125
18.6299999,-9.68694019317627,-2.188300371170044,1.0654197931289673,-22.796630859375,5.340576171875,-3.3721923828125
18.6499999,-9.72285270690918,-2.360682964324951,0.8475474119186401,-7.6904296875,2.960205078125,-1.5869140625
18.6699999,-9.674968719482422,-2.6599581241607666,0.5602431893348694,10.406494140625,-1.46484375,-1.77001953125
18.6899999,-9.744400978088379,-2.873042106628418,0.363918662071228,20.8587646484375,-5.31005859375,-0.6256103515625
18.7099999,-9.677363395690918,-2.9041666984558105,0.4429273009300232,13.397216796875,-4.1046142578125,-0.091552734375
18.7299999,-9.643844604492188,-2.782062292098999,0.7182605266571045,-5.096435546875,-0.396728515625,-0.213623046875
18.749999900000002,-9.569623947143555,-2.583343744277954,1.1109095811843872,-14.8162841796875,2.38037109375,0.4119873046875
18.769999900000002,-9.488221168518066,-2.451662540435791,1.3000515699386597,-16.9525146484375,1.6632080078125,2.38037109375
18.7899999,-9.533711433410645,-2.3965959548950195,1.3958195447921753,-14.7857666015625,2.288818359375,2.7923583984375
18.8099999,-9.583989143371582,-2.4851813316345215,1.1348515748977661,-12.26806640625,1.007080078125,3.0670166015625
18.8299999,-9.624691009521484,-2.492363929748535,0.9361328482627869,-6.0577392578125,-2.44140625,1.190185546875
18.8499999,-9.701305389404297,-2.5737667083740234,0.6823474764823914,0.823974609375,-2.044677734375,1.2664794921875
18.8699999,-9.677363395690918,-2.4899697303771973,0.6392518281936646,-1.5106201171875,-1.800537109375,-0.457763671875
18.8899999,-9.679757118225098,-2.382230758666992,0.7924807667732239,-11.2762451171875,0.4119873046875,-1.03759765625
18.909999900000003,-9.600749015808105,-2.2912509441375732,1.0079588890075684,-21.8353271484375,1.129150390625,-1.312255859375
18.929999900000002,-9.600749015808105,-2.315192937850952,1.0869675874710083,-22.9949951171875,5.8441162109375,-2.2430419921875
18.9499999,-9.560047149658203,-2.5258827209472656,1.0295066833496094,-8.941650390625,3.84521484375,-0.9002685546875
18.9699999,-9.619902610778809,-2.7461493015289307,0.7829039692878723,3.7384033203125,1.40380859375,-0.5950927734375
18.9899999,-9.624691009521484,-2.9161376953125,0.608127236366272,13.1072998046875,-3.1585693359375,-0.1068115234375
19.0099999,-9.624691009521484,-2.8347349166870117,0.6512228846549988,8.270263671875,0.6103515625,0.3204345703125
19.0299999,-9.634267807006836,-2.671929121017456,0.8379706144332886,-12.420654296875,3.326416015625,-0.946044921875
19.0499999,-9.579200744628906,-2.4013843536376953,1.1085153818130493,-28.9154052734375,5.1422119140625,-1.0223388671875
19.0699999,-9.591172218322754,-2.3558945655822754,1.1420341730117798,-32.6080322265625,4.45556640625,-0.091552734375
19.089999900000002,-9.636661529541016,-2.470816135406494,0.9433154463768005,-20.5841064453125,4.669189453125,1.068115234375
19.109999900000002,-9.674968719482422,-2.691082715988159,0.5003881454467773,-2.3956298828125,-0.8697509765625,2.2125244140625
19.1299999,-9.658209800720215,-2.9233202934265137,0.090979665517807,10.345458984375,-6.5155029296875,1.953125
19.1499999,-9.775525093078613,-2.956839084625244,-0.043095629662275314,13.336181640625,-7.0037841796875,2.3956298828125
19.1699999,-9.703699111938477,-2.760514497756958,0.14365209639072418,2.899169921875,-3.631591796875,1.0833740234375
19.1899999,-9.710882186889648,-2.516305923461914,0.5482721924781799,-16.143798828125,-2.74658203125,0.7781982421875
19.2099999,-9.615114212036133,-2.2649147510528564,1.0534487962722778,-30.7159423828125,-2.6092529296875,0.91552734375
19.2299999,-9.612719535827637,-2.2697031497955322,1.2713210582733154,-36.2701416015625,1.861572265625,2.86865234375
19.249999900000002,-9.560047149658203,-2.3965959548950195,1.2090718746185303,-23.7579345703125,1.8157958984375,2.044677734375
19.269999900000002,-9.651026725769043,-2.6144683361053467,0.912190854549408,-4.8828125,-0.8544921875,1.4495849609375
19.2899999,-9.622296333312988,-2.8155810832977295,0.47644615173339844,9.368896484375,-5.462646484375,-0.1983642578125
19.3099999,-9.68694019317627,-2.8203697204589844,0.3280056416988373,13.092041015625,-2.8839111328125,3.448486328125
19.3299999,-9.641449928283691,-2.7030537128448486,0.40701428055763245,-0.1983642578125,-1.4190673828125,1.6326904296875
19.3499999,-9.672574996948242,-2.470816135406494,0.7757213711738586,-20.2484130859375,-1.89208984375,1.7852783203125
19.3699999,-9.612719535827637,-2.255337953567505,1.1061211824417114,-36.1480712890625,-0.4730224609375,0.67138671875
19.3899999,-9.66299819946289,-2.161964178085327,1.2617442607879639,-40.435791015625,3.448486328125,4.08935546875
19.409999900000003,-9.63187313079834,-2.3367409706115723,1.0462661981582642,-27.7099609375,-0.42724609375,2.9449462890625
19.429999900000002,-9.737217903137207,-2.6839001178741455,0.5937620401382446,-10.162353515625,-3.692626953125,1.922607421875
19.4499999,-9.732429504394531,-2.937685489654541,0.15083470940589905,8.3465576171875,-7.354736328125,0.5035400390625
19.4699999,-9.749189376831055,-2.9496564865112305,-0.0071826050989329815,13.702392578125,-5.7220458984375,5.5694580078125
19.4899999,-9.679757118225098,-2.7509377002716064,0.13168109953403473,-5.828857421875,-6.0577392578125,2.7313232421875
19.5099999,-9.677363395690918,-2.365471363067627,0.608127236366272,-25.08544921875,-6.256103515625,0.030517578125
19.5299999,-9.634267807006836,-2.145204782485962,0.9361328482627869,-32.745361328125,-3.72314453125,-0.6256103515625
19.5499999,-9.636661529541016,-2.229001760482788,1.015141487121582,-25.604248046875,-2.01416015625,3.509521484375
19.5699999,-9.63187313079834,-2.5498247146606445,0.7445967197418213,2.0751953125,-6.195068359375,2.0294189453125
19.589999900000002,-9.655815124511719,-2.8419175148010254,0.3758896589279175,29.5867919921875,-8.8958740234375,1.708984375
19.609999900000002,-9.68694019317627,-2.9472622871398926,0.28969839215278625,40.0543212890625,-10.43701171875,0.1983642578125
19.6299999,-9.708487510681152,-2.671929121017456,0.49559974670410156,16.17431640625,-5.4473876953125,3.60107421875
19.6499999,-9.66299819946289,-2.276885747909546,1.0534487962722778,-17.02880859375,-2.44140625,0.4425048828125
19.6699999,-9.59835433959961,-1.8626888990402222,1.6519991159439087,-32.2418212890625,-1.52587890625,-0.823974609375
19.6899999,-9.600749015808105,-1.8698714971542358,1.8171991109848022,-39.2913818359375,4.5928955078125,-0.54931640625
19.7099999,-9.531316757202148,-2.070984363555908,1.7597382068634033,-24.23095703125,6.378173828125,2.410888671875
19.7299999,-9.579200744628906,-2.5258827209472656,1.216254472732544,-2.5634765625,2.3651123046875,2.1514892578125
19.749999900000002,-9.583989143371582,-2.9233202934265137,0.6536170840263367,12.054443359375,0.48828125,1.6632080078125
19.769999900000002,-9.667786598205566,-2.9903578758239746,0.28730419278144836,25.2227783203125,0.3662109375,1.7547607421875
19.7899999,-9.746794700622559,-2.8155810832977295,0.22026655077934265,14.2669677734375,0.7781982421875,3.204345703125
19.8099999,-9.725247383117676,-2.33913516998291,0.5386953949928284,-10.6048583984375,0.3662109375,-0.4730224609375
19.8299999,-9.770736694335938,-1.9081788063049316,1.0079588890075684,-26.2603759765625,2.6397705078125,-2.86865234375
19.8499999,-9.713275909423828,-1.8363527059555054,1.2449848651885986,-34.0118408203125,5.5084228515625,-3.143310546875
19.8699999,-9.684545516967773,-1.9488801956176758,1.280897855758667,-23.6358642578125,5.55419921875,-2.4871826171875
19.8899999,-9.636661529541016,-2.3558945655822754,1.01753568649292,-6.9580078125,1.2359619140625,-3.1280517578125
19.909999900000003,-9.619902610778809,-2.6455929279327393,0.7254431247711182,-1.2054443359375,1.4495849609375,-1.800537109375
19.929999900000002,-9.564835548400879,-2.7724854946136475,0.6248866319656372,-2.1514892578125,2.4566650390625,-0.1678466796875
19.9499999,-9.588777542114258,-2.626439332962036,0.7230489253997803,-17.8985595703125,4.5166015625,1.251220703125
19.9699999,-9.63187313079834,-2.5067291259765625,0.849941611289978,-36.6058349609375,4.5166015625,-0.3509521484375
19.9899999,-9.643844604492188,-2.3511061668395996,0.9385270476341248,-36.224365234375,5.18798828125,-0.2288818359375
20.0099999,-9.684545516967773,-2.4372973442077637,0.7589619159698486,-27.6947021484375,3.2196044921875,2.44140625
20.0299999,-9.68694019317627,-2.6192567348480225,0.4668693244457245,-15.6707763671875,1.739501953125,2.197265625
20.0499999,-9.679757118225098,-2.8227639198303223,0.1149216815829277,2.86865234375,-0.7171630859375,-1.1138916015625
20.0699999,-9.715670585632324,-2.7892448902130127,0.06224924325942993,9.9945068359375,-0.8392333984375,0.6866455078125
20.089999900000002,-9.591172218322754,-2.343923568725586,0.5889736413955688,-9.429931640625,-0.54931640625,0.9918212890625
20.109999900000002,-9.567230224609375,-1.482010841369629,1.7118542194366455,-77.423095703125,7.4005126953125,2.838134765625
20.1299999,-9.397241592407227,-0.37828385829925537,3.1675288677215576,-181.182861328125,20.9808349609375,0.8697509765625
