# Time (seconds),Accel_X,Accel_Y,Accel_Z,Gyro_X,Gyro_Y,Gyro_Z
0.0099999,-9.720458984375,1.601720929145813,0.6847416758537292,-21.575927734375,33.14208984375,-23.13232421875
0.029999900000000003,-9.710882186889648,1.3431471586227417,0.545877993106842,-21.514892578125,35.2935791015625,-30.3955078125
0.0499999,-9.763554573059082,0.9624691009521484,0.3016694188117981,-17.76123046875,32.2113037109375,-29.7088623046875
0.0699999,-9.864110946655273,0.49559974670410156,0,-14.2822265625,26.6265869140625,-23.92578125
0.08999990000000001,-10.000580787658691,0.06464344263076782,-0.29209262132644653,-12.5732421875,20.538330078125,-14.617919921875
0.10999990000000001,-10.146626472473145,-0.19632454216480255,-0.47884035110473633,-10.772705078125,13.73291015625,0.2899169921875
0.1299999,-10.244789123535156,-0.24181437492370605,-0.5913678407669067,-9.063720703125,5.9661865234375,16.754150390625
0.14999990000000002,-10.287884712219238,-0.021547814831137657,-0.6272808313369751,-8.6822509765625,-2.532958984375,29.9530029296875
0.1699999,-10.266336441040039,0.3902548849582672,-0.6320692300796509,-8.4381103515625,-9.4757080078125,38.8336181640625
0.1899999,-10.146626472473145,1.0247182846069336,-0.5889736413955688,-7.4920654296875,-12.054443359375,37.6129150390625
0.20999990000000002,-10.017339706420898,1.7046716213226318,-0.5315127968788147,-8.4991455078125,-13.092041015625,27.740478515625
0.2299999,-9.852140426635742,2.3582887649536133,-0.4405331015586853,-12.26806640625,-12.4359130859375,15.6402587890625
0.2499999,-9.732429504394531,2.873042106628418,-0.2753331959247589,-17.2576904296875,-10.6048583984375,6.927490234375
0.2699999,-9.653421401977539,3.1244332790374756,-0.08858546614646912,-22.1710205078125,-8.1329345703125,0.0457763671875
0.28999990000000003,-9.617507934570312,3.07415509223938,0.08858546614646912,-24.0936279296875,-6.134033203125,-6.3934326171875
0.3099999,-9.639056205749512,2.7533318996429443,0.2082955539226532,-20.599365234375,-5.157470703125,-11.41357421875
0.3299999,-9.696516990661621,2.2864625453948975,0.33279404044151306,-12.87841796875,-4.425048828125,-13.4735107421875
0.34999990000000003,-9.761159896850586,1.7357962131500244,0.4118026793003082,-9.33837890625,-2.105712890625,-13.18359375
0.3699999,-9.828198432922363,1.192312479019165,0.43095630407333374,-9.8876953125,0.244140625,-11.0321044921875
0.3899999,-9.888052940368652,0.7158663272857666,0.395043283700943,-11.688232421875,0.274658203125,-5.340576171875
0.40999990000000003,-9.945513725280762,0.36152446269989014,0.3471592366695404,-14.9688720703125,0.2288818359375,1.40380859375
0.4299999,-9.955090522766113,0.2106897532939911,0.26096799969673157,-18.9208984375,1.5716552734375,4.94384765625
0.4499999,-10.014945983886719,0.10534487664699554,0.08379705995321274,-17.3492431640625,2.0904541015625,6.28662109375
0.4699999,-10.017339706420898,0.1867477297782898,-0.090979665517807,-6.0577392578125,-3.0670166015625,9.7808837890625
0.4899999,-10.041281700134277,0.43335050344467163,-0.35913026332855225,7.568359375,-9.3841552734375,10.5438232421875
0.5099999,-10.079588890075684,0.7805097699165344,-0.6057330369949341,16.7694091796875,-14.373779296875,7.5531005859375
0.5299999,-10.005369186401367,1.2832920551300049,-0.6919242739677429,19.59228515625,-17.4407958984375,4.3182373046875
0.5499999,-10.002974510192871,1.800439715385437,-0.6272808313369751,15.0604248046875,-18.646240234375,2.13623046875
0.5699999,-9.897629737854004,2.276885747909546,-0.31124621629714966,4.180908203125,-23.37646484375,-3.0975341796875
0.5899998999999999,-9.792284965515137,2.3535003662109375,0.15083470940589905,-6.7596435546875,-18.24951171875,-10.31494140625
0.6099998999999999,-9.710882186889648,2.410961151123047,0.5913678407669067,-9.5672607421875,-7.080078125,-15.7470703125
0.6299999,-9.605537414550781,2.0661959648132324,1.1252747774124146,-6.6986083984375,-2.01416015625,-16.387939453125
0.6499999,-9.593565940856934,1.778891921043396,1.2976573705673218,-8.4381103515625,0.1068115234375,-9.521484375
0.6699999,-9.593565940856934,1.3000515699386597,1.482010841369629,-10.1470947265625,6.34765625,-7.4005126953125
0.6899999,-9.66539192199707,1.0223240852355957,1.3192051649093628,-10.284423828125,5.950927734375,-5.55419921875
0.7099999,-9.770736694335938,0.6200982332229614,1.1420341730117798,-10.4827880859375,2.6702880859375,-3.1890869140625
0.7299998999999999,-9.895236015319824,0.43335050344467163,0.706289529800415,-6.4239501953125,4.180908203125,-5.8135986328125
0.7499998999999999,-9.95748519897461,0.2106897532939911,0.3926490843296051,0.885009765625,4.6234130859375,-4.2724609375
0.7699999,-10.053253173828125,0.33997663855552673,0.19393034279346466,2.4261474609375,2.6092529296875,3.936767578125
0.7899999,-10.022128105163574,0.45250412821769714,0.10295066982507706,-14.34326171875,6.53076171875,10.101318359375
0.8099999,-9.995792388916016,0.8834604024887085,0.15083470940589905,-23.5443115234375,6.89697265625,7.476806640625
0.8299999,-10.022128105163574,1.1540051698684692,0.20350714027881622,-15.533447265625,-0.9765625,-3.5858154296875
0.8499998999999999,-10.053253173828125,1.3215993642807007,-0.09816227108240128,-3.47900390625,-4.39453125,-4.913330078125
0.8699998999999999,-10.103530883789062,1.2761094570159912,-0.24660277366638184,14.8162841796875,-11.77978515625,-3.814697265625
0.8899999,-10.11789608001709,1.2306196689605713,-0.42856210470199585,29.72412109375,-19.7906494140625,-3.23486328125
0.9099999,-10.031704902648926,1.237802267074585,-0.33758243918418884,18.49365234375,-14.862060546875,-1.922607421875
0.9299999,-9.96945571899414,1.1994950771331787,0.043095629662275314,3.2501220703125,-11.3983154296875,-1.007080078125
0.9499999,-9.852140426635742,1.3096283674240112,0.4596867263317108,-0.48828125,-13.8092041015625,-6.3934326171875
0.9699998999999999,-9.821015357971191,1.1851298809051514,0.8906430602073669,0.823974609375,-13.24462890625,-8.087158203125
0.9899998999999999,-9.801861763000488,1.0199298858642578,1.1971008777618408,2.9449462890625,-2.2125244140625,-4.5166015625
1.0099999,-9.799467086791992,1.0199298858642578,1.359906554222107,3.8299560546875,0.4119873046875,-0.9918212890625
1.0299999,-9.780313491821289,1.0462661981582642,1.482010841369629,-3.4027099609375,2.0904541015625,2.197265625
1.0499999,-9.818621635437012,1.278503656387329,1.53707754611969,-11.77978515625,8.48388671875,1.15966796875
1.0699999,-9.849745750427246,1.6208745241165161,1.534683346748352,-27.4505615234375,11.9171142578125,-1.77001953125
1.0899999,-9.864110946655273,1.7884687185287476,1.556231141090393,-50.0335693359375,18.890380859375,-7.50732421875
1.1099999,-9.849745750427246,1.8052281141281128,1.3072341680526733,-62.92724609375,26.4892578125,-6.5155029296875
1.1299999,-10.256759643554688,1.1468225717544556,0.8427590131759644,-44.1131591796875,30.4718017578125,5.9661865234375
1.1499999,-10.122684478759766,0.49320554733276367,0.2513911724090576,-3.631591796875,8.7738037109375,4.119873046875
1.1699998999999999,-10.333374977111816,-0.35434186458587646,-0.26336219906806946,24.566650390625,-8.056640625,20.0347900390625
1.1899998999999999,-10.141838073730469,-0.706289529800415,-0.4381389021873474,39.12353515625,-12.298583984375,26.947021484375
1.2099999,-9.86889934539795,-0.5554547905921936,-0.2753331959247589,42.877197265625,-9.70458984375,25.390625
1.2299999,-9.706093788146973,0.002394201699644327,0.10773907601833344,36.2091064453125,-3.9215087890625,23.681640625
1.2499999,-9.610325813293457,0.790086567401886,0.4908113479614258,23.0865478515625,2.0751953125,20.599365234375
1.2699999,-9.59835433959961,1.577778935432434,0.7565677165985107,9.613037109375,7.659912109375,14.09912109375
1.2899999,-9.63187313079834,2.1284453868865967,0.8307880163192749,-0.762939453125,11.749267578125,6.317138671875
1.3099999,-9.696516990661621,2.365471363067627,0.727837324142456,-5.767822265625,13.0767822265625,2.0904541015625
1.3299999,-9.801861763000488,2.279279947280884,0.4908113479614258,-4.1046142578125,11.0931396484375,2.0599365234375
1.3499999,-9.931148529052734,1.644816517829895,-0.09816227108240128,10.5133056640625,0.9307861328125,2.1820068359375
1.3699999,-9.979032516479492,1.4532804489135742,-0.28730419278144836,14.34326171875,-3.143310546875,1.0528564453125
1.3899999,-9.998186111450195,1.4173674583435059,-0.3280056416988373,13.36669921875,-4.8828125,-0.7781982421875
1.4099999,-10.007762908935547,1.5107412338256836,-0.2585737705230713,9.2315673828125,-5.06591796875,-2.01416015625
1.4299998999999999,-10.02691650390625,1.6089035272598267,-0.09576806426048279,5.584716796875,-5.615234375,-2.6702880859375
1.4499999,-10.805032730102539,1.7836803197860718,0.043095629662275314,4.4097900390625,-6.072998046875,-4.180908203125
1.4699999,-11.487380027770996,1.6639702320098877,0.0933738648891449,7.2784423828125,-12.39013671875,-13.427734375
1.4899999,-12.72996997833252,1.7357962131500244,0.07900865375995636,15.93017578125,-27.7252197265625,-5.37109375
1.5099999,-13.467384338378906,1.5969325304031372,-0.05506663769483566,30.303955078125,-40.618896484375,-7.110595703125
1.5299999,-13.510479927062988,1.5658079385757446,-0.1364694982767105,44.4488525390625,-47.2564697265625,-16.6015625
1.5499999,-12.84968090057373,1.556231141090393,-0.11971008777618408,51.849365234375,-38.1011962890625,-24.658203125
1.5699999,-11.587936401367188,1.4891934394836426,0.05267243832349777,47.3785400390625,-23.3001708984375,-33.69140625
1.5899999,-9.974244117736816,1.3120225667953491,0.3926490843296051,35.980224609375,-15.3045654296875,-37.7044677734375
1.6099999,-8.336610794067383,1.0199298858642578,0.8236053586006165,24.6429443359375,-0.8392333984375,-33.1268310546875
1.6299999,-6.916848659515381,0.6703764796257019,1.2306196689605713,12.6190185546875,19.6380615234375,-27.5115966796875
1.6499999,-5.853823184967041,0.3447650372982025,1.522712230682373,-0.6561279296875,30.1666259765625,-26.55029296875
1.6699999,-5.25527286529541,0.14365209639072418,1.6136919260025024,-11.41357421875,25.8941650390625,-25.2532958984375
1.6899998999999999,-5.1595048904418945,0.10295066982507706,1.5131354331970215,-16.632080078125,18.61572265625,-17.974853515625
1.7099999,-5.492298603057861,0.17717093229293823,1.2952631711959839,-16.5252685546875,10.1165771484375,-6.6070556640625
1.7299999,-6.19379997253418,0.35434186458587646,1.0869675874710083,-13.7786865234375,-2.3345947265625,7.1258544921875
1.7499999,-7.187393665313721,0.6105214357376099,0.9696516990661621,-11.4288330078125,-12.0697021484375,20.4620361328125
1.7699999,-8.334216117858887,0.912190854549408,0.9720458984375,-10.3607177734375,-16.3421630859375,26.06201171875
1.7899999,-9.430760383605957,1.2186486721038818,1.091755986213684,-10.3607177734375,-20.99609375,24.59716796875
1.8099999,-10.359710693359375,1.522712230682373,1.2689268589019775,-12.8631591796875,-20.4925537109375,22.2015380859375
1.8299999,-10.977415084838867,1.7357962131500244,1.4221558570861816,-18.524169921875,-9.1400146484375,19.6533203125
1.8499999,-11.291055679321289,1.8507179021835327,1.4748282432556152,-24.1546630859375,5.4779052734375,16.3116455078125
1.8699999,-11.329362869262695,1.8579005002975464,1.3934253454208374,-27.2674560546875,16.265869140625,11.688232421875
1.8899999,-11.190498352050781,1.7477672100067139,1.170764684677124,-28.5797119140625,27.03857421875,7.2479248046875
1.9099999,-11.003750801086426,1.556231141090393,0.8403648138046265,-27.7557373046875,36.7431640625,6.3323974609375
1.9299998999999999,-10.845733642578125,1.3239935636520386,0.4572925269603729,-21.636962890625,33.7982177734375,5.6915283203125
1.9499999,-10.910377502441406,1.1109095811843872,0.09576806426048279,-11.383056640625,16.815185546875,4.5166015625
1.9699999,-10.975020408630371,0.8379706144332886,-0.23702596127986908,-2.0904541015625,0.8697509765625,-1.03759765625
1.9899999,-11.0300874710083,0.6823474764823914,-0.45489832758903503,6.8359375,-2.899169921875,-9.3231201171875
2.0099999,-10.967838287353516,0.5650315880775452,-0.5051765441894531,16.357421875,-7.2479248046875,-1.220703125
2.0299999,-10.663774490356445,0.5722141861915588,-0.43095630407333374,20.7366943359375,-13.275146484375,0.2288818359375
2.0499999,-10.357316970825195,0.689530074596405,-0.2106897532939911,20.1416015625,-14.58740234375,1.46484375
2.0699999,-10.06043529510498,0.8667010068893433,0.09576806426048279,17.5323486328125,-14.923095703125,1.03759765625
2.0899999,-9.852140426635742,1.094150185585022,0.47884035110473633,12.4664306640625,-13.153076171875,0.9002685546875
2.1099999,-9.725247383117676,1.2832920551300049,0.8236053586006165,4.302978515625,-8.4075927734375,1.52587890625
2.1299999,-9.696516990661621,1.4532804489135742,1.1204863786697388,-3.0517578125,-4.241943359375,0.396728515625
2.1499999,-9.68694019317627,1.5658079385757446,1.3311761617660522,-7.3394775390625,-1.9378662109375,-0.9002685546875
2.1699999,-9.679757118225098,1.6136919260025024,1.4532804489135742,-13.0462646484375,2.166748046875,-1.77001953125
2.1899999,-9.6989107131958,1.6208745241165161,1.482010841369629,-20.050048828125,8.514404296875,-3.6468505859375
2.2099999,-9.691728591918945,1.5490485429763794,1.4197616577148438,-22.4456787109375,11.6424560546875,-5.1422119140625
2.2299999,-9.727641105651855,1.4101848602294922,1.256955862045288,-18.1884765625,11.3067626953125,-4.1351318359375
2.2499999,-9.821015357971191,1.170764684677124,1.0414776802062988,-11.1236572265625,9.490966796875,-2.349853515625
2.2699999,-9.864110946655273,0.9576807022094727,0.790086567401886,-6.103515625,8.72802734375,-2.7618408203125
2.2899999,-9.955090522766113,0.8044517636299133,0.6344634294509888,-5.584716796875,7.720947265625,-2.0294189453125
2.3099999,-9.981427192687988,0.8212111592292786,0.5291185975074768,-5.4931640625,4.2877197265625,1.2359619140625
2.3299999,-9.979032516479492,0.790086567401886,0.47644615173339844,-6.256103515625,3.5400390625,-0.640869140625
2.3499999,-9.976638793945312,0.8451532125473022,0.42616790533065796,-3.021240234375,4.6234130859375,-4.2877197265625
2.3699999,-9.947908401489258,0.8786720037460327,0.28969839215278625,6.0577392578125,3.4637451171875,-4.0740966796875
2.3899999,-9.979032516479492,0.8331822156906128,0.1867477297782898,12.4053955078125,-1.4801025390625,-0.823974609375
2.4099999,-9.971850395202637,1.039083480834961,0.15562310814857483,10.498046875,-3.5247802734375,2.0599365234375
2.4299999,-10.017339706420898,1.1276689767837524,0.19393034279346466,3.9520263671875,-8.8958740234375,0.67138671875
2.4499999,-9.895236015319824,1.2737152576446533,0.363918662071228,-1.15966796875,-7.7362060546875,-6.4849853515625
2.4699999,-9.947908401489258,1.278503656387329,0.49320554733276367,-2.532958984375,-0.8697509765625,-6.1798095703125
2.4899999,-9.840168952941895,1.2545616626739502,0.6033388376235962,-2.532958984375,-0.0152587890625,-3.9825439453125
2.5099999,-9.895236015319824,1.1468225717544556,0.6320692300796509,-2.7923583984375,-0.8697509765625,-0.0457763671875
2.5299999,-9.979032516479492,1.0199298858642578,0.6536170840263367,-2.349853515625,-8.23974609375,1.678466796875
2.5499999,-9.967061996459961,0.9097966551780701,0.6177040338516235,0.946044921875,-11.29150390625,1.6326904296875
2.5699999,-10.02691650390625,0.7493851184844971,0.6248866319656372,5.1422119140625,-8.9874267578125,-3.5247802734375
2.5899999,-9.938331604003906,0.6655880808830261,0.6607996821403503,8.056640625,-7.293701171875,-2.2430419921875
2.6099999,-9.923966407775879,0.6919242739677429,0.7422025203704834,4.9285888671875,-3.5858154296875,5.6610107421875
2.6299999,-9.80904483795166,0.8236053586006165,0.9409212470054626,-3.143310546875,0.0762939453125,4.974365234375
2.6499999,-9.758766174316406,1.0079588890075684,1.1563993692398071,-13.1378173828125,-0.1373291015625,5.43212890625
2.6699999,-9.684545516967773,1.2018892765045166,1.5107412338256836,-28.1524658203125,4.608154296875,5.7525634765625
2.6899999,-9.59596061706543,1.3479355573654175,1.6543933153152466,-39.5965576171875,16.6473388671875,2.25830078125
2.7099999,-9.533711433410645,1.3718775510787964,1.8124107122421265,-41.961669921875,26.4434814453125,3.47900390625
2.7299999,-9.643844604492188,1.3024457693099976,1.6927006244659424,-41.748046875,27.1453857421875,5.8135986328125
2.7499999,-9.703699111938477,1.1492167711257935,1.290474772453308,-36.0565185546875,26.275634765625,7.049560546875
2.7699999,-9.974244117736816,0.8667010068893433,0.7038952708244324,-17.6849365234375,17.7764892578125,8.36181640625
2.7899999,-10.146626472473145,0.7781155705451965,0.019153613597154617,9.1094970703125,-0.8392333984375,3.41796875
2.8099999,-10.278307914733887,0.6248866319656372,-0.6655880808830261,23.7884521484375,-8.60595703125,-0.1373291015625
2.8299999,-10.319009780883789,0.7422025203704834,-1.0079588890075684,27.7099609375,-11.1083984375,-2.01416015625
2.8499999,-10.261548042297363,0.9552865028381348,-0.9983820915222168,28.778076171875,-15.1519775390625,-0.7781982421875
2.8699999,-10.139444351196289,1.1492167711257935,-0.6512228846549988,21.453857421875,-15.625,3.4637451171875
2.8899999,-10.017339706420898,1.3838485479354858,-0.0933738648891449,8.880615234375,-12.02392578125,2.99072265625
2.9099999,-9.873687744140625,1.4413094520568848,0.49320554733276367,1.678466796875,-13.5040283203125,0.1983642578125
2.9299999,-9.794678688049316,1.414973258972168,0.912190854549408,4.8370361328125,-12.9852294921875,-0.701904296875
2.9499999,-9.727641105651855,1.280897855758667,1.139639973640442,11.5966796875,-8.8653564453125,-0.5340576171875
2.9699999,-9.725247383117676,1.170764684677124,1.170764684677124,16.1895751953125,-8.056640625,-2.3345947265625
2.9899999,-9.715670585632324,1.1252747774124146,1.216254472732544,14.404296875,-4.8370361328125,0.732421875
3.0099999,-9.739612579345703,1.1180921792984009,1.316810965538025,-1.129150390625,0.030517578125,7.080078125
3.0299999,-9.75637149810791,1.1971008777618408,1.4724340438842773,-21.0113525390625,10.68115234375,7.4920654296875
3.0499999,-9.715670585632324,1.2641384601593018,1.577778935432434,-28.0914306640625,8.880615234375,5.9814453125
3.0699999,-9.794678688049316,1.280897855758667,1.4173674583435059,-25.2685546875,8.331298828125,4.08935546875
3.0899999,-9.828198432922363,1.2497732639312744,1.094150185585022,-12.1612548828125,6.1492919921875,1.068115234375
3.1099999,-9.904812812805176,1.2042834758758545,0.689530074596405,1.068115234375,2.74658203125,-0.7171630859375
3.1299999,-10.014945983886719,1.1492167711257935,0.26575639843940735,10.101318359375,-0.8087158203125,2.7618408203125
3.1499999,-9.971850395202637,1.2617442607879639,0.181959331035614,11.7034912109375,-6.53076171875,3.570556640625
3.1699999,-9.96945571899414,1.3335703611373901,0.2322375625371933,1.9378662109375,-5.1116943359375,2.1514892578125
3.1899999,-9.859322547912598,1.4963760375976562,0.5410895943641663,-6.4697265625,-5.035400390625,1.953125
3.2099999,-9.828198432922363,1.5921441316604614,0.8834604024887085,-14.8468017578125,-1.8463134765625,-0.5950927734375
3.2299999,-9.763554573059082,1.580173134803772,1.235408067703247,-22.552490234375,6.378173828125,-4.6539306640625
3.2499999,-9.706093788146973,1.522712230682373,1.359906554222107,-23.1170654296875,12.054443359375,-4.5013427734375
3.2699999,-9.775525093078613,1.2976573705673218,1.2976573705673218,-12.3291015625,11.8408203125,-0.457763671875
3.2899999,-9.773131370544434,1.1180921792984009,1.0462661981582642,0.2593994140625,5.5389404296875,2.2735595703125
3.3099999,-9.897629737854004,0.9385270476341248,0.7206547260284424,8.8348388671875,-1.251220703125,0.8392333984375
3.3299999000000002,-10.010157585144043,0.8978256583213806,0.3878606855869293,12.1612548828125,-3.84521484375,1.3275146484375
3.3499999,-10.074800491333008,0.9888052940368652,0.272938996553421,12.6495361328125,-6.4697265625,2.1514892578125
3.3699999,-9.976638793945312,1.173158884048462,0.2825157940387726,4.669189453125,-5.79833984375,0.335693359375
3.3899999,-9.964667320251465,1.3072341680526733,0.5219359993934631,-0.885009765625,-4.150390625,-5.55419921875
3.4099999,-9.828198432922363,1.4532804489135742,0.7613561153411865,-2.9144287109375,0.640869140625,-6.4849853515625
3.4299999,-9.725247383117676,1.4987702369689941,1.0845733880996704,0.7781982421875,1.9378662109375,-4.0435791015625
3.4499999,-9.725247383117676,1.4772224426269531,1.259350061416626,-3.143310546875,6.3323974609375,-1.556396484375
3.4699999,-9.68933391571045,1.4676456451416016,1.5131354331970215,-10.4522705078125,11.627197265625,-1.495361328125
3.4899999,-9.732429504394531,1.4077905416488647,1.4867992401123047,-20.660400390625,18.4783935546875,0.762939453125
3.5099999,-9.792284965515137,1.2617442607879639,1.3623007535934448,-23.162841796875,17.3797607421875,0.5035400390625
3.5299999,-9.914389610290527,1.1180921792984009,0.8690952062606812,-9.5672607421875,7.0343017578125,-2.74658203125
3.5499999,-10.012551307678223,0.9648633003234863,0.43335050344467163,11.688232421875,-1.2969970703125,-0.5950927734375
3.5699999,-10.070012092590332,0.9193734526634216,-0.05506663769483566,18.6767578125,-3.0364990234375,-3.0517578125
3.5899999,-10.108319282531738,0.9576807022094727,-0.22744916379451752,17.63916015625,-6.6070556640625,-5.6304931640625
3.6099999,-10.019734382629395,1.1276689767837524,-0.16998831927776337,16.082763671875,-8.30078125,-5.9967041015625
3.6299999,-9.892841339111328,1.2617442607879639,0.16759411990642548,10.7269287109375,-4.5318603515625,-5.5084228515625
3.6499999,-9.816226959228516,1.4413094520568848,0.7398083209991455,-6.40869140625,1.03759765625,-3.814697265625
3.6699999,-9.684545516967773,1.5179238319396973,1.256955862045288,-30.7769775390625,14.007568359375,-1.28173828125
3.6899999,-9.706093788146973,1.4389152526855469,1.534683346748352,-35.980224609375,19.012451171875,0.4425048828125
3.7099999,-9.761159896850586,1.1683704853057861,1.3742717504501343,-20.2789306640625,9.09423828125,0.5340576171875
3.7299999,-9.955090522766113,0.849941611289978,0.768538773059845,2.3651123046875,-1.4495849609375,-1.8768310546875
3.7499999,-10.072406768798828,0.5889736413955688,0.1628057211637497,23.7274169921875,-12.8173828125,2.9449462890625
3.7699999,-10.153809547424316,0.586579442024231,-0.2849099934101105,26.458740234375,-16.4031982421875,-1.129150390625
3.7899999,-10.14902114868164,0.7206547260284424,-0.33279404044151306,20.3399658203125,-14.9993896484375,-4.2724609375
3.8099999,-9.923966407775879,1.0438719987869263,0.038307227194309235,10.040283203125,-12.3291015625,-1.800537109375
3.8299999000000002,-9.876082420349121,1.280897855758667,0.5003881454467773,-10.1318359375,-1.0833740234375,0.5340576171875
3.8499999,-9.75397777557373,1.414973258972168,0.9648633003234863,-17.8680419921875,-0.7476806640625,2.8839111328125
3.8699999,-9.758766174316406,1.4053963422775269,1.1276689767837524,-11.1541748046875,-3.7994384765625,2.227783203125
3.8899999,-9.780313491821289,1.192312479019165,1.0558429956436157,2.7618408203125,-6.9427490234375,1.800537109375
3.9099999,-9.804255485534668,1.0462661981582642,1.0031704902648926,14.2669677734375,-12.2833251953125,2.9754638671875
3.9299999,-9.761159896850586,0.9888052940368652,1.0223240852355957,5.4931640625,-7.110595703125,4.69970703125
3.9499999,-9.770736694335938,1.1444283723831177,1.2521674633026123,-10.8795166015625,2.777099609375,2.899169921875
3.9699999,-9.72285270690918,1.3551181554794312,1.4987702369689941,-29.1748046875,9.9029541015625,0.457763671875
3.9899999,-9.72285270690918,1.5107412338256836,1.6639702320098877,-38.7115478515625,14.1143798828125,-0.6103515625
4.0099999,-9.66299819946289,1.53707754611969,1.723825216293335,-36.0260009765625,16.937255859375,-1.800537109375
4.029999900000001,-9.730035781860352,1.3862427473068237,1.50355863571167,-29.571533203125,22.52197265625,-1.7852783203125
4.0499999,-9.734824180603027,1.256955862045288,1.37906014919281,-21.4996337890625,18.24951171875,2.38037109375
4.069999900000001,-9.806650161743164,1.0821791887283325,1.1300631761550903,-27.130126953125,22.2625732421875,4.21142578125
4.0899999000000005,-9.96945571899414,0.9576807022094727,0.7661445140838623,-31.7230224609375,25.1312255859375,4.5928955078125
4.1099999,-10.000580787658691,0.849941611289978,0.4429273009300232,-19.8211669921875,17.6544189453125,4.150390625
4.1299999000000005,-10.153809547424316,0.7493851184844971,-0.181959331035614,1.5869140625,4.5623779296875,3.0670166015625
4.1499999,-10.268731117248535,0.7374141216278076,-0.790086567401886,31.0821533203125,-12.6800537109375,0.274658203125
4.1699999000000005,-10.280701637268066,0.8786720037460327,-1.1994950771331787,53.497314453125,-27.7252197265625,-2.105712890625
4.1899999,-10.256759643554688,1.2114660739898682,-1.192312479019165,52.8717041015625,-34.66796875,-9.1552734375
4.209999900000001,-10.096348762512207,1.53707754611969,-0.6320692300796509,36.31591796875,-27.7557373046875,-13.031005859375
4.2299999,-9.840168952941895,1.843535304069519,0.31364041566848755,14.70947265625,-15.9149169921875,-14.2059326171875
4.249999900000001,-9.682151794433594,1.7717092037200928,1.235408067703247,0.67138671875,-4.669189453125,-11.29150390625
4.2699999,-9.528923034667969,1.5490485429763794,1.9536685943603516,-5.9356689453125,4.119873046875,-7.4462890625
4.289999900000001,-9.59596061706543,1.0558429956436157,2.126051187515259,-3.9825439453125,8.209228515625,-3.47900390625
4.3099999,-9.660603523254395,0.6799532771110535,1.9584569931030273,2.6092529296875,4.4097900390625,2.38037109375
4.329999900000001,-9.768342971801758,0.43095630407333374,1.601720929145813,4.180908203125,1.6326904296875,5.9814453125
4.3499999,-9.876082420349121,0.38546648621559143,1.1851298809051514,-2.9296875,4.9285888671875,7.32421875
4.369999900000001,-9.895236015319824,0.5267243981361389,0.8762778043746948,-8.026123046875,7.8277587890625,7.659912109375
4.3899999,-9.96945571899414,0.7398083209991455,0.6392518281936646,-4.302978515625,4.2877197265625,8.148193359375
4.409999900000001,-10.005369186401367,0.9481038451194763,0.3926490843296051,3.2958984375,-3.662109375,6.0882568359375
4.4299999,-10.0580415725708,1.1635819673538208,0.2059013396501541,10.2081298828125,-8.11767578125,2.349853515625
4.449999900000001,-10.031704902648926,1.3407529592514038,0.08379705995321274,13.031005859375,-12.1612548828125,0.42724609375
4.4699999,-9.995792388916016,1.6112977266311646,0.19871874153614044,9.58251953125,-13.3209228515625,-1.678466796875
4.489999900000001,-9.847352027893066,1.8148049116134644,0.47165772318840027,-1.2359619140625,-9.8114013671875,-7.1868896484375
4.5099999,-9.710882186889648,1.9776105880737305,0.9911994934082031,-16.3116455078125,-2.5482177734375,-9.1705322265625
4.529999900000001,-9.619902610778809,1.9488801956176758,1.479616641998291,-29.9224853515625,7.965087890625,-8.9111328125
4.5499999,-9.545681953430176,1.625662922859192,1.8076223134994507,-32.4554443359375,15.07568359375,-7.4615478515625
4.569999900000001,-9.667786598205566,1.1468225717544556,1.843535304069519,-24.658203125,18.37158203125,-4.3792724609375
4.5899999000000005,-9.775525093078613,0.586579442024231,1.4844050407409668,-10.0250244140625,14.4805908203125,0.1068115234375
4.609999900000001,-9.964667320251465,0.1843535304069519,0.871489405632019,7.2174072265625,6.1187744140625,2.9754638671875
4.6299999000000005,-10.103530883789062,0.0071826050989329815,0.28969839215278625,20.7672119140625,-4.486083984375,5.31005859375
4.6499999,-10.17296314239502,0.1388636976480484,-0.1604115068912506,23.37646484375,-9.82666015625,5.767822265625
4.6699999000000005,-10.141838073730469,0.4572925269603729,-0.28969839215278625,22.7813720703125,-13.3056640625,4.364013671875
4.6899999,-10.120290756225586,0.8643068075180054,-0.1412578970193863,26.1993408203125,-18.5699462890625,2.532958984375
4.709999900000001,-10.012551307678223,1.235408067703247,0.12928688526153564,23.956298828125,-19.1802978515625,0.335693359375
4.7299999,-9.907206535339355,1.5705963373184204,0.608127236366272,15.7623291015625,-16.082763671875,-2.7618408203125
4.749999900000001,-9.840168952941895,1.7405846118927002,1.0319008827209473,5.401611328125,-11.3983154296875,-4.852294921875
4.7699999,-9.701305389404297,1.8626888990402222,1.4939818382263184,-4.3792724609375,-4.8675537109375,-6.3018798828125
4.789999900000001,-9.627084732055664,1.7764976024627686,1.7501614093780518,-12.054443359375,0.5340576171875,-6.77490234375
4.8099999,-9.603142738342285,1.5945383310317993,2.054224967956543,-18.00537109375,5.584716796875,-5.8135986328125
4.829999900000001,-9.488221168518066,1.359906554222107,2.2385785579681396,-27.16064453125,16.78466796875,-4.33349609375
4.8499999,-9.591172218322754,1.039083480834961,2.2649147510528564,-40.283203125,32.135009765625,-1.708984375
4.869999900000001,-9.564835548400879,0.8164227604866028,2.1763293743133545,-40.71044921875,34.9578857421875,3.9215087890625
4.8899999,-9.895236015319824,0.4644751250743866,0.8882488012313843,-13.580322265625,17.4713134765625,5.4779052734375
4.909999900000001,-10.105925559997559,0.4118026793003082,-0.05746084079146385,6.195068359375,5.0506591796875,4.9896240234375
4.9299999,-10.278307914733887,0.4381389021873474,-0.7733271718025208,30.33447265625,-10.8489990234375,2.3956298828125
4.949999900000001,-10.393229484558105,0.5363011956214905,-1.2306196689605713,41.8853759765625,-23.0255126953125,0.701904296875
4.9699999,-10.338163375854492,0.8092401623725891,-1.2713210582733154,43.243408203125,-28.045654296875,-2.105712890625
4.989999900000001,-10.220847129821777,1.158793568611145,-0.8762778043746948,40.2069091796875,-30.792236328125,-3.4637451171875
5.0099999,-9.955090522766113,1.556231141090393,-0.09816227108240128,26.9927978515625,-29.0985107421875,-5.584716796875
5.029999900000001,-9.737217903137207,1.8124107122421265,0.8786720037460327,9.9334716796875,-19.6533203125,-8.5906982421875
5.0499999,-9.490615844726562,1.941697597503662,2.0159177780151367,-7.62939453125,-4.4097900390625,-9.5367431640625
5.069999900000001,-9.349357604980469,1.745373010635376,2.889801502227783,-34.027099609375,16.6168212890625,-6.1492919921875
5.0899999000000005,-9.349357604980469,1.3742717504501343,3.3303346633911133,-48.3245849609375,31.707763671875,1.1138916015625
5.109999900000001,-9.464279174804688,0.9169792532920837,3.095702886581421,-40.8935546875,32.7606201171875,6.16455078125
5.1299999000000005,-9.706093788146973,0.42377370595932007,2.1595699787139893,-20.751953125,21.8353271484375,9.46044921875
5.1499999,-9.96945571899414,0.17717093229293823,0.9193734526634216,10.5438232421875,3.5858154296875,8.7127685546875
5.1699999000000005,-10.196905136108398,0.1388636976480484,-0.2561795711517334,36.68212890625,-14.6636962890625,7.32421875
5.1899999,-10.218452453613281,0.5123591423034668,-0.8619126081466675,40.863037109375,-20.69091796875,1.983642578125
5.209999900000001,-10.192116737365723,1.094150185585022,-0.7996633648872375,20.660400390625,-16.6168212890625,-1.861572265625
5.2299999,-9.971850395202637,1.7166426181793213,-0.11252748221158981,-10.0860595703125,-6.77490234375,-6.103515625
5.249999900000001,-9.725247383117676,2.1739351749420166,0.8738836050033569,-30.8074951171875,3.47900390625,-10.650634765625
5.2699999,-9.59596061706543,2.1547815799713135,1.556231141090393,-36.224365234375,15.960693359375,-11.6729736328125
5.289999900000001,-9.605537414550781,1.723825216293335,1.8531121015548706,-24.6429443359375,15.8538818359375,-6.134033203125
5.3099999,-9.674968719482422,1.0558429956436157,1.656787633895874,-4.241943359375,5.43212890625,0.0762939453125
5.329999900000001,-9.914389610290527,0.33997663855552673,0.9888052940368652,13.3056640625,-1.2359619140625,3.2806396484375
5.3499999,-10.010157585144043,-0.038307227194309235,0.4884171485900879,29.78515625,-10.7574462890625,5.401611328125
5.369999900000001,-10.067618370056152,-0.05985504388809204,0.18914192914962769,30.853271484375,-15.7318115234375,6.4849853515625
5.3899999,-9.967061996459961,0.395043283700943,0.36152446269989014,9.33837890625,-7.9498291015625,3.753662109375
5.409999900000001,-9.8784761428833,1.048660397529602,0.7972691655158997,-14.2364501953125,4.425048828125,3.6163330078125
5.4299999,-9.710882186889648,1.7621324062347412,1.3694833517074585,-32.5775146484375,10.284423828125,-4.5928955078125
5.449999900000001,-9.591172218322754,2.1284453868865967,1.821987509727478,-35.7208251953125,15.045166015625,-11.9476318359375
5.4699999,-9.57441234588623,2.1284453868865967,1.9608511924743652,-30.5328369140625,24.017333984375,-13.85498046875
5.489999900000001,-9.672574996948242,1.6735470294952393,1.8387469053268433,-22.8729248046875,25.93994140625,-8.026123046875
5.5099999,-9.77791976928711,1.0342950820922852,1.4963760375976562,-10.162353515625,22.613525390625,-1.46484375
5.529999900000001,-10.0580415725708,0.3256114423274994,0.7613561153411865,-4.2266845703125,21.4385986328125,5.157470703125
5.5499999,-10.204087257385254,-0.15801730751991272,0.023942016065120697,17.02880859375,5.8135986328125,8.5296630859375
5.569999900000001,-10.311826705932617,-0.2561795711517334,-0.7589619159698486,42.2821044921875,-12.8021240234375,6.1492919921875
5.5899999000000005,-10.362105369567871,0.026336219161748886,-1.2401964664459229,54.8248291015625,-24.0020751953125,3.0517578125
5.609999900000001,-10.177751541137695,0.6871358752250671,-1.1037269830703735,44.952392578125,-27.496337890625,-1.64794921875
5.6299999000000005,-10.014945983886719,1.3479355573654175,-0.4381389021873474,23.040771484375,-19.34814453125,-9.3231201171875
5.6499999,-9.727641105651855,1.9919757843017578,0.7350199222564697,-0.42724609375,-3.7689208984375,-8.3770751953125
5.6699999000000005,-9.481039047241211,2.2242133617401123,1.941697597503662,-31.9976806640625,16.11328125,-6.28662109375
5.6899999,-9.411606788635254,2.183511972427368,2.8347349166870117,-62.07275390625,35.9344482421875,-3.9215087890625
5.709999900000001,-9.3828763961792,1.7597382068634033,2.808398485183716,-72.32666015625,44.3572998046875,-0.2593994140625
5.7299999,-9.59596061706543,1.113303780555725,2.0877439975738525,-47.05810546875,29.8309326171875,4.8980712890625
5.749999900000001,-9.859322547912598,0.42616790533065796,0.8571242094039917,-10.009765625,5.126953125,5.706787109375
5.7699999,-10.230423927307129,0.09576806426048279,-0.4908113479614258,9.033203125,-4.39453125,3.23486328125
5.789999900000001,-10.44350814819336,0.19393034279346466,-1.1851298809051514,16.1285400390625,-14.9383544921875,8.148193359375
5.8099999,-10.474632263183594,0.5746083855628967,-1.2306196689605713,16.1895751953125,-22.2930908203125,-3.9215087890625
5.829999900000001,-10.3549222946167,1.0079588890075684,-0.7374141216278076,14.5721435546875,-13.916015625,-19.22607421875
5.8499999,-10.079588890075684,1.2306196689605713,0.1173158809542656,17.9901123046875,-3.0059814453125,-15.5029296875
5.869999900000001,-9.945513725280762,1.0678139925003052,0.950498104095459,18.6309814453125,0.54931640625,-2.1514892578125
5.8899999,-9.864110946655273,0.7805097699165344,1.4460978507995605,14.0533447265625,3.8604736328125,3.173828125
5.909999900000001,-10.031704902648926,0.4165911078453064,1.45806884765625,13.519287109375,1.64794921875,12.3291015625
5.9299999,-10.022128105163574,0.16998831927776337,1.1971008777618408,26.458740234375,-4.9591064453125,16.9525146484375
5.949999900000001,-10.096348762512207,0.1628057211637497,0.6823474764823914,31.1279296875,-9.0484619140625,21.881103515625
5.9699999,-9.983820915222168,0.38546648621559143,0.28730419278144836,26.5350341796875,-16.021728515625,16.66259765625
5.989999900000001,-9.84495735168457,0.7852981686592102,0.15801730751991272,23.6358642578125,-14.495849609375,8.270263671875
6.0099999,-9.737217903137207,1.1851298809051514,0.31124621629714966,18.8751220703125,-8.1634521484375,2.01416015625
6.029999900000001,-9.68933391571045,1.4413094520568848,0.6560112833976746,9.521484375,-2.5482177734375,2.3040771484375
6.0499999,-9.660603523254395,1.4700398445129395,1.0295066833496094,0.823974609375,2.9754638671875,4.82177734375
6.069999900000001,-10.038887977600098,1.436521053314209,1.2641384601593018,-1.7547607421875,6.6680908203125,6.6070556640625
6.0899999000000005,-11.065999984741211,1.3958195447921753,1.2258312702178955,1.7852783203125,5.035400390625,-3.387451171875
6.109999900000001,-12.090718269348145,1.4700398445129395,0.849941611289978,9.1705322265625,-2.349853515625,-22.491455078125
6.1299999000000005,-13.599065780639648,1.6879122257232666,0.2849099934101105,22.6593017578125,-4.7607421875,-24.505615234375
6.149999900000001,-14.322114944458008,1.8507179021835327,-0.26815059781074524,34.576416015625,-29.5867919921875,-45.806884765625
6.1699999000000005,-14.173673629760742,1.8291701078414917,-0.6224924325942993,41.748046875,-56.1065673828125,-70.892333984375
6.1899999,-13.144166946411133,1.5514427423477173,-0.5793967843055725,48.4161376953125,-41.900634765625,-64.2852783203125
6.209999900000001,-11.3269681930542,1.0821791887283325,-0.2298433631658554,49.98779296875,-14.617919921875,-35.888671875
6.2299999,-9.299078941345215,0.5722141861915588,0.2968810200691223,45.8221435546875,3.41796875,-12.3443603515625
6.249999900000001,-7.546523571014404,0.22026655077934265,0.8259995579719543,36.9720458984375,7.1868896484375,-2.5482177734375
6.2699999,-6.339846134185791,0.05746084079146385,1.280897855758667,26.3519287109375,4.94384765625,-1.678466796875
6.289999900000001,-5.726930618286133,0.040701430290937424,1.6400281190872192,14.2822265625,9.5367431640625,-2.0904541015625
6.3099999,-5.564124584197998,0.05746084079146385,1.8914192914962769,0.2288818359375,15.7928466796875,-2.0294189453125
6.329999900000001,-5.743690013885498,0.047884032130241394,2.0231003761291504,-12.4664306640625,18.463134765625,-1.28173828125
6.3499999,-6.184223175048828,0.014365210197865963,2.0183119773864746,-21.78955078125,21.575927734375,-1.3580322265625
6.369999900000001,-6.818686485290527,-0.06703764945268631,1.889025092124939,-27.130126953125,25.177001953125,-2.74658203125
6.3899999,-7.599195957183838,-0.14844051003456116,1.6687586307525635,-28.13720703125,22.1405029296875,1.46484375
6.409999900000001,-8.429984092712402,-0.19632454216480255,1.4221558570861816,-26.4434814453125,12.2528076171875,10.1470947265625
6.4299999,-9.220070838928223,-0.17477671802043915,1.2018892765045166,-23.651123046875,5.5694580078125,15.5181884765625
6.449999900000001,-9.883264541625977,-0.0454898327589035,1.048660397529602,-21.3775634765625,2.532958984375,16.11328125
6.4699999,-10.38604736328125,0.1843535304069519,0.9864110946655273,-21.728515625,0.762939453125,13.641357421875
6.489999900000001,-10.711658477783203,0.45010992884635925,0.9840168952941895,-25.0701904296875,3.2196044921875,9.6282958984375
6.5099999,-10.87446403503418,0.667982280254364,0.9959878921508789,-27.679443359375,8.8043212890625,5.9814453125
6.529999900000001,-10.8720703125,0.7972691655158997,0.9864110946655273,-27.2064208984375,9.82666015625,5.9356689453125
6.5499999,-10.754754066467285,0.8379706144332886,0.9361328482627869,-25.970458984375,7.1868896484375,8.087158203125
6.569999900000001,-10.54645824432373,0.8188169598579407,0.8307880163192749,-24.810791015625,6.439208984375,7.049560546875
6.5899999000000005,-10.29746150970459,0.7996633648872375,0.6991068720817566,-21.4996337890625,8.1634521484375,3.9215087890625
6.609999900000001,-10.062829971313477,0.7805097699165344,0.5674257874488831,-16.29638671875,10.5438232421875,4.6539306640625
6.6299999000000005,-9.916783332824707,0.7829039692878723,0.44532153010368347,-12.9547119140625,8.6517333984375,10.3759765625
6.649999900000001,-9.856928825378418,0.8020575642585754,0.3758896589279175,-12.4664306640625,-0.30517578125,14.2364501953125
6.6699999000000005,-9.880870819091797,0.8331822156906128,0.3687070608139038,-11.9171142578125,-7.1868896484375,12.87841796875
6.6899999,-10.000580787658691,0.8882488012313843,0.4141969084739685,-10.1318359375,-5.4931640625,9.5977783203125
6.709999900000001,-10.412383079528809,0.9169792532920837,0.47884035110473633,-8.758544921875,-0.8697509765625,2.410888671875
6.7299999,-10.66137981414795,0.9576807022094727,0.5171475410461426,-9.5672607421875,-2.960205078125,-9.8876953125
6.749999900000001,-10.948684692382812,0.9433154463768005,0.524330198764801,-10.4522705078125,-7.3394775390625,-3.448486328125
6.7699999,-10.939107894897461,0.9552865028381348,0.47165772318840027,-9.3536376953125,-1.2969970703125,2.9754638671875
6.789999900000001,-10.702081680297852,0.9193734526634216,0.40701428055763245,-6.77490234375,3.6468505859375,5.92041015625
6.8099999,-10.381258964538574,0.9074024558067322,0.33997663855552673,-4.6844482421875,1.3580322265625,6.0882568359375
6.829999900000001,-10.127472877502441,0.9050082564353943,0.2801215946674347,-6.195068359375,-2.105712890625,4.8675537109375
6.8499999,-9.940725326538086,0.8954314589500427,0.24660277366638184,-5.55419921875,-4.8828125,2.99072265625
6.869999900000001,-9.835380554199219,0.871489405632019,0.2537853717803955,-3.7841796875,-6.439208984375,2.4871826171875
6.8899999,-9.828198432922363,0.8786720037460327,0.3208230137825012,-3.326416015625,-7.6904296875,2.0751953125
6.909999900000001,-9.852140426635742,0.8427590131759644,0.44532153010368347,-2.044677734375,-9.1552734375,1.1138916015625
6.9299999,-9.871294021606445,0.8643068075180054,0.7158663272857666,0.6866455078125,-7.9193115234375,0.762939453125
6.949999900000001,-9.816226959228516,0.9313444495201111,1.0989385843276978,0.2593994140625,-2.655029296875,0.54931640625
6.9699999,-9.730035781860352,0.9720458984375,1.5729905366897583,-9.8876953125,6.16455078125,-0.5340576171875
6.989999900000001,-9.643844604492188,1.0319008827209473,2.051830768585205,-28.778076171875,18.829345703125,0.8544921875
7.0099999,-9.545681953430176,1.0127472877502441,2.3104045391082764,-43.1060791015625,28.2135009765625,6.6680908203125
7.029999900000001,-9.59596061706543,0.9816226959228516,2.2864625453948975,-49.8199462890625,32.40966796875,10.2386474609375
7.0499999,-9.627084732055664,0.8188169598579407,1.8962076902389526,-42.6177978515625,31.4788818359375,8.2855224609375
7.069999900000001,-9.749189376831055,0.6991068720817566,1.2090718746185303,-25.6805419921875,30.4107666015625,4.058837890625
7.0899999000000005,-9.981427192687988,0.6200982332229614,0.4692635238170624,-9.8114013671875,25.390625,6.4239501953125
7.109999900000001,-10.017339706420898,0.6991068720817566,-0.21308395266532898,-2.227783203125,20.6756591796875,6.0272216796875
7.1299999000000005,-10.196905136108398,0.8786720037460327,-0.7445967197418213,0.5340576171875,14.70947265625,-0.1220703125
7.149999900000001,-10.160991668701172,1.1037269830703735,-0.9433154463768005,1.922607421875,3.997802734375,-3.2196044921875
7.1699999000000005,-10.189722061157227,1.2665326595306396,-0.9792284965515137,1.9378662109375,-3.326416015625,-6.2103271484375
7.1899999,-10.113107681274414,1.2282254695892334,-0.8451532125473022,-2.3040771484375,-1.708984375,-9.6893310546875
7.209999900000001,-10.168174743652344,1.091755986213684,-0.6607996821403503,-1.0833740234375,-1.6021728515625,-6.9732666015625
7.2299999,-10.067618370056152,0.8738836050033569,-0.47405192255973816,5.31005859375,-5.859375,-3.265380859375
7.249999900000001,-10.101137161254883,0.6392518281936646,-0.33758243918418884,5.096435546875,-8.11767578125,2.197265625
7.2699999,-10.074800491333008,0.4908113479614258,-0.20350714027881622,3.7994384765625,-13.2598876953125,3.8299560546875
7.289999900000001,-10.0580415725708,0.38546648621559143,-0.07900865375995636,6.4239501953125,-19.2108154296875,5.06591796875
7.3099999,-10.038887977600098,0.4165911078453064,0.10055647045373917,8.11767578125,-19.59228515625,1.0833740234375
7.329999900000001,-10.014945983886719,0.4644751250743866,0.15322890877723694,9.1400146484375,-18.6004638671875,-1.129150390625
7.3499999,-9.964667320251465,0.6248866319656372,0.3711012601852417,10.7574462890625,-14.9688720703125,7.2021484375
7.369999900000001,-9.90241813659668,0.7996633648872375,0.5410895943641663,1.9073486328125,-11.0931396484375,9.6282958984375
7.3899999,-9.859322547912598,1.0079588890075684,0.7469909191131592,-9.9945068359375,-8.7432861328125,7.62939453125
7.409999900000001,-9.84256362915039,1.1468225717544556,0.9672574996948242,-15.07568359375,-9.70458984375,8.23974609375
7.4299999,-9.871294021606445,1.158793568611145,1.0079588890075684,-15.8843994140625,-11.505126953125,5.37109375
7.449999900000001,-9.856928825378418,1.1444283723831177,1.0079588890075684,-11.7034912109375,-8.7127685546875,-0.3204345703125
7.4699999,-9.892841339111328,0.9672574996948242,0.8571242094039917,-3.7689208984375,-6.65283203125,1.983642578125
7.489999900000001,-9.86650562286377,0.9265560507774353,0.8092401623725891,6.2103271484375,-6.1187744140625,7.354736328125
7.5099999,-9.86650562286377,0.9528923034667969,0.8236053586006165,7.354736328125,-5.889892578125,7.1563720703125
7.529999900000001,-9.864110946655273,1.039083480834961,0.8858546018600464,2.3040771484375,-4.82177734375,6.378173828125
7.5499999,-9.8784761428833,1.1300631761550903,1.1037269830703735,-1.4190673828125,-8.1939697265625,5.4473876953125
7.569999900000001,-9.792284965515137,1.1803414821624756,1.2521674633026123,-3.936767578125,-3.2958984375,1.9378662109375
7.5899999000000005,-9.749189376831055,1.1683704853057861,1.3407529592514038,-8.3770751953125,3.5858154296875,-2.9144287109375
7.609999900000001,-9.708487510681152,1.1109095811843872,1.338358759880066,-6.6680908203125,7.6141357421875,1.739501953125
7.6299999000000005,-9.710882186889648,1.1683704853057861,1.2713210582733154,-2.349853515625,5.5694580078125,4.058837890625
7.649999900000001,-9.782708168029785,1.173158884048462,1.1276689767837524,-4.21142578125,5.8746337890625,2.62451171875
7.6699999000000005,-9.8784761428833,1.3048399686813354,1.072602391242981,-10.1776123046875,5.5389404296875,2.1514892578125
7.6899999,-9.93354320526123,1.3311761617660522,0.9744400978088379,-14.739990234375,3.60107421875,-1.28173828125
7.709999900000001,-9.928754806518555,1.2856862545013428,0.8810662031173706,-11.0931396484375,4.180908203125,-5.67626953125
7.7299999,-9.909601211547852,1.1779472827911377,0.706289529800415,-4.791259765625,5.9661865234375,-4.150390625
7.749999900000001,-9.940725326538086,0.9792284965515137,0.4644751250743866,4.7149658203125,3.326416015625,1.251220703125
7.7699999,-9.962273597717285,0.8259995579719543,0.2968810200691223,12.8936767578125,-3.72314453125,2.6397705078125
7.789999900000001,-10.005369186401367,0.849941611289978,0.16998831927776337,15.045166015625,-8.0108642578125,1.2664794921875
7.8099999,-9.950302124023438,0.9289502501487732,0.2992752194404602,10.0860595703125,-9.9029541015625,1.5869140625
7.829999900000001,-9.849745750427246,1.161187767982483,0.5985504388809204,-2.0599365234375,-6.683349609375,2.0294189453125
7.8499999,-9.706093788146973,1.3694833517074585,1.0845733880996704,-21.514892578125,3.5247802734375,-4.82177734375
7.869999900000001,-9.62947940826416,1.5083470344543457,1.5155296325683594,-35.2935791015625,12.9852294921875,-4.058837890625
7.8899999,-9.655815124511719,1.4293384552001953,1.7357962131500244,-39.1845703125,19.744873046875,0.213623046875
7.909999900000001,-9.742006301879883,1.2473790645599365,1.5394717454910278,-29.815673828125,19.3634033203125,-0.30517578125
7.9299999,-9.947908401489258,0.8643068075180054,1.0223240852355957,-3.7689208984375,6.28662109375,1.8768310546875
7.949999900000001,-10.125079154968262,0.5530605912208557,0.24660277366638184,22.735595703125,-5.645751953125,4.058837890625
7.9699999,-10.261548042297363,0.3495534360408783,-0.3423708379268646,40.679931640625,-17.913818359375,3.997802734375
7.989999900000001,-10.311826705932617,0.35673606395721436,-0.730231523513794,48.88916015625,-28.350830078125,0.8392333984375
8.0099999,-10.235212326049805,0.6200982332229614,-0.6344634294509888,50.750732421875,-30.6549072265625,-2.4566650390625
8.0299999,-10.072406768798828,0.993593692779541,-0.19632454216480255,42.8619384765625,-29.47998046875,-3.4942626953125
8.049999900000001,-9.90241813659668,1.37906014919281,0.45010992884635925,29.144287109375,-21.575927734375,-6.2713623046875
8.069999900000001,-9.658209800720215,1.6543933153152466,1.2282254695892334,17.425537109375,-13.2904052734375,-6.866455078125
8.0899999,-9.569623947143555,1.7980455160140991,1.9369091987609863,6.103515625,-2.0751953125,-3.875732421875
8.1099999,-9.452308654785156,1.8291701078414917,2.4899697303771973,-8.636474609375,7.9345703125,-6.0272216796875
8.129999900000001,-9.442731857299805,1.7764976024627686,2.808398485183716,-24.9481201171875,14.58740234375,-2.7313232421875
8.149999900000001,-9.545681953430176,1.580173134803772,2.7054479122161865,-35.0799560546875,24.4293212890625,-2.2735595703125
8.1699999,-9.648633003234863,1.2880805730819702,2.274491548538208,-30.0445556640625,22.2320556640625,-0.0457763671875
8.1899999,-9.828198432922363,0.871489405632019,1.5083470344543457,-15.2130126953125,11.3983154296875,0.1373291015625
8.2099999,-10.014945983886719,0.5051765441894531,0.629675030708313,5.340576171875,2.7618408203125,-1.5869140625
8.229999900000001,-10.14902114868164,0.28730419278144836,-0.13168109953403473,25.726318359375,-7.3699951171875,-0.5035400390625
8.2499999,-10.201693534851074,0.2753331959247589,-0.5195417404174805,35.0341796875,-15.8843994140625,-0.335693359375
8.2699999,-10.199298858642578,0.5099649429321289,-0.5195417404174805,32.2418212890625,-17.822265625,-2.2735595703125
8.2899999,-10.06043529510498,0.8475474119186401,-0.0694318488240242,20.294189453125,-13.5955810546875,-2.471923828125
8.309999900000001,-9.859322547912598,1.2641384601593018,0.6344634294509888,3.997802734375,-3.3416748046875,-1.312255859375
8.3299999,-9.734824180603027,1.5873557329177856,1.3646949529647827,-12.51220703125,1.8768310546875,-1.434326171875
8.3499999,-9.524134635925293,1.7836803197860718,2.030282974243164,-28.2135009765625,10.0555419921875,-1.1138916015625
8.3699999,-9.5624418258667,1.7094600200653076,2.3056161403656006,-38.8946533203125,20.99609375,-1.2664794921875
8.389999900000001,-9.591172218322754,1.4700398445129395,2.2361843585968018,-35.6903076171875,22.3541259765625,-0.6256103515625
8.4099999,-9.739612579345703,1.0845733880996704,1.721431016921997,-19.95849609375,14.312744140625,-0.091552734375
8.4299999,-9.93354320526123,0.608127236366272,0.9409212470054626,2.7923583984375,3.448486328125,0.396728515625
8.4499999,-10.127472877502441,0.3519476354122162,0.19153612852096558,23.468017578125,-6.3934326171875,-1.5716552734375
8.469999900000001,-10.18493366241455,0.2537853717803955,-0.2777273952960968,31.219482421875,-14.6484375,0.701904296875
8.4899999,-10.20887565612793,0.4189853072166443,-0.35673606395721436,25.4974365234375,-14.2364501953125,-0.6103515625
8.5099999,-10.108319282531738,0.7637503147125244,0.05027823522686958,15.045166015625,-10.5133056640625,-2.227783203125
8.5299999,-9.93354320526123,1.113303780555725,0.6153098344802856,1.9683837890625,-2.99072265625,-2.471923828125
8.549999900000001,-9.792284965515137,1.4221558570861816,1.2425906658172607,-8.544921875,5.126953125,-1.8157958984375
8.569999900000001,-9.639056205749512,1.5658079385757446,1.699883222579956,-13.7481689453125,7.9803466796875,-1.434326171875
8.5899999,-9.603142738342285,1.4389152526855469,1.920149803161621,-22.0184326171875,15.5487060546875,-0.213623046875
8.6099999,-9.710882186889648,1.213860273361206,1.6711528301239014,-20.56884765625,14.8468017578125,0.0762939453125
8.629999900000001,-9.830592155456543,0.9528923034667969,1.1803414821624756,-11.1236572265625,8.880615234375,-0.06103515625
8.649999900000001,-10.034099578857422,0.6416460275650024,0.5482721924781799,4.5013427734375,-0.701904296875,2.0599365234375
8.6699999,-10.077195167541504,0.5602431893348694,-0.026336219161748886,19.71435546875,-8.4686279296875,-2.655029296875
8.6899999,-10.213664054870605,0.5386953949928284,-0.2825157940387726,26.2603759765625,-15.655517578125,-4.5928955078125
8.709999900000001,-10.079588890075684,0.7134721279144287,-0.2059013396501541,22.15576171875,-15.5792236328125,-3.1585693359375
8.729999900000001,-10.012551307678223,0.950498104095459,0.2753331959247589,10.833740234375,-10.284423828125,-5.035400390625
8.7499999,-9.832986831665039,1.173158884048462,0.9864110946655273,0,-3.936767578125,-3.997802734375
8.7699999,-9.682151794433594,1.237802267074585,1.5418659448623657,-16.0980224609375,8.48388671875,-2.7008056640625
8.7899999,-9.636661529541016,1.2330138683319092,1.9297266006469727,-20.1416015625,15.2740478515625,-0.5340576171875
8.809999900000001,-9.641449928283691,1.115697979927063,1.9943699836730957,-13.7176513671875,11.5509033203125,1.251220703125
8.8299999,-9.684545516967773,0.9840168952941895,1.7884687185287476,-15.68603515625,12.359619140625,3.0670166015625
8.8499999,-9.782708168029785,0.8834604024887085,1.5203180313110352,-20.6451416015625,16.1285400390625,2.9449462890625
8.8699999,-9.856928825378418,0.7996633648872375,1.1683704853057861,-21.7132568359375,16.4337158203125,2.777099609375
8.889999900000001,-9.888052940368652,0.7805097699165344,0.8643068075180054,-16.5557861328125,9.918212890625,2.5177001953125
8.9099999,-10.02452278137207,0.7086837291717529,0.4357447028160095,-10.406494140625,5.5999755859375,3.1280517578125
8.9299999,-10.031704902648926,0.7469909191131592,0.14604631066322327,0.640869140625,-0.42724609375,4.2572021484375
8.9499999,-10.089165687561035,0.8643068075180054,-0.05027823522686958,7.0343017578125,-6.683349609375,0.5645751953125
8.969999900000001,-10.105925559997559,0.9552865028381348,-0.047884032130241394,3.509521484375,-7.1563720703125,-3.41796875
8.9899999,-10.005369186401367,1.0965443849563599,0.14604631066322327,-1.434326171875,-5.4473876953125,-4.9591064453125
9.0099999,-9.976638793945312,1.0749965906143188,0.4429273009300232,-0.885009765625,-4.21142578125,-4.69970703125
9.0299999,-9.871294021606445,1.0055646896362305,0.7565677165985107,5.615234375,-4.0435791015625,-3.2958984375
9.049999900000001,-9.828198432922363,0.849941611289978,1.0031704902648926,7.1868896484375,-0.091552734375,-1.6937255859375
9.069999900000001,-9.823410034179688,0.7781155705451965,1.1971008777618408,7.7056884765625,2.105712890625,1.617431640625
9.0899999,-9.801861763000488,0.7422025203704834,1.2617442607879639,5.18798828125,0.7476806640625,3.96728515625
9.1099999,-9.828198432922363,0.7948749661445618,1.2234370708465576,-0.2593994140625,2.655029296875,3.7384033203125
9.129999900000001,-9.849745750427246,0.8978256583213806,1.1061211824417114,-0.1068115234375,2.5177001953125,2.105712890625
9.149999900000001,-9.873687744140625,0.9648633003234863,0.8906430602073669,2.105712890625,1.3427734375,1.2664794921875
9.1699999,-9.904812812805176,1.0079588890075684,0.7398083209991455,6.591796875,-2.716064453125,1.2054443359375
9.1899999,-9.911994934082031,1.0821791887283325,0.7206547260284424,4.5623779296875,-4.33349609375,-2.227783203125
9.209999900000001,-9.892841339111328,1.1827356815338135,0.8355764150619507,-4.7760009765625,0.7476806640625,-0.4730224609375
9.229999900000001,-9.828198432922363,1.2713210582733154,1.0797849893569946,-15.625,7.476806640625,-0.1068115234375
9.2499999,-9.830592155456543,1.4077905416488647,1.237802267074585,-27.9541015625,10.894775390625,-3.7384033203125
9.2699999,-9.751583099365234,1.3527239561080933,1.3048399686813354,-34.11865234375,13.4735107421875,-3.5247802734375
9.2899999,-9.801861763000488,1.1803414821624756,1.1540051698684692,-31.646728515625,13.1378173828125,-4.9285888671875
9.309999900000001,-9.828198432922363,0.8882488012313843,0.9385270476341248,-15.3350830078125,9.063720703125,-3.5552978515625
9.3299999,-9.921571731567383,0.5171475410461426,0.6584054827690125,3.3721923828125,4.7607421875,0.06103515625
9.3499999,-9.995792388916016,0.26575639843940735,0.4357447028160095,10.4217529296875,3.96728515625,0.48828125
9.3699999,-10.036493301391602,0.1604115068912506,0.2825157940387726,11.4898681640625,0.213623046875,3.997802734375
9.389999900000001,-10.0580415725708,0.2753331959247589,0.24660277366638184,9.70458984375,0.0152587890625,5.584716796875
9.4099999,-9.995792388916016,0.5722141861915588,0.38067805767059326,4.33349609375,-1.3275146484375,6.1492919921875
9.4299999,-9.983820915222168,0.8978256583213806,0.4884171485900879,-5.0506591796875,0.9765625,4.1046142578125
9.4499999,-9.962273597717285,1.1779472827911377,0.5482721924781799,-4.4708251953125,1.4190673828125,1.9989013671875
9.469999900000001,-9.983820915222168,1.2832920551300049,0.47884035110473633,9.735107421875,-5.7373046875,-0.5035400390625
9.4899999,-10.036493301391602,1.280897855758667,0.21547815203666687,27.7099609375,-17.1051025390625,-4.0130615234375
9.5099999,-10.086771965026855,1.0989385843276978,-0.035913024097681046,40.71044921875,-25.4364013671875,-4.1046142578125
9.5299999,-10.06043529510498,1.0079588890075684,-0.090979665517807,45.867919921875,-27.6947021484375,-4.4403076171875
9.549999900000001,-9.988609313964844,0.950498104095459,0.12449848651885986,40.9088134765625,-28.2745361328125,-4.5928955078125
9.569999900000001,-9.859322547912598,0.9959878921508789,0.629675030708313,23.0712890625,-21.0418701171875,-3.1890869140625
9.5899999,-9.710882186889648,1.113303780555725,1.2713210582733154,1.52587890625,-9.6435546875,-2.4566650390625
9.6099999,-9.639056205749512,1.1899182796478271,1.8938134908676147,-13.1988525390625,-0.3814697265625,-1.6326904296875
9.629999900000001,-9.583989143371582,1.173158884048462,2.2673089504241943,-19.439697265625,6.744384765625,-0.30517578125
9.649999900000001,-9.603142738342285,1.0821791887283325,2.427720546722412,-19.622802734375,11.71875,1.15966796875
9.6699999,-9.658209800720215,0.9193734526634216,2.298433542251587,-18.3868408203125,15.777587890625,2.3040771484375
9.6899999,-9.730035781860352,0.7757213711738586,1.9297266006469727,-17.120361328125,18.035888671875,4.638671875
9.709999900000001,-9.830592155456543,0.730231523513794,1.4293384552001953,-11.627197265625,14.404296875,6.3323974609375
9.729999900000001,-9.93593692779541,0.646434485912323,0.8547300100326538,-6.77490234375,7.8582763671875,6.6986083984375
9.7499999,-9.986215591430664,0.7805097699165344,0.3495534360408783,-4.4097900390625,3.448486328125,6.622314453125
9.7699999,-10.113107681274414,0.7589619159698486,0.0071826050989329815,4.6539306640625,-4.7149658203125,4.7149658203125
9.7899999,-10.08198356628418,0.9289502501487732,-0.21308395266532898,16.78466796875,-14.7705078125,1.068115234375
9.809999900000001,-10.129867553710938,1.072602391242981,-0.07661445438861847,25.665283203125,-19.134521484375,-2.5482177734375
9.8299999,-9.940725326538086,1.2976573705673218,0.3016694188117981,19.59228515625,-16.2811279296875,-3.72314453125
9.8499999,-9.847352027893066,1.5322890281677246,0.8523358106613159,3.5858154296875,-5.5084228515625,-9.2010498046875
9.8699999,-9.639056205749512,1.5538369417190552,1.6184803247451782,-5.767822265625,4.0435791015625,-8.5906982421875
9.889999900000001,-9.610325813293457,1.4413094520568848,1.9967641830444336,-13.153076171875,15.44189453125,-3.9520263671875
9.9099999,-9.68694019317627,1.1180921792984009,2.070984363555908,-9.521484375,13.2598876953125,1.4495849609375
9.9299999,-9.792284965515137,0.7350199222564697,1.6927006244659424,6.1492919921875,0.4730224609375,2.3193359375
9.9499999,-9.964667320251465,0.47884035110473633,1.0965443849563599,21.7132568359375,-7.904052734375,0.3509521484375
9.969999900000001,-10.019734382629395,0.44532153010368347,0.6416460275650024,27.89306640625,-9.46044921875,-1.678466796875
9.9899999,-9.976638793945312,0.6344634294509888,0.6224924325942993,18.9056396484375,-5.79833984375,-3.173828125
10.0099999,-9.821015357971191,0.9792284965515137,0.933738648891449,-2.532958984375,7.4462890625,-3.0975341796875
10.0299999,-9.720458984375,1.3120225667953491,1.3742717504501343,-23.2696533203125,21.17919921875,-1.373291015625
10.049999900000001,-9.655815124511719,1.403002142906189,1.6089035272598267,-29.754638671875,19.3634033203125,2.3193359375
10.069999900000001,-9.749189376831055,1.3239935636520386,1.4676456451416016,-20.477294921875,9.5367431640625,0.274658203125
10.0899999,-9.883264541625977,1.0893617868423462,1.0534487962722778,-4.119873046875,4.6844482421875,-2.655029296875
10.1099999,-9.95748519897461,0.9385270476341248,0.6033388376235962,6.65283203125,-0.79345703125,-2.99072265625
10.129999900000001,-9.976638793945312,0.8475474119186401,0.42377370595932007,3.23486328125,1.190185546875,-5.5084228515625
10.149999900000001,-9.931148529052734,0.8020575642585754,0.304063618183136,-5.767822265625,8.087158203125,-4.9591064453125
10.1699999,-9.859322547912598,0.751779317855835,0.44532153010368347,-8.758544921875,4.364013671875,3.997802734375
10.1899999,-9.854534149169922,0.6536170840263367,0.5027823448181152,-5.9051513671875,-0.8544921875,7.14111328125
10.209999900000001,-9.84256362915039,0.6967126727104187,0.6584054827690125,-6.317138671875,-5.3253173828125,6.1492919921875
10.229999900000001,-9.93354320526123,0.9145850539207458,0.6631938815116882,-21.54541015625,1.4495849609375,5.3863525390625
10.2499999,-9.928754806518555,1.0438719987869263,0.7254431247711182,-30.517578125,-3.0975341796875,0.8544921875
10.2699999,-10.034099578857422,1.1348515748977661,0.7374141216278076,-21.1029052734375,-2.655029296875,-6.3934326171875
10.2899999,-10.007762908935547,0.9433154463768005,0.646434485912323,-3.3721923828125,-2.7618408203125,2.7618408203125
10.309999900000001,-10.031704902648926,0.6129156351089478,0.6153098344802856,13.397216796875,-9.185791015625,8.8348388671875
10.3299999,-10.04846477508545,0.3998316824436188,0.4884171485900879,26.9012451171875,-17.425537109375,9.246826171875
10.3499999,-10.055646896362305,0.4118026793003082,0.44532153010368347,40.924072265625,-25.634765625,7.8887939453125
10.3699999,-9.967061996459961,0.7254431247711182,0.6105214357376099,35.919189453125,-23.7884521484375,2.8076171875
10.389999900000001,-9.847352027893066,1.2425906658172607,1.091755986213684,18.157958984375,-15.380859375,-1.5716552734375
10.4099999,-9.59835433959961,1.8315643072128296,1.8602946996688843,-6.134033203125,-0.152587890625,-5.706787109375
10.4299999,-9.3828763961792,2.185906171798706,2.6024973392486572,-34.7900390625,23.2391357421875,-8.1634521484375
10.4499999,-9.339780807495117,2.1811177730560303,2.9664158821105957,-50.7354736328125,37.90283203125,-4.21142578125
10.469999900000001,-9.473855972290039,1.8195933103561401,2.5737667083740234,-40.71044921875,30.548095703125,-0.0457763671875
10.4899999,-9.730035781860352,1.1324573755264282,1.6615760326385498,-9.6893310546875,10.43701171875,0.9765625
10.5099999,-10.06043529510498,0.5482721924781799,0.48602294921875,24.3072509765625,-4.7760009765625,-2.655029296875
10.5299999,-10.251971244812012,0.19632454216480255,-0.49559974670410156,43.701171875,-16.693115234375,-5.3253173828125
10.549999900000001,-10.237606048583984,0.20111294090747833,-0.6943184733390808,47.0428466796875,-19.4854736328125,-7.01904296875
10.569999900000001,-10.132261276245117,0.49559974670410156,-0.33758243918418884,34.2559814453125,-13.427734375,-4.150390625
10.5899999,-9.938331604003906,0.8379706144332886,0.5482721924781799,7.7972412109375,0.48828125,-0.457763671875
10.6099999,-9.801861763000488,1.1180921792984009,1.256955862045288,-13.9007568359375,9.3231201171875,4.730224609375
10.629999900000001,-9.773131370544434,1.2210428714752197,1.680729627609253,-14.739990234375,3.11279296875,6.744384765625
10.649999900000001,-9.801861763000488,1.2234370708465576,1.5466543436050415,-1.3275146484375,-2.5177001953125,-0.4425048828125
10.6699999,-9.871294021606445,1.173158884048462,1.194706678390503,16.6473388671875,-9.4146728515625,-5.9051513671875
10.6899999,-9.90241813659668,1.1085153818130493,0.9289502501487732,25.7568359375,-12.451171875,-7.5836181640625
10.709999900000001,-9.895236015319824,1.0414776802062988,0.9648633003234863,24.0325927734375,-7.6446533203125,-5.6610107421875
10.729999900000001,-9.818621635437012,1.0295066833496094,1.3431471586227417,14.404296875,2.1820068359375,-1.953125
10.7499999,-9.758766174316406,0.9576807022094727,1.7286136150360107,-0.9918212890625,16.4337158203125,0.6256103515625
10.7699999,-9.768342971801758,0.9433154463768005,1.8770540952682495,-4.3792724609375,19.561767578125,2.7008056640625
10.7899999,-9.86650562286377,0.8547300100326538,1.6112977266311646,5.8135986328125,8.544921875,5.126953125
10.809999900000001,-10.11789608001709,0.8212111592292786,1.0079588890075684,21.759033203125,-3.631591796875,5.18798828125
10.8299999,-10.505757331848145,0.6943184733390808,0.40701428055763245,37.750244140625,-9.6435546875,4.2724609375
10.8499999,-11.010933876037598,0.7350199222564697,0.0933738648891449,45.318603515625,-15.6402587890625,-3.7689208984375
10.8699999,-11.559206008911133,0.7805097699165344,0.021547814831137657,41.595458984375,-18.06640625,-9.1400146484375
10.889999900000001,-12.109871864318848,1.0223240852355957,0.24899697303771973,35.186767578125,-14.2059326171875,-5.645751953125
10.9099999,-12.404358863830566,1.3192051649093628,0.5003881454467773,26.5350341796875,-16.17431640625,-7.080078125
10.9299999,-12.33253288269043,1.5753847360610962,0.8092401623725891,16.5863037109375,-30.6243896484375,-14.007568359375
10.9499999,-11.731588363647461,1.6639702320098877,1.0342950820922852,10.5438232421875,-32.77587890625,-23.3154296875
10.969999900000001,-10.673351287841797,1.5322890281677246,1.2497732639312744,10.1318359375,-9.429931640625,-28.717041015625
10.9899999,-9.32302188873291,1.1827356815338135,1.3527239561080933,8.544921875,16.7083740234375,-27.313232421875
11.0099999,-8.054094314575195,0.7469909191131592,1.3503297567367554,3.0517578125,32.6385498046875,-20.6756591796875
11.0299999,-7.134721279144287,0.3232172429561615,1.2186486721038818,-3.875732421875,27.9388427734375,-13.97705078125
11.049999900000001,-6.653486728668213,-0.047884032130241394,1.0534487962722778,-0.9765625,13.97705078125,-8.8653564453125
11.069999900000001,-6.66785192489624,-0.2082955539226532,0.9409212470054626,6.89697265625,6.9732666015625,-2.8076171875
11.0899999,-6.993463039398193,-0.21308395266532898,0.9648633003234863,3.814697265625,6.317138671875,-1.28173828125
11.1099999,-7.539340972900391,-0.031124621629714966,1.1563993692398071,-3.7994384765625,9.21630859375,-3.0975341796875
11.129999900000001,-8.190564155578613,0.2561795711517334,1.4437036514282227,-10.9710693359375,13.763427734375,-1.251220703125
11.149999900000001,-8.892065048217773,0.5554547905921936,1.6927006244659424,-17.303466796875,15.4571533203125,3.9215087890625
11.1699999,-9.519346237182617,0.7948749661445618,1.8387469053268433,-21.42333984375,8.026123046875,6.9122314453125
11.1899999,-10.036493301391602,0.9552865028381348,1.8531121015548706,-21.8658447265625,-2.532958984375,8.392333984375
11.209999900000001,-10.409989356994629,1.0558429956436157,1.7549498081207275,-20.416259765625,-5.6915283203125,11.4288330078125
11.229999900000001,-10.575188636779785,1.0965443849563599,1.6041151285171509,-19.1650390625,-4.7607421875,13.214111328125
11.2499999,-10.608707427978516,1.115697979927063,1.436521053314209,-18.890380859375,-1.40380859375,12.115478515625
11.2699999,-10.529699325561523,1.1204863786697388,1.2689268589019775,-19.073486328125,3.021240234375,10.7269287109375
11.2899999,-10.409989356994629,1.1061211824417114,1.1109095811843872,-19.34814453125,3.5552978515625,11.9781494140625
11.309999900000001,-10.26394271850586,1.0845733880996704,0.9624691009521484,-19.3939208984375,1.3275146484375,12.9852294921875
11.3299999,-10.093954086303711,1.0414776802062988,0.8427590131759644,-17.15087890625,3.387451171875,10.3607177734375
11.3499999,-10.077195167541504,1.015141487121582,0.7350199222564697,-13.0767822265625,9.3841552734375,9.5367431640625
11.3699999,-10.223240852355957,0.9074024558067322,0.6344634294509888,-9.6588134765625,8.4686279296875,6.0882568359375
11.389999900000001,-10.33098030090332,0.8140285611152649,0.5219359993934631,-5.767822265625,8.148193359375,-8.453369140625
11.4099999,-10.532093048095703,0.6967126727104187,0.4189853072166443,0.1373291015625,2.62451171875,-2.899169921875
11.4299999,-10.484209060668945,0.6368576288223267,0.3447650372982025,4.21142578125,-1.7852783203125,5.0811767578125
11.4499999,-10.326191902160645,0.6488286852836609,0.33997663855552673,5.828857421875,-2.6702880859375,5.889892578125
11.469999900000001,-10.134655952453613,0.706289529800415,0.4165911078453064,5.9967041015625,-3.875732421875,4.8828125
11.4899999,-9.971850395202637,0.7948749661445618,0.5530605912208557,4.5623779296875,-4.241943359375,5.767822265625
11.5099999,-9.86650562286377,0.8810662031173706,0.7158663272857666,3.021240234375,-4.08935546875,6.5765380859375
11.5299999,-9.799467086791992,0.9672574996948242,0.8786720037460327,1.52587890625,-3.7994384765625,5.859375
11.549999900000001,-9.77791976928711,1.048660397529602,0.9983820915222168,-0.6103515625,-2.8076171875,4.669189453125
11.569999900000001,-9.782708168029785,1.1276689767837524,1.0558429956436157,-2.3193359375,-2.0599365234375,3.60107421875
11.5899999,-9.816226959228516,1.1827356815338135,1.1037269830703735,-4.9896240234375,-2.0904541015625,4.241943359375
11.6099999,-9.832986831665039,1.2258312702178955,1.113303780555725,-10.1318359375,-0.9918212890625,4.8828125
11.629999900000001,-9.854534149169922,1.2306196689605713,1.115697979927063,-14.617919921875,1.068115234375,3.7384033203125
11.649999900000001,-9.854534149169922,1.2018892765045166,1.1061211824417114,-15.4266357421875,1.739501953125,3.2196044921875
11.6699999,-9.854534149169922,1.1420341730117798,1.0821791887283325,-13.1378173828125,0.7171630859375,3.6468505859375
11.6899999,-9.854534149169922,1.0821791887283325,1.0558429956436157,-9.1400146484375,0.244140625,3.41796875
11.709999900000001,-9.861717224121094,1.0414776802062988,1.0247182846069336,-4.486083984375,0.640869140625,2.716064453125
11.729999900000001,-9.873687744140625,1.0199298858642578,0.9911994934082031,0.18310546875,-0.2288818359375,1.678466796875
11.7499999,-9.873687744140625,1.0462661981582642,0.9959878921508789,2.5177001953125,-1.678466796875,1.5716552734375
11.7699999,-9.86889934539795,1.070208191871643,0.9696516990661621,1.3885498046875,-1.190185546875,1.800537109375
11.7899999,-9.861717224121094,1.1276689767837524,0.9864110946655273,-0.244140625,-0.6103515625,0.701904296875
11.809999900000001,-9.832986831665039,1.192312479019165,1.1659762859344482,-3.7078857421875,-0.2899169921875,1.6632080078125
11.8299999,-9.742006301879883,1.2952631711959839,1.4173674583435059,-15.9149169921875,5.8746337890625,2.4261474609375
11.8499999,-9.730035781860352,1.3239935636520386,1.656787633895874,-27.191162109375,15.411376953125,0.91552734375
11.8699999,-9.62947940826416,1.403002142906189,1.824381709098816,-29.205322265625,19.1802978515625,0.3662109375
11.889999900000001,-9.66539192199707,1.2737152576446533,1.7501614093780518,-24.1546630859375,17.76123046875,0.946044921875
11.9099999,-9.667786598205566,1.2018892765045166,1.4987702369689941,-17.5018310546875,16.845703125,0.7171630859375
11.9299999,-9.761159896850586,1.0342950820922852,1.1037269830703735,-11.5509033203125,16.448974609375,0.0762939453125
11.9499999,-9.84495735168457,0.9528923034667969,0.7422025203704834,-6.2713623046875,15.106201171875,0.8392333984375
11.969999900000001,-9.955090522766113,0.912190854549408,0.3878606855869293,-4.5928955078125,10.2691650390625,4.21142578125
11.9899999,-10.012551307678223,0.9600749015808105,0.1173158809542656,-4.852294921875,6.805419921875,4.638671875
12.0099999,-10.101137161254883,1.0630255937576294,-0.08140286058187485,-2.349853515625,0.9307861328125,2.8076171875
12.0299999,-10.093954086303711,1.1420341730117798,-0.1843535304069519,5.645751953125,-10.5743408203125,-2.7008056640625
12.049999900000001,-10.0580415725708,1.2090718746185303,-0.16998831927776337,12.4359130859375,-16.204833984375,-6.8359375
12.069999900000001,-10.02452278137207,1.1444283723831177,-0.05506663769483566,16.2506103515625,-12.939453125,-2.8076171875
12.0899999,-9.938331604003906,1.1204863786697388,0.26575639843940735,14.2822265625,-12.054443359375,-0.67138671875
12.1099999,-9.837775230407715,1.0797849893569946,0.7469909191131592,3.021240234375,-8.758544921875,2.25830078125
12.129999900000001,-9.81143856048584,1.094150185585022,1.2018892765045166,-14.5721435546875,-0.8087158203125,7.6446533203125
12.149999900000001,-9.715670585632324,1.173158884048462,1.625662922859192,-25.848388671875,2.838134765625,8.6212158203125
12.1699999,-9.730035781860352,1.173158884048462,1.8100165128707886,-27.099609375,3.2501220703125,5.43212890625
12.1899999,-9.751583099365234,1.1085153818130493,1.7310078144073486,-23.2086181640625,5.5389404296875,3.143310546875
12.209999900000001,-9.744400978088379,1.0989385843276978,1.5610195398330688,-15.9759521484375,8.1787109375,5.8441162109375
12.229999900000001,-9.797073364257812,1.0821791887283325,1.3527239561080933,-12.298583984375,9.521484375,8.36181640625
12.2499999,-9.75637149810791,1.3503297567367554,1.0797849893569946,-29.937744140625,12.5274658203125,4.913330078125
12.2699999,-9.718064308166504,1.5275006294250488,1.0534487962722778,-28.99169921875,10.7879638671875,7.26318359375
12.289999900000002,-9.787496566772461,1.53707754611969,0.9600749015808105,-33.1573486328125,12.7410888671875,1.1749267578125
12.309999900000001,-9.763554573059082,1.4317326545715332,0.8595184087753296,-36.31591796875,17.8985595703125,-0.9918212890625
12.3299999,-9.840168952941895,1.1875240802764893,0.6200982332229614,-20.4010009765625,15.2740478515625,1.0223388671875
12.3499999,-9.976638793945312,1.0007762908935547,0.4213795065879822,5.645751953125,1.922607421875,2.86865234375
12.3699999,-10.010157585144043,0.8355764150619507,0.0071826050989329815,18.0816650390625,-0.7171630859375,4.913330078125
12.389999900000001,-10.158597946166992,0.8643068075180054,-0.22266076505184174,23.92578125,-5.8135986328125,3.875732421875
12.4099999,-10.168174743652344,1.0079588890075684,-0.4118026793003082,29.6478271484375,-21.9268798828125,-2.593994140625
12.4299999,-10.14902114868164,1.1420341730117798,-0.44771572947502136,33.7677001953125,-26.85546875,-5.6610107421875
12.4499999,-10.02691650390625,1.3503297567367554,-0.2322375625371933,34.6221923828125,-24.8870849609375,-5.5389404296875
12.469999900000001,-9.923966407775879,1.3958195447921753,0.12928688526153564,28.6407470703125,-21.42333984375,-4.8065185546875
12.4899999,-9.780313491821289,1.53707754611969,0.7541735172271729,19.439697265625,-18.6920166015625,-0.3204345703125
12.5099999,-9.641449928283691,1.5442601442337036,1.37906014919281,3.7384033203125,-9.3994140625,2.777099609375
12.5299999,-9.548076629638672,1.5969325304031372,2.078166961669922,-15.2740478515625,1.708984375,2.7618408203125
12.549999900000001,-9.425971984863281,1.7142484188079834,2.612074136734009,-32.470703125,9.46044921875,3.6773681640625
12.569999900000001,-9.50498104095459,1.6735470294952393,2.829946517944336,-50.4913330078125,23.6968994140625,-1.0833740234375
12.5899999,-9.464279174804688,1.6615760326385498,2.7892448902130127,-58.6090087890625,31.9671630859375,0.42724609375
12.6099999,-9.68694019317627,1.3838485479354858,2.123656988143921,-52.154541015625,33.0810546875,1.52587890625
12.629999900000001,-9.830592155456543,1.094150185585022,1.2641384601593018,-25.1312255859375,22.125244140625,3.4942626953125
12.649999900000001,-10.031704902648926,0.7589619159698486,0.11971008777618408,6.65283203125,7.50732421875,6.6680908203125
12.6699999,-10.29746150970459,0.5530605912208557,-1.0031704902648926,36.80419921875,-12.4359130859375,4.8828125
12.6899999,-10.41956615447998,0.5770025849342346,-1.6711528301239014,61.9354248046875,-35.6597900390625,0.518798828125
12.709999900000001,-10.402806282043457,0.8188169598579407,-1.867477297782898,73.394775390625,-45.1812744140625,-5.6304931640625
12.729999900000001,-10.292673110961914,1.2258312702178955,-1.3239935636520386,67.5811767578125,-43.853759765625,-8.97216796875
12.7499999,-9.93593692779541,1.6927006244659424,-0.21787235140800476,45.83740234375,-34.0423583984375,-9.246826171875
12.7699999,-9.636661529541016,2.1954829692840576,1.2521674633026123,15.0299072265625,-17.0440673828125,-8.0718994140625
12.789999900000002,-9.330204010009766,2.425326347351074,2.6623523235321045,-19.6685791015625,2.44140625,-5.0811767578125
12.809999900000001,-9.17697525024414,2.4372973442077637,3.600879430770874,-46.9207763671875,21.942138671875,-2.5787353515625
12.8299999,-9.193734169006348,2.099714994430542,3.8379054069519043,-48.9959716796875,24.444580078125,-1.5716552734375
12.8499999,-9.361329078674316,1.5442601442337036,3.222595453262329,-32.4249267578125,21.2249755859375,-6.134033203125
12.8699999,-9.593565940856934,0.8978256583213806,2.2170307636260986,-11.1846923828125,13.0615234375,0.42724609375
12.889999900000001,-9.799467086791992,0.5099649429321289,1.0749965906143188,2.8839111328125,8.7432861328125,1.1444091796875
12.9099999,-9.964667320251465,0.2992752194404602,0.19632454216480255,7.476806640625,3.4942626953125,5.0506591796875
12.9299999,-10.070012092590332,0.38067805767059326,-0.2298433631658554,6.7291259765625,-2.685546875,6.256103515625
12.9499999,-10.113107681274414,0.6560112833976746,-0.35434186458587646,3.72314453125,-6.500244140625,5.2032470703125
12.969999900000001,-10.11789608001709,1.0079588890075684,-0.11013327538967133,3.387451171875,-9.2926025390625,6.622314453125
12.9899999,-10.017339706420898,1.3527239561080933,0.363918662071228,-3.2806396484375,-8.9874267578125,5.1116943359375
13.0099999,-9.883264541625977,1.6160861253738403,1.0127472877502441,-17.15087890625,-0.42724609375,-1.708984375
13.0299999,-9.785101890563965,1.6519991159439087,1.359906554222107,-20.8892822265625,8.0718994140625,-1.9073486328125
13.049999900000001,-9.696516990661621,1.647210717201233,1.7860745191574097,-6.2408447265625,4.486083984375,0.701904296875
13.069999900000001,-9.696516990661621,1.5179238319396973,1.6208745241165161,-0.1068115234375,3.692626953125,1.7852783203125
13.0899999,-9.773131370544434,1.3982137441635132,1.5322890281677246,-1.9683837890625,6.9732666015625,0.9765625
13.1099999,-9.813833236694336,1.259350061416626,1.2258312702178955,-2.2125244140625,2.2125244140625,1.40380859375
13.129999900000001,-9.895236015319824,1.1444283723831177,0.8834604024887085,6.2713623046875,-6.256103515625,0
13.149999900000001,-9.981427192687988,1.01753568649292,0.6153098344802856,19.1192626953125,-9.5062255859375,-2.044677734375
13.1699999,-9.950302124023438,1.1013327836990356,0.4812345504760742,21.881103515625,-9.58251953125,-3.7841796875
13.1899999,-9.883264541625977,1.2114660739898682,0.5602431893348694,19.22607421875,-6.5460205078125,-7.5225830078125
13.209999900000001,-9.871294021606445,1.460463047027588,0.8882488012313843,16.29638671875,-3.11279296875,-6.591796875
13.229999900000001,-9.708487510681152,1.6400281190872192,1.2880805730819702,7.781982421875,0.091552734375,-2.9296875
13.2499999,-9.749189376831055,1.6950948238372803,1.6041151285171509,-3.11279296875,6.2408447265625,-3.8909912109375
13.2699999,-9.734824180603027,1.6112977266311646,1.7501614093780518,-4.2877197265625,5.2032470703125,-3.9520263671875
13.289999900000002,-9.787496566772461,1.3886369466781616,1.6639702320098877,-1.2969970703125,3.11279296875,-3.1280517578125
13.309999900000001,-9.885659217834473,1.1803414821624756,1.3766659498214722,5.6304931640625,3.1280517578125,-5.8135986328125
13.3299999,-9.919178009033203,1.0127472877502441,0.9792284965515137,15.1214599609375,-0.6561279296875,-4.913330078125
13.3499999,-10.007762908935547,0.8858546018600464,0.6344634294509888,31.4178466796875,-7.75146484375,-5.859375
13.3699999,-9.998186111450195,0.9193734526634216,0.45010992884635925,45.1812744140625,-14.1448974609375,-6.9427490234375
13.389999900000001,-9.986215591430664,0.950498104095459,0.5482721924781799,38.543701171875,-12.2528076171875,-5.7830810546875
13.4099999,-9.892841339111328,1.0893617868423462,0.9097966551780701,22.796630859375,-5.462646484375,-3.7689208984375
13.4299999,-9.763554573059082,1.2497732639312744,1.4245500564575195,7.537841796875,2.593994140625,-2.838134765625
13.4499999,-9.651026725769043,1.3431471586227417,1.867477297782898,-5.645751953125,10.9405517578125,-2.6092529296875
13.469999900000001,-9.617507934570312,1.359906554222107,2.073378562927246,-13.8092041015625,16.4794921875,-0.7171630859375
13.4899999,-9.672574996948242,1.2713210582733154,2.0015525817871094,-14.8468017578125,16.8914794921875,1.5106201171875
13.5099999,-9.78989028930664,1.1109095811843872,1.7046716213226318,-10.80322265625,14.3585205078125,3.60107421875
13.5299999,-9.99339771270752,0.9816226959228516,1.3096283674240112,-3.0670166015625,11.16943359375,8.331298828125
13.549999900000001,-10.096348762512207,0.7757213711738586,0.9744400978088379,4.2877197265625,14.4805908203125,15.5487060546875
13.569999900000001,-10.127472877502441,0.768538773059845,0.8427590131759644,7.01904296875,12.02392578125,14.7705078125
13.5899999,-10.723628997802734,0.8762778043746948,0.8451532125473022,5.126953125,11.90185546875,9.490966796875
13.6099999,-10.946290016174316,0.9648633003234863,0.8978256583213806,2.3193359375,11.3372802734375,-4.94384765625
13.629999900000001,-11.748347282409668,1.280897855758667,0.8930372595787048,2.7008056640625,17.8070068359375,3.4332275390625
13.649999900000001,-12.24394702911377,1.4939818382263184,0.7015010714530945,3.1280517578125,4.0130615234375,1.0833740234375
13.6699999,-12.258312225341797,1.699883222579956,0.4357447028160095,5.9356689453125,-31.06689453125,-19.0582275390625
13.6899999,-11.820174217224121,1.8052281141281128,0.17717093229293823,12.054443359375,-35.8428955078125,-31.73828125
13.709999900000001,-10.776301383972168,1.742978811264038,0.035913024097681046,19.012451171875,-20.5535888671875,-30.731201171875
13.729999900000001,-9.409213066101074,1.522712230682373,0.035913024097681046,20.050048828125,-1.739501953125,-23.3612060546875
13.7499999,-8.068459510803223,1.2306196689605713,0.1388636976480484,14.9078369140625,15.655517578125,-15.1824951171875
13.7699999,-7.0557122230529785,0.9528923034667969,0.28969839215278625,6.0577392578125,21.4691162109375,-7.8125
13.789999900000002,-6.519411087036133,0.7541735172271729,0.43095630407333374,-3.8909912109375,16.54052734375,-1.861572265625
13.809999900000001,-6.418854713439941,0.6272808313369751,0.5171475410461426,-9.33837890625,13.275146484375,0.1068115234375
13.8299999,-6.691793918609619,0.5578489899635315,0.5554547905921936,-8.8348388671875,16.54052734375,0.1068115234375
13.8499999,-7.242460250854492,0.5339069962501526,0.5363011956214905,-5.584716796875,18.768310546875,3.7384033203125
13.8699999,-7.967903137207031,0.569819986820221,0.49320554733276367,-3.5552978515625,11.2457275390625,10.3302001953125
13.889999900000001,-8.765172004699707,0.6631938815116882,0.4668693244457245,-3.265380859375,2.197265625,13.0157470703125
13.9099999,-9.485827445983887,0.8523358106613159,0.4644751250743866,-2.2125244140625,0.091552734375,11.2457275390625
13.9299999,-10.986991882324219,1.1803414821624756,0.5482721924781799,-0.7476806640625,0.946044921875,10.101318359375
13.9499999,-11.554417610168457,1.3311761617660522,0.6536170840263367,-2.50244140625,-15.106201171875,-16.998291015625
13.969999900000001,-12.557587623596191,1.525106430053711,0.7829039692878723,-3.7841796875,-15.80810546875,-13.24462890625
13.9899999,-12.313379287719727,1.4939818382263184,0.871489405632019,2.8533935546875,-6.1492919921875,8.2855224609375
14.0099999,-11.693281173706055,1.4221558570861816,0.9648633003234863,7.7362060546875,-8.4686279296875,1.8463134765625
14.0299999,-10.754754066467285,1.3096283674240112,1.0438719987869263,5.8746337890625,-7.87353515625,-4.6234130859375
14.049999900000001,-10.065223693847656,1.1683704853057861,1.1492167711257935,2.288818359375,-7.080078125,-5.645751953125
14.069999900000001,-9.617507934570312,1.0055646896362305,1.2665326595306396,-2.044677734375,-1.0833740234375,0.8697509765625
14.0899999,-9.459490776062012,0.8906430602073669,1.3431471586227417,-11.0931396484375,3.60107421875,5.859375
14.1099999,-9.473855972290039,0.8595184087753296,1.3527239561080933,-17.0745849609375,7.2784423828125,5.3253173828125
14.129999900000001,-9.557653427124023,0.9002198576927185,1.2641384601593018,-19.0277099609375,8.7127685546875,3.4332275390625
14.149999900000001,-9.682151794433594,0.9648633003234863,1.0893617868423462,-20.0347900390625,7.904052734375,4.364013671875
14.1699999,-9.813833236694336,0.9959878921508789,0.8403648138046265,-17.9595947265625,6.1492919921875,5.3558349609375
14.1899999,-9.93593692779541,0.9911994934082031,0.5674257874488831,-11.871337890625,3.11279296875,4.7454833984375
14.209999900000001,-10.022128105163574,0.9672574996948242,0.3232172429561615,-4.1351318359375,-1.6937255859375,4.1961669921875
14.229999900000001,-10.062829971313477,0.9768342971801758,0.15562310814857483,1.495361328125,-6.4697265625,3.9215087890625
14.2499999,-10.065223693847656,1.048660397529602,0.08140286058187485,3.60107421875,-9.5672607421875,2.3956298828125
14.2699999,-10.038887977600098,1.137245774269104,0.10055647045373917,5.92041015625,-12.1002197265625,0.0762939453125
14.289999900000002,-9.976638793945312,1.2737152576446533,0.2825157940387726,7.2784423828125,-14.2669677734375,-1.3580322265625
14.309999900000001,-9.859322547912598,1.4628572463989258,0.6440402865409851,1.7852783203125,-12.6953125,-1.9989013671875
14.3299999,-9.718064308166504,1.599326729774475,1.0989385843276978,-15.56396484375,-4.4097900390625,-3.3721923828125
14.3499999,-9.641449928283691,1.5634137392044067,1.5849615335464478,-32.196044921875,6.256103515625,-4.1961669921875
14.3699999,-9.555258750915527,1.5179238319396973,1.9536685943603516,-35.4766845703125,11.5966796875,-1.8463134765625
14.389999900000001,-9.624691009521484,1.192312479019165,1.9512743949890137,-29.5867919921875,13.824462890625,0.946044921875
14.4099999,-9.734824180603027,0.9959878921508789,1.7357962131500244,-14.495849609375,11.7034912109375,1.4801025390625
14.4299999,-9.871294021606445,0.768538773059845,1.2689268589019775,1.800537109375,2.044677734375,-0.1373291015625
14.4499999,-9.962273597717285,0.7086837291717529,0.8571242094039917,10.5438232421875,-4.7607421875,-3.021240234375
14.469999900000001,-10.007762908935547,0.7493851184844971,0.507570743560791,10.92529296875,0.1373291015625,-6.317138671875
14.4899999,-10.007762908935547,0.8451532125473022,0.3519476354122162,8.209228515625,-0.18310546875,-5.8746337890625
14.5099999,-9.952696800231934,0.9241618514060974,0.3758896589279175,3.814697265625,-0.2899169921875,-3.1280517578125
14.5299999,-9.890447616577148,1.113303780555725,0.5602431893348694,-3.814697265625,2.86865234375,-1.2969970703125
14.549999900000001,-9.8784761428833,1.161187767982483,0.7972691655158997,-12.3443603515625,5.2947998046875,3.1280517578125
14.569999900000001,-9.859322547912598,1.2186486721038818,1.0342950820922852,-15.80810546875,3.2958984375,1.03759765625
14.5899999,-9.871294021606445,1.170764684677124,1.1252747774124146,-11.8255615234375,3.96728515625,-7.6904296875
14.6099999,-9.871294021606445,1.0079588890075684,1.0007762908935547,-6.8817138671875,2.7313232421875,-5.3253173828125
14.629999900000001,-9.921571731567383,0.8188169598579407,0.7254431247711182,-2.9296875,3.2501220703125,0.42724609375
14.649999900000001,-9.907206535339355,0.727837324142456,0.5482721924781799,0.79345703125,-3.3416748046875,-1.03759765625
14.6699999,-9.947908401489258,0.7589619159698486,0.4381389021873474,-3.3416748046875,-3.60107421875,4.791259765625
14.6899999,-9.947908401489258,0.7589619159698486,0.5626373887062073,-10.2386474609375,-2.9754638671875,7.87353515625
14.709999900000001,-9.943120002746582,0.8810662031173706,0.7829039692878723,-11.23046875,-4.150390625,-1.4801025390625
14.729999900000001,-9.885659217834473,0.8164227604866028,0.9265560507774353,-8.056640625,-3.5552978515625,-1.251220703125
14.7499999,-9.880870819091797,0.8451532125473022,1.05105459690094,-2.838134765625,-0.0762939453125,4.2266845703125
14.7699999,-9.81143856048584,0.9026140570640564,1.0965443849563599,-1.190185546875,2.166748046875,4.08935546875
14.789999900000002,-9.80904483795166,0.9840168952941895,1.1228805780410767,-7.8582763671875,2.50244140625,4.669189453125
14.809999900000001,-9.84495735168457,1.113303780555725,1.0989385843276978,-14.404296875,4.8370361328125,6.9732666015625
14.8299999,-9.816226959228516,1.1563993692398071,1.0558429956436157,-9.124755859375,0.1678466796875,4.7149658203125
14.8499999,-9.93354320526123,1.1037269830703735,0.9648633003234863,-4.364013671875,-3.2501220703125,-3.0517578125
14.8699999,-9.883264541625977,1.048660397529602,0.871489405632019,-1.6021728515625,0.0457763671875,-3.35693359375
14.889999900000001,-9.86889934539795,1.0031704902648926,0.9313444495201111,3.173828125,2.716064453125,3.143310546875
14.9099999,-9.86889934539795,1.0271124839782715,0.9528923034667969,-0.67138671875,4.9285888671875,6.4849853515625
14.9299999,-9.785101890563965,1.0965443849563599,1.0773907899856567,-7.354736328125,7.0648193359375,4.547119140625
14.9499999,-9.780313491821289,1.2114660739898682,1.1851298809051514,-11.3525390625,6.7901611328125,6.3629150390625
14.969999900000001,-9.780313491821289,1.2689268589019775,1.2066776752471924,-16.7388916015625,6.011962890625,4.547119140625
14.9899999,-9.782708168029785,1.3192051649093628,1.2952631711959839,-22.247314453125,8.5601806640625,-0.0152587890625
15.0099999,-9.749189376831055,1.314416766166687,1.1827356815338135,-29.571533203125,15.3045654296875,-0.8392333984375
15.0299999,-9.78989028930664,1.2665326595306396,1.0893617868423462,-25.8331298828125,18.798828125,-0.091552734375
15.049999900000001,-9.81143856048584,1.158793568611145,0.993593692779541,-14.129638671875,13.36669921875,3.570556640625
15.069999900000001,-9.919178009033203,1.0869675874710083,0.8020575642585754,-11.7950439453125,14.312744140625,3.631591796875
15.0899999,-10.000580787658691,0.9217676520347595,0.5339069962501526,-8.60595703125,11.749267578125,4.57763671875
15.1099999,-10.08437728881836,0.8667010068893433,0.16998831927776337,10.2996826171875,-2.227783203125,-0.8392333984375
15.129999900000001,-10.146626472473145,0.768538773059845,-0.24420857429504395,31.7535400390625,-13.5498046875,-5.0201416015625
15.149999900000001,-10.14902114868164,0.8236053586006165,-0.4836287498474121,42.96875,-19.2108154296875,-2.9144287109375
15.1699999,-10.129867553710938,0.9289502501487732,-0.44771572947502136,40.3900146484375,-21.240234375,-5.5084228515625
15.1899999,-10.089165687561035,1.0989385843276978,-0.16519992053508759,34.7137451171875,-20.5078125,-6.7901611328125
15.209999900000001,-9.938331604003906,1.280897855758667,0.26336219906806946,31.036376953125,-18.7225341796875,-6.011962890625
15.229999900000001,-9.871294021606445,1.4269442558288574,0.8379706144332886,22.216796875,-15.9912109375,-4.425048828125
15.2499999,-9.730035781860352,1.53707754611969,1.3431471586227417,5.340576171875,-9.7198486328125,-3.997802734375
15.2699999,-9.674968719482422,1.5682021379470825,1.8339585065841675,-10.5133056640625,1.739501953125,-4.5623779296875
15.289999900000002,-9.651026725769043,1.4437036514282227,1.987187385559082,-14.5416259765625,7.8277587890625,-2.4566650390625
15.309999900000001,-9.710882186889648,1.170764684677124,1.7597382068634033,-5.92041015625,2.3040771484375,-1.0223388671875
15.3299999,-9.80904483795166,0.8643068075180054,1.3407529592514038,9.2010498046875,-6.16455078125,-0.5340576171875
15.3499999,-9.931148529052734,0.5770025849342346,0.8140285611152649,17.4407958984375,-11.688232421875,-1.495361328125
15.3699999,-10.034099578857422,0.48602294921875,0.5123591423034668,17.1051025390625,-11.04736328125,-2.25830078125
15.389999900000001,-10.019734382629395,0.5482721924781799,0.4141969084739685,16.5557861328125,-12.4359130859375,2.227783203125
15.4099999,-10.012551307678223,0.7326257228851318,0.5602431893348694,14.09912109375,-14.404296875,3.3111572265625
15.4299999,-9.911994934082031,0.9888052940368652,0.8188169598579407,8.6517333984375,-10.80322265625,0.42724609375
15.4499999,-9.816226959228516,1.1971008777618408,1.1252747774124146,3.23486328125,-5.2490234375,-0.48828125
15.469999900000001,-9.72285270690918,1.3886369466781616,1.4413094520568848,-1.495361328125,-1.861572265625,-0.030517578125
15.4899999,-9.660603523254395,1.4532804489135742,1.623268723487854,-4.7454833984375,0.67138671875,-0.91552734375
15.5099999,-9.634267807006836,1.4628572463989258,1.7932571172714233,-6.16455078125,2.8228759765625,-1.617431640625
15.5299999,-9.610325813293457,1.4173674583435059,1.8363527059555054,-14.129638671875,7.8887939453125,-1.861572265625
15.549999900000001,-9.68933391571045,1.292868971824646,1.7142484188079834,-24.383544921875,14.007568359375,-0.48828125
15.569999900000001,-9.782708168029785,1.1516109704971313,1.4508862495422363,-17.8680419921875,8.60595703125,1.739501953125
15.5899999,-9.90241813659668,0.9552865028381348,1.0031704902648926,0.7171630859375,-0.946044921875,0.7781982421875
15.6099999,-10.022128105163574,0.7972691655158997,0.6320692300796509,14.4805908203125,-7.598876953125,-1.46484375
15.629999900000001,-10.029311180114746,0.7230489253997803,0.4692635238170624,16.6778564453125,-8.3770751953125,0.3662109375
15.649999900000001,-9.95748519897461,0.7398083209991455,0.5889736413955688,12.2222900390625,-6.53076171875,2.8533935546875
15.6699999,-9.885659217834473,0.8571242094039917,0.9552865028381348,1.983642578125,-2.1209716796875,3.11279296875
15.6899999,-9.746794700622559,1.0821791887283325,1.3838485479354858,-10.7879638671875,2.7923583984375,1.7242431640625
15.709999900000001,-9.708487510681152,1.2689268589019775,1.8267759084701538,-22.6287841796875,9.8876953125,3.9215087890625
15.729999900000001,-9.605537414550781,1.5179238319396973,2.1475989818573,-36.2701416015625,16.5863037109375,2.716064453125
15.7499999,-9.612719535827637,1.6376339197158813,2.2601263523101807,-48.248291015625,25.726318359375,0.2899169921875
15.7699999,-9.622296333312988,1.5610195398330688,2.1116859912872314,-51.422119140625,29.9072265625,-0.640869140625
15.789999900000002,-9.710882186889648,1.3670891523361206,1.7286136150360107,-43.4112548828125,27.496337890625,-0.2899169921875
15.809999900000001,-9.856928825378418,1.0127472877502441,1.1061211824417114,-25.177001953125,19.8822021484375,1.8157958984375
15.8299999,-9.952696800231934,0.689530074596405,0.5578489899635315,-3.9215087890625,10.406494140625,4.1961669921875
15.8499999,-10.077195167541504,0.5219359993934631,0.07422025501728058,7.1868896484375,5.79833984375,2.7923583984375
15.869999900000002,-10.070012092590332,0.524330198764801,-0.1412578970193863,13.641357421875,3.3721923828125,0.1068115234375
15.889999900000001,-10.053253173828125,0.6871358752250671,-0.13407529890537262,18.157958984375,-2.3651123046875,-0.2899169921875
15.9099999,-9.885659217834473,1.278503656387329,0.5434837937355042,0.5645751953125,1.2054443359375,0.1068115234375
15.9299999,-9.821015357971191,1.4891934394836426,1.0438719987869263,-19.256591796875,12.1307373046875,-1.9683837890625
15.9499999,-9.708487510681152,1.6160861253738403,1.434126853942871,-29.78515625,17.2576904296875,-0.9613037109375
15.969999900000001,-9.718064308166504,1.4844050407409668,1.525106430053711,-30.09033203125,19.9127197265625,-0.4119873046875
15.9899999,-9.782708168029785,1.1803414821624756,1.1683704853057861,-15.6402587890625,14.4195556640625,1.6326904296875
16.0099999,-9.952696800231934,0.7350199222564697,0.4908113479614258,10.6048583984375,-0.396728515625,2.777099609375
16.0299999,-10.127472877502441,0.4141969084739685,-0.3423708379268646,36.68212890625,-16.754150390625,0.48828125
16.0499999,-10.266336441040039,0.26336219906806946,-0.950498104095459,53.3905029296875,-28.8238525390625,-0.42724609375
16.0699999,-10.26394271850586,0.4189853072166443,-1.05105459690094,54.13818359375,-35.3546142578125,2.8076171875
16.089999900000002,-10.14902114868164,0.9026140570640564,-0.507570743560791,35.8734130859375,-30.7464599609375,3.082275390625
16.109999900000002,-9.90241813659668,1.4724340438842773,0.5195417404174805,2.8839111328125,-16.3726806640625,0.9765625
16.1299999,-9.643844604492188,1.946485996246338,1.6759412288665771,-31.18896484375,4.058837890625,-2.349853515625
16.1499999,-9.464279174804688,2.0877439975738525,2.5785553455352783,-46.38671875,17.7764892578125,-1.5716552734375
16.1699999,-9.387664794921875,1.8914192914962769,2.9281086921691895,-40.8782958984375,20.3399658203125,2.197265625
16.1899999,-9.512163162231445,1.4293384552001953,2.609679937362671,-28.8238525390625,21.2860107421875,3.7384033203125
16.2099999,-9.641449928283691,0.9481038451194763,1.9536685943603516,-12.420654296875,15.8538818359375,3.7841796875
16.2299999,-9.86650562286377,0.667982280254364,1.05105459690094,-1.495361328125,12.0391845703125,2.99072265625
16.249999900000002,-9.967061996459961,0.608127236366272,0.35673606395721436,6.3323974609375,5.0506591796875,4.1046142578125
16.269999900000002,-10.007762908935547,0.7422025203704834,-0.10295066982507706,6.683349609375,-0.5035400390625,4.425048828125
16.2899999,-10.038887977600098,0.9696516990661621,-0.2059013396501541,-2.2125244140625,-0.4425048828125,3.8604736328125
16.3099999,-10.014945983886719,1.1468225717544556,-0.15801730751991272,-5.096435546875,0.152587890625,3.173828125
16.3299999,-10.019734382629395,1.2401964664459229,0.014365210197865963,6.500244140625,-6.0577392578125,2.3040771484375
16.3499999,-10.014945983886719,1.237802267074585,0.1149216815829277,22.9034423828125,-14.678955078125,-0.6103515625
16.3699999,-10.06043529510498,1.2713210582733154,0.2059013396501541,31.67724609375,-19.71435546875,-3.021240234375
16.3899999,-9.938331604003906,1.3694833517074585,0.5027823448181152,28.1982421875,-19.805908203125,-4.0740966796875
16.4099999,-9.873687744140625,1.5179238319396973,1.0462661981582642,6.2103271484375,-7.781982421875,-7.720947265625
16.429999900000002,-9.710882186889648,1.6903064250946045,1.702277421951294,-21.484375,11.444091796875,-5.9051513671875
16.4499999,-9.53849983215332,1.6663644313812256,2.1811177730560303,-42.694091796875,28.5491943359375,-3.0059814453125
16.4699999,-9.528923034667969,1.4987702369689941,2.319981336593628,-40.71044921875,28.62548828125,-0.1678466796875
16.4899999,-9.555258750915527,1.158793568611145,1.944091796875,-27.740478515625,23.8494873046875,4.0740966796875
16.5099999,-9.780313491821289,0.8164227604866028,1.1899182796478271,-11.474609375,16.6168212890625,5.4168701171875
16.5299999,-9.943120002746582,0.5913678407669067,0.4357447028160095,11.1083984375,3.1280517578125,2.655029296875
16.5499999,-10.093954086303711,0.6703764796257019,-0.24899697303771973,24.9176025390625,-3.6468505859375,-1.89208984375
16.5699999,-10.132261276245117,0.8643068075180054,-0.5386953949928284,25.787353515625,-10.19287109375,-3.6773681640625
16.589999900000002,-10.072406768798828,1.2042834758758545,-0.4141969084739685,14.09912109375,-6.0272216796875,-9.246826171875
16.609999900000002,-9.981427192687988,1.4101848602294922,-0.011971008032560349,6.16455078125,-0.4119873046875,-9.5672607421875
16.6299999,-9.911994934082031,1.460463047027588,0.40940847992897034,3.4332275390625,3.326416015625,-5.828857421875
16.6499999,-9.873687744140625,1.3335703611373901,0.7398083209991455,7.5836181640625,-0.9002685546875,-2.685546875
16.6699999,-9.921571731567383,1.05105459690094,0.7757213711738586,11.29150390625,-3.173828125,0.4119873046875
16.6899999,-9.947908401489258,0.8523358106613159,0.7134721279144287,17.9901123046875,-9.765625,0.640869140625
16.7099999,-10.031704902648926,0.6392518281936646,0.5267243981361389,25.177001953125,-15.7012939453125,0.6256103515625
16.7299999,-10.010157585144043,0.667982280254364,0.42616790533065796,27.740478515625,-16.632080078125,-1.15966796875
16.749999900000002,-9.964667320251465,0.8451532125473022,0.47644615173339844,23.5595703125,-14.801025390625,-0.06103515625
16.769999900000002,-9.813833236694336,1.1204863786697388,0.8523358106613159,6.072998046875,-9.8114013671875,1.4495849609375
16.7899999,-9.66299819946289,1.4867992401123047,1.4053963422775269,-21.0418701171875,5.1727294921875,-1.953125
16.8099999,-9.533711433410645,1.6400281190872192,1.9369091987609863,-44.1131591796875,24.322509765625,-1.0528564453125
16.8299999,-9.543288230895996,1.6041151285171509,2.0207061767578125,-49.6673583984375,28.9459228515625,3.90625
16.8499999,-9.674968719482422,1.2713210582733154,1.6376339197158813,-28.594970703125,18.402099609375,4.547119140625
16.8699999,-9.938331604003906,0.8523358106613159,0.7398083209991455,1.77001953125,3.753662109375,5.8441162109375
16.8899999,-10.163386344909668,0.5171475410461426,-0.1628057211637497,27.5726318359375,-11.8865966796875,6.6986083984375
16.9099999,-10.271124839782715,0.47884035110473633,-0.7254431247711182,40.618896484375,-24.0478515625,2.3651123046875
16.929999900000002,-10.290278434753418,0.6775590777397156,-0.8403648138046265,38.0859375,-24.6124267578125,0.4119873046875
16.9499999,-10.141838073730469,1.0582371950149536,-0.4644751250743866,30.0140380859375,-23.0255126953125,-1.52587890625
16.9699999,-9.981427192687988,1.4628572463989258,0.16519992053508759,19.8516845703125,-18.61572265625,-5.2490234375
16.9899999,-9.787496566772461,1.7310078144073486,0.8786720037460327,7.1258544921875,-12.237548828125,-6.28662109375
17.0099999,-9.655815124511719,1.9177556037902832,1.5945383310317993,-4.82177734375,-5.31005859375,-5.9356689453125
17.0299999,-9.50498104095459,1.8579005002975464,2.1787235736846924,-17.578125,5.1727294921875,-6.561279296875
17.0499999,-9.440337181091309,1.7597382068634033,2.7126305103302,-30.09033203125,16.2353515625,-5.43212890625
17.0699999,-9.411606788635254,1.522712230682373,2.937685489654541,-48.0194091796875,32.5469970703125,-2.166748046875
17.089999900000002,-9.473855972290039,1.213860273361206,2.671929121017456,-59.2803955078125,42.388916015625,2.716064453125
17.109999900000002,-9.62947940826416,0.9050082564353943,1.946485996246338,-46.5240478515625,33.75244140625,5.5999755859375
17.1299999,-9.909601211547852,0.5267243981361389,0.6919242739677429,-19.012451171875,16.8609619140625,5.126953125
17.1499999,-10.1753568649292,0.2777273952960968,-0.5506663918495178,14.6026611328125,-2.2125244140625,3.997802734375
17.1699999,-10.378864288330078,0.21547815203666687,-1.53707754611969,41.1224365234375,-19.8822021484375,2.44140625
17.1899999,-10.462661743164062,0.33997663855552673,-1.987187385559082,54.8248291015625,-32.16552734375,1.0833740234375
17.2099999,-10.393229484558105,0.6871358752250671,-1.8483237028121948,61.1724853515625,-40.313720703125,0.1068115234375
17.2299999,-10.225635528564453,1.1109095811843872,-1.1683704853057861,56.2896728515625,-43.6248779296875,-1.5411376953125
17.249999900000002,-9.971850395202637,1.5107412338256836,-0.13168109953403473,40.008544921875,-38.0859375,-3.60107421875
17.269999900000002,-9.713275909423828,1.8076223134994507,1.070208191871643,18.707275390625,-25.7568359375,-3.631591796875
17.2899999,-9.512163162231445,1.9560627937316895,2.164358377456665,-2.2430419921875,-12.054443359375,-1.556396484375
17.3099999,-9.368511199951172,1.9512743949890137,2.935291290283203,-21.6827392578125,-0.3814697265625,-0.3662109375
17.3299999,-9.35654067993164,1.7980455160140991,3.251325845718384,-35.6597900390625,8.30078125,-0.48828125
17.3499999,-9.41639518737793,1.534683346748352,3.141192674636841,-41.7633056640625,14.984130859375,1.40380859375
17.3699999,-9.53849983215332,1.192312479019165,2.6431987285614014,-39.73388671875,16.693115234375,4.1656494140625
17.3899999,-9.694122314453125,0.8164227604866028,1.8842366933822632,-30.21240234375,12.725830078125,6.072998046875
17.409999900000003,-9.8784761428833,0.5363011956214905,1.0438719987869263,-11.9781494140625,3.6773681640625,5.767822265625
17.429999900000002,-9.971850395202637,0.4908113479614258,0.3758896589279175,5.0811767578125,-5.9356689453125,5.615234375
17.4499999,-10.103530883789062,0.5506663918495178,0.040701430290937424,10.4522705078125,-10.8795166015625,3.753662109375
17.4699999,-10.043676376342773,0.8595184087753296,0.07661445438861847,8.2550048828125,-9.3536376953125,2.6702880859375
17.4899999,-9.921571731567383,1.2258312702178955,0.608127236366272,3.2196044921875,-2.7313232421875,2.2430419921875
17.5099999,-9.80904483795166,1.5131354331970215,1.1899182796478271,-8.331298828125,1.7242431640625,1.52587890625
17.5299999,-9.607931137084961,1.7046716213226318,1.7908629179000854,-20.08056640625,10.4827880859375,-0.152587890625
17.5499999,-9.682151794433594,1.656787633895874,1.9129672050476074,-21.728515625,14.862060546875,1.2359619140625
17.5699999,-9.739612579345703,1.460463047027588,1.644816517829895,-6.4697265625,5.950927734375,2.5177001953125
17.589999900000002,-9.876082420349121,1.1971008777618408,1.0342950820922852,16.29638671875,-9.4451904296875,0.762939453125
17.609999900000002,-10.031704902648926,1.01753568649292,0.47165772318840027,30.487060546875,-17.6849365234375,-1.007080078125
17.6299999,-10.029311180114746,0.9600749015808105,0.27054479718208313,31.4483642578125,-20.6298828125,-5.67626953125
17.6499999,-9.995792388916016,1.0414776802062988,0.43335050344467163,22.1710205078125,-12.9852294921875,-5.340576171875
17.6699999,-9.840168952941895,1.2066776752471924,1.0295066833496094,11.3983154296875,-8.453369140625,-1.8463134765625
17.6899999,-9.627084732055664,1.5275006294250488,1.9273324012756348,-4.150390625,0.8544921875,-1.5716552734375
17.7099999,-9.282320022583008,1.843535304069519,3.1076738834381104,-39.0167236328125,23.3612060546875,-3.7841796875
17.7299999,-9.205705642700195,2.1475989818573,3.821146011352539,-86.7767333984375,62.01171875,-3.326416015625
17.749999900000002,-9.038111686706543,2.1523873805999756,4.168305397033691,-104.034423828125,75.8056640625,4.2877197265625
17.769999900000002,-9.26795482635498,1.946485996246338,3.315969467163086,-93.902587890625,69.0460205078125,3.143310546875
17.7899999,-9.624691009521484,1.3024457693099976,1.7190368175506592,-58.837890625,51.9256591796875,3.9520263671875
17.8099999,-10.055646896362305,0.6919242739677429,-0.20350714027881622,-11.749267578125,24.0325927734375,6.3934326171875
17.8299999,-10.457873344421387,0.15801730751991272,-1.7621324062347412,21.759033203125,-4.4403076171875,7.9345703125
17.8499999,-10.639832496643066,-0.011971008032560349,-2.408566951751709,35.003662109375,-21.087646484375,10.6964111328125
17.8699999,-10.551246643066406,0.2059013396501541,-1.9847931861877441,26.9775390625,-16.571044921875,13.5040283203125
17.8899999,-10.26394271850586,0.7015010714530945,-0.811634361743927,8.72802734375,-1.953125,13.8702392578125
17.909999900000003,-9.964667320251465,1.216254472732544,0.47405192255973816,-8.1939697265625,13.61083984375,12.39013671875
17.929999900000002,-9.667786598205566,1.5753847360610962,1.357512354850769,-13.092041015625,20.8740234375,15.350341796875
17.9499999,-9.576807022094727,1.7142484188079834,1.4963760375976562,-5.8135986328125,13.0157470703125,11.41357421875
17.9699999,-9.607931137084961,1.6831238269805908,1.1204863786697388,9.27734375,2.2735595703125,6.7291259765625
17.9899999,-9.730035781860352,1.6065093278884888,0.5889736413955688,16.6168212890625,-4.425048828125,1.2054443359375
18.0099999,-9.854534149169922,1.556231141090393,0.24420857429504395,7.659912109375,-2.044677734375,0.3204345703125
18.0299999,-9.890447616577148,1.525106430053711,0.15083470940589905,-5.8746337890625,4.0740966796875,2.86865234375
18.0499999,-9.8784761428833,1.4844050407409668,0.2322375625371933,-8.544921875,5.67626953125,4.241943359375
18.0699999,-9.885659217834473,1.4389152526855469,0.28969839215278625,-1.190185546875,2.655029296875,2.3956298828125
18.089999900000002,-9.8784761428833,1.400607943534851,0.2849099934101105,6.500244140625,-1.1444091796875,0.396728515625
18.109999900000002,-9.861717224121094,1.4269442558288574,0.31364041566848755,8.5906982421875,-4.4708251953125,0.946044921875
18.1299999,-9.828198432922363,1.5131354331970215,0.3974374830722809,4.3182373046875,-2.99072265625,1.15966796875
18.1499999,-9.799467086791992,1.5729905366897583,0.49799394607543945,-1.89208984375,2.349853515625,-1.5106201171875
18.1699999,-9.813833236694336,1.5753847360610962,0.5482721924781799,-3.9215087890625,4.1046142578125,-3.11279296875
18.1899999,-9.852140426635742,1.4939818382263184,0.5099649429321289,2.227783203125,-0.5950927734375,-1.556396484375
18.2099999,-9.86650562286377,1.403002142906189,0.43335050344467163,9.185791015625,-3.509521484375,-0.79345703125
18.2299999,-9.828198432922363,1.3407529592514038,0.38067805767059326,8.72802734375,-1.129150390625,-2.6397705078125
18.249999900000002,-9.80904483795166,1.41257905960083,0.40940847992897034,2.3040771484375,0.6561279296875,-3.509521484375
18.269999900000002,-9.84256362915039,1.4939818382263184,0.42377370595932007,-4.974365234375,0.67138671875,-2.899169921875
18.2899999,-9.897629737854004,1.50355863571167,0.3998316824436188,-6.2103271484375,-0.9918212890625,-2.349853515625
18.3099999,-9.928754806518555,1.403002142906189,0.33518823981285095,-0.8544921875,-4.730224609375,-0.18310546875
18.3299999,-9.940725326538086,1.3048399686813354,0.3064578175544739,4.791259765625,-7.354736328125,2.197265625
18.3499999,-9.892841339111328,1.280897855758667,0.40462008118629456,3.72314453125,-5.4168701171875,1.434326171875
18.3699999,-9.837775230407715,1.3766659498214722,0.5913678407669067,-7.2021484375,0.7476806640625,-0.3509521484375
18.3899999,-9.799467086791992,1.4891934394836426,0.7493851184844971,-16.7999267578125,5.1727294921875,-1.800537109375
18.409999900000003,-9.782708168029785,1.5682021379470825,0.7398083209991455,-14.0533447265625,3.8909912109375,-1.28173828125
18.429999900000002,-9.813833236694336,1.5682021379470825,0.6727706789970398,-13.97705078125,-1.220703125,0.0457763671875
18.4499999,-9.837775230407715,1.4748282432556152,0.569819986820221,-14.923095703125,-4.69970703125,-1.6326904296875
18.4699999,-9.852140426635742,1.3694833517074585,0.6129156351089478,3.6773681640625,0.274658203125,-2.9449462890625
18.4899999,-9.885659217834473,1.1875240802764893,0.6392518281936646,-5.9051513671875,6.9122314453125,2.44140625
18.5099999,-9.852140426635742,1.2090718746185303,0.7733271718025208,-46.0205078125,9.6435546875,9.0484619140625
18.5299999,-9.885659217834473,1.1348515748977661,0.646434485912323,-10.1776123046875,3.35693359375,2.3193359375
18.5499999,-9.871294021606445,1.3072341680526733,0.5793967843055725,7.9345703125,1.6021728515625,0.9002685546875
18.5699999,-9.86650562286377,1.45806884765625,0.4644751250743866,9.368896484375,-1.6021728515625,0.2899169921875
18.589999900000002,-9.86650562286377,1.5945383310317993,0.45489832758903503,6.6986083984375,-1.5716552734375,-1.861572265625
18.609999900000002,-9.885659217834473,1.7334020137786865,0.4908113479614258,1.556396484375,2.62451171875,-2.9296875
18.6299999,-9.916783332824707,1.8076223134994507,0.4572925269603729,-1.40380859375,2.5634765625,-3.662109375
18.6499999,-9.952696800231934,1.6711528301239014,0.38307225704193115,-0.0457763671875,-6.011962890625,-3.8604736328125
18.6699999,-9.983820915222168,1.381454348564148,0.2537853717803955,2.25830078125,-12.02392578125,0.91552734375
18.6899999,-9.976638793945312,1.036689281463623,0.2585737705230713,10.5133056640625,-10.31494140625,7.4462890625
18.7099999,-9.914389610290527,0.8212111592292786,0.48602294921875,15.838623046875,-5.8441162109375,9.9334716796875
18.7299999,-9.792284965515137,0.8882488012313843,0.8212111592292786,9.1705322265625,1.0528564453125,8.1787109375
18.749999900000002,-9.670180320739746,1.1827356815338135,1.1013327836990356,1.708984375,7.171630859375,4.9285888671875
18.769999900000002,-9.617507934570312,1.5610195398330688,1.158793568611145,0.518798828125,8.72802734375,1.678466796875
18.7899999,-9.636661529541016,1.8818424940109253,0.9672574996948242,2.99072265625,4.608154296875,-0.48828125
18.8099999,-9.72285270690918,2.0470423698425293,0.6919242739677429,7.38525390625,-1.251220703125,-4.4403076171875
18.8299999,-9.914389610290527,1.9704279899597168,0.2753331959247589,10.040283203125,-3.936767578125,-6.9580078125
18.8499999,-10.426748275756836,1.8267759084701538,0.038307227194309235,23.193359375,-9.4451904296875,-9.368896484375
18.8699999,-11.494562149047852,1.6615760326385498,-0.10295066982507706,36.43798828125,-14.2822265625,-13.5498046875
18.8899999,-12.492944717407227,1.5945383310317993,-0.15322890877723694,37.0941162109375,-22.27783203125,-16.1895751953125
18.909999900000003,-13.69962215423584,1.7573440074920654,-0.05746084079146385,35.797119140625,-24.5361328125,-18.2647705078125
18.929999900000002,-13.924676895141602,1.9153614044189453,0.17477671802043915,35.9649658203125,-44.0673828125,-25.0091552734375
18.9499999,-13.46259593963623,2.1140801906585693,0.49559974670410156,28.80859375,-39.61181640625,-35.64453125
18.9699999,-12.224793434143066,2.1284453868865967,0.8690952062606812,22.369384765625,-6.683349609375,-36.5447998046875
18.9899999,-10.644620895385742,2.0446481704711914,1.1971008777618408,17.2882080078125,19.0277099609375,-28.8543701171875
19.0099999,-9.107542991638184,1.9033904075622559,1.3718775510787964,15.2130126953125,28.9764404296875,-18.8446044921875
19.0299999,-7.934384346008301,1.7286136150360107,1.3886369466781616,11.41357421875,33.4014892578125,-13.397216796875
19.0499999,-7.254431247711182,1.5682021379470825,1.314416766166687,5.5389404296875,30.9295654296875,-11.1846923828125
19.0699999,-7.000645637512207,1.3958195447921753,1.2306196689605713,-0.885009765625,23.651123046875,-11.1083984375
19.089999900000002,-7.060500621795654,1.170764684677124,1.1540051698684692,-4.8065185546875,23.406982421875,-13.85498046875
19.109999900000002,-7.311892032623291,0.912190854549408,1.072602391242981,-3.7689208984375,34.1949462890625,-18.3563232421875
19.1299999,-7.663839817047119,0.5602431893348694,0.9552865028381348,1.6937255859375,42.8619384765625,-22.857666015625
19.1499999,-8.066065788269043,0.14844051003456116,0.7781155705451965,8.4991455078125,42.0074462890625,-26.0162353515625
19.1699999,-8.559270858764648,-0.2585737705230713,0.5482721924781799,16.66259765625,40.4510498046875,-31.9061279296875
19.1899999,-9.105149269104004,-0.6584054827690125,0.2944868206977844,28.3203125,43.64013671875,-43.182373046875
19.2099999,-9.610325813293457,-1.0223240852355957,0.0933738648891449,39.794921875,37.0941162109375,-53.1463623046875
19.2299999,-10.055646896362305,-1.2761094570159912,-0.06703764945268631,44.4793701171875,16.11328125,-59.8602294921875
19.249999900000002,-10.271124839782715,-1.4508862495422363,-0.15322890877723694,47.1649169921875,-4.9285888671875,-69.2596435546875
19.269999900000002,-10.402806282043457,-1.4221558570861816,-0.21787235140800476,52.8106689453125,-10.498046875,-79.2388916015625
19.2899999,-10.307038307189941,-1.3000515699386597,-0.2298433631658554,59.295654296875,-13.275146484375,-80.535888671875
19.3099999,-10.168174743652344,-1.115697979927063,-0.21547815203666687,59.8602294921875,-22.8424072265625,-70.8770751953125
19.3299999,-9.928754806518555,-0.9481038451194763,-0.181959331035614,54.9774169921875,-31.9366455078125,-55.23681640625
19.3499999,-9.651026725769043,-0.8236053586006165,-0.11013327538967133,48.6602783203125,-34.7747802734375,-38.6505126953125
19.3699999,-9.363722801208496,-0.6991068720817566,0.004788403399288654,41.229248046875,-29.8614501953125,-20.477294921875
19.3899999,-9.148244857788086,-0.5339069962501526,0.1364694982767105,32.3028564453125,-20.294189453125,-0.30517578125
19.409999900000003,-9.035717010498047,-0.3711012601852417,0.2849099934101105,21.7437744140625,-15.2740478515625,18.3258056640625
19.429999900000002,-9.05247688293457,-0.2298433631658554,0.4405331015586853,11.993408203125,-16.5863037109375,34.6832275390625
19.4499999,-9.229647636413574,-0.10055647045373917,0.5626373887062073,3.204345703125,-18.2037353515625,49.2095947265625
19.4699999,-9.543288230895996,0.07182604819536209,0.6607996821403503,-5.523681640625,-20.3704833984375,58.441162109375
19.4899999,-9.864110946655273,0.21308395266532898,0.7493851184844971,-12.542724609375,-26.2298583984375,61.21826171875
19.5099999,-10.11550235748291,0.3423708379268646,0.8403648138046265,-19.1802978515625,-28.8543701171875,60.3179931640625
19.5299999,-10.24239444732666,0.4620809257030487,0.933738648891449,-26.0772705078125,-19.3634033203125,55.755615234375
19.5499999,-10.046070098876953,0.4165911078453064,0.9911994934082031,-34.3780517578125,17.27294921875,46.32568359375
19.5699999,-9.974244117736816,0.363918662071228,0.871489405632019,-37.384033203125,23.529052734375,44.5098876953125
19.589999900000002,-10.007762908935547,0.24660277366638184,0.646434485912323,-35.9649658203125,27.587890625,33.9508056640625
19.609999900000002,-10.17296314239502,0.15562310814857483,0.3878606855869293,-32.0892333984375,21.759033203125,22.94921875
19.6299999,-10.38604736328125,0.05267243832349777,0.1604115068912506,-30.21240234375,11.7645263671875,19.134521484375
19.6499999,-10.565611839294434,-0.05985504388809204,0.016759412363171577,-28.4271240234375,5.3863525390625,18.6920166015625
19.6699999,-10.678139686584473,-0.181959331035614,-0.031124621629714966,-22.3541259765625,4.9896240234375,15.9149169921875
19.6899999,-10.74996566772461,-0.2561795711517334,0.002394201699644327,-15.4266357421875,5.706787109375,11.90185546875
19.7099999,-10.788272857666016,-0.28730419278144836,0.0454898327589035,-10.4522705078125,6.34765625,8.148193359375
19.7299999,-10.78587818145752,-0.2513911724090576,0.1173158809542656,-5.79833984375,3.41796875,4.0283203125
19.749999900000002,-10.687716484069824,-0.2106897532939911,0.15083470940589905,-1.251220703125,3.509521484375,-0.5645751953125
19.769999900000002,-10.527304649353027,-0.0933738648891449,0.1843535304069519,2.5634765625,5.6915283203125,-4.0130615234375
19.7899999,-10.268731117248535,0.002394201699644327,0.1843535304069519,5.5389404296875,8.8958740234375,-3.692626953125
19.8099999,-9.979032516479492,0.12449848651885986,0.17717093229293823,6.195068359375,7.0037841796875,2.471923828125
19.8299999,-9.691728591918945,0.24181437492370605,0.14844051003456116,5.0506591796875,1.129150390625,10.7421875
19.8499999,-9.445125579833984,0.363918662071228,0.11252748221158981,4.8370361328125,-1.15966796875,15.899658203125
19.8699999,-9.260771751403809,0.4836287498474121,0.07900865375995636,6.3934326171875,5.126953125,16.2506103515625
19.8899999,-9.157821655273438,0.5746083855628967,0.031124621629714966,8.9111328125,17.39501953125,14.0838623046875
19.909999900000003,-9.21288776397705,0.6584054827690125,0.002394201699644327,11.932373046875,21.759033203125,14.7857666015625
19.929999900000002,-9.445125579833984,0.7086837291717529,-0.0933738648891449,11.9171142578125,12.969970703125,16.9830322265625
19.9499999,-9.787496566772461,0.7613561153411865,-0.1173158809542656,12.4053955078125,-7.2479248046875,13.946533203125
19.9699999,-10.096348762512207,0.7374141216278076,-0.12449848651885986,12.1307373046875,-25.5279541015625,14.3280029296875
19.9899999,-10.295066833496094,0.6943184733390808,0.019153613597154617,11.8255615234375,-26.763916015625,20.32470703125
20.0099999,-10.350133895874023,0.608127236366272,0.26815059781074524,8.7890625,-13.6871337890625,18.646240234375
20.0299999,-10.335768699645996,0.49320554733276367,0.586579442024231,3.021240234375,1.373291015625,2.9296875
20.0499999,-10.366893768310547,0.3734954595565796,0.9313444495201111,-5.2337646484375,8.36181640625,-17.913818359375
20.0699999,-10.417171478271484,0.14604631066322327,1.1875240802764893,-15.045166015625,9.1094970703125,-34.4696044921875
20.089999900000002,-10.488997459411621,-0.181959331035614,1.3910311460494995,-23.5595703125,0.396728515625,-45.3338623046875
20.109999900000002,-10.579977035522461,-0.5626373887062073,1.5155296325683594,-29.815673828125,-8.4075927734375,-55.389404296875
