# Time (seconds),Accel_X,Accel_Y,Accel_Z,Gyro_X,Gyro_Y,Gyro_Z
0.0099999,2.1284453868865967,-8.154650688171387,2.387019157409668,-0.1373291015625,-30.059814453125,-100.8148193359375
0.029999900000000003,2.846705913543701,-7.920019149780273,2.564189910888672,-4.6844482421875,-24.0325927734375,-100.9674072265625
0.0499999,3.557783842086792,-7.668628215789795,2.7078421115875244,-9.7808837890625,-11.383056640625,-99.517822265625
0.0699999,4.185064792633057,-7.457938194274902,2.8155810832977295,-14.190673828125,-1.6632080078125,-98.236083984375
0.08999990000000001,4.63517427444458,-7.2783732414245605,2.8347349166870117,-17.2119140625,6.011962890625,-98.8922119140625
0.10999990000000001,4.900930881500244,-7.141903877258301,2.7557260990142822,-16.1895751953125,12.14599609375,-104.248046875
0.1299999,5.027823448181152,-7.029376029968262,2.626439332962036,-12.786865234375,10.009765625,-113.6016845703125
0.14999990000000002,5.12119722366333,-6.868964672088623,2.4684219360351562,-9.307861328125,2.3040771484375,-119.2169189453125
0.1699999,5.30076265335083,-6.67982292175293,2.3750481605529785,-7.2021484375,-6.04248046875,-121.368408203125
0.1899999,5.643133640289307,-6.461950302124023,2.3750481605529785,-9.46044921875,-11.41357421875,-120.9716796875
0.20999990000000002,6.141127586364746,-6.2392897605896,2.470816135406494,-16.387939453125,-16.17431640625,-115.8447265625
0.2299999,6.710947513580322,-6.011840343475342,2.628833532333374,-26.4129638671875,-22.52197265625,-107.4676513671875
0.2499999,7.2783732414245605,-5.762843608856201,2.7892448902130127,-38.3453369140625,-25.421142578125,-100.09765625
0.2699999,7.714118003845215,-5.501875400543213,2.868253707885742,-50.3387451171875,-23.345947265625,-96.6949462890625
0.28999990000000003,7.996633529663086,-5.214571475982666,2.8443117141723633,-60.6689453125,-23.712158203125,-94.4061279296875
0.3099999,8.087613105773926,-4.95120906829834,2.674323320388794,-67.2149658203125,-24.9176025390625,-93.505859375
0.3299999,8.037335395812988,-4.711789131164551,2.38462495803833,-69.0460205078125,-21.97265625,-95.6268310546875
0.34999990000000003,7.910442352294922,-4.527435302734375,2.006340980529785,-68.145751953125,-15.3961181640625,-100.3570556640625
0.3699999,7.750030994415283,-4.417302131652832,1.577778935432434,-64.8345947265625,-11.3372802734375,-103.3782958984375
0.3899999,7.603984832763672,-4.390965938568115,1.1420341730117798,-58.59375,-12.4969482421875,-100.921630859375
0.40999990000000003,7.524975776672363,-4.405331134796143,0.7326257228851318,-48.8739013671875,-12.51220703125,-98.480224609375
0.4299999,7.536946773529053,-4.448426723480225,0.3998316824436188,-35.7818603515625,-7.8887939453125,-98.4649658203125
0.4499999,7.671022415161133,-4.422090530395508,0.18914192914962769,-22.064208984375,-2.4261474609375,-94.390869140625
0.4699999,7.8745293617248535,-4.309563159942627,0.08858546614646912,-11.383056640625,0.4730224609375,-85.235595703125
0.4899999,8.094796180725098,-4.079719543457031,0.08619125932455063,-3.2806396484375,0.9002685546875,-75.6683349609375
0.5099999,8.451532363891602,-3.2752678394317627,0.3064578175544739,8.72802734375,10.0860595703125,-65.5517578125
0.5299999,8.585607528686523,-2.765302896499634,0.49320554733276367,11.9171142578125,18.6309814453125,-63.41552734375
0.5499999,8.662221908569336,-2.248155355453491,0.6727706789970398,11.627197265625,23.4832763671875,-58.8226318359375
0.5699999,8.674192428588867,-1.764526605606079,0.8020575642585754,8.3770751953125,23.101806640625,-51.5594482421875
0.5899998999999999,8.62630844116211,-1.357512354850769,0.8786720037460327,5.1116943359375,18.2037353515625,-48.187255859375
0.6099998999999999,8.573636054992676,-0.9983820915222168,0.912190854549408,2.74658203125,14.3585205078125,-49.3316650390625
0.6299999,8.585607528686523,-0.7493851184844971,0.9289502501487732,-0.457763671875,15.289306640625,-52.4139404296875
0.6499999,8.683769226074219,-0.5889736413955688,0.9026140570640564,-4.7454833984375,18.9666748046875,-51.177978515625
0.6699999,8.927978515625,-0.49559974670410156,0.8858546018600464,-8.056640625,20.721435546875,-47.2869873046875
0.6899999,9.224859237670898,-0.45010992884635925,0.8212111592292786,-9.033203125,25.9857177734375,-48.2025146484375
0.7099999,9.576807022094727,-0.40701428055763245,0.7326257228851318,-8.6669921875,31.3262939453125,-49.7283935546875
0.7299998999999999,9.955090522766113,-0.3447650372982025,0.6392518281936646,-8.2550048828125,31.7535400390625,-45.9136962890625
0.7499998999999999,10.342951774597168,-0.27054479718208313,0.5722141861915588,-8.697509765625,29.9530029296875,-38.299560546875
0.7699999,10.72841739654541,-0.16998831927776337,0.5674257874488831,-9.3536376953125,33.38623046875,-30.8685302734375
0.7899999,11.037269592285156,-0.038307227194309235,0.6248866319656372,-9.5062255859375,40.0238037109375,-23.773193359375
0.8099999,11.238382339477539,0.1412578970193863,0.7781155705451965,-8.9263916015625,35.70556640625,-13.2904052734375
0.8299999,11.293449401855469,0.3519476354122162,0.9840168952941895,-7.26318359375,26.123046875,-1.64794921875
0.8499998999999999,11.221623420715332,0.5841852426528931,1.2449848651885986,-4.974365234375,21.453857421875,6.16455078125
0.8699998999999999,11.037269592285156,0.7805097699165344,1.5155296325683594,-3.387451171875,14.9078369140625,10.9710693359375
0.8899999,10.807426452636719,0.912190854549408,1.7860745191574097,-0.518798828125,-0.518798828125,16.2811279296875
0.9099999,10.591948509216309,0.9888052940368652,2.073378562927246,2.197265625,-17.1356201171875,21.4385986328125
0.9299999,10.429142951965332,0.9888052940368652,2.3558945655822754,0.030517578125,-20.172119140625,23.712158203125
0.9499999,10.335768699645996,1.0007762908935547,2.7293899059295654,-10.43701171875,-14.923095703125,23.468017578125
0.9699998999999999,10.261548042297363,1.039083480834961,3.0526070594787598,-26.336669921875,-14.7552490234375,23.3917236328125
0.9899998999999999,10.146626472473145,1.0247182846069336,3.3710360527038574,-43.4417724609375,-20.1873779296875,24.810791015625
1.0099999,10.005369186401367,0.9959878921508789,3.5434184074401855,-59.967041015625,-25.2685546875,25.787353515625
1.0299999,9.823410034179688,0.9169792532920837,3.600879430770874,-74.70703125,-26.8096923828125,24.7802734375
1.0499999,9.701305389404297,0.730231523513794,3.5194764137268066,-87.34130859375,-27.77099609375,23.37646484375
1.0699999,9.603142738342285,0.5626373887062073,3.332728862762451,-98.7548828125,-31.0211181640625,24.169921875
1.0899999,9.57441234588623,0.363918662071228,3.0621838569641113,-108.5662841796875,-36.773681640625,24.6734619140625
1.1099999,9.612719535827637,0.17238251864910126,2.736572504043579,-115.936279296875,-43.64013671875,22.1405029296875
1.1299999,9.742006301879883,0,2.3965959548950195,-119.842529296875,-49.31640625,20.660400390625
1.1499999,9.916783332824707,-0.14604631066322327,2.0661959648132324,-123.016357421875,-50.35400390625,24.139404296875
1.1699998999999999,10.105925559997559,-0.2753331959247589,1.7286136150360107,-128.143310546875,-48.187255859375,30.9295654296875
1.1899998999999999,10.254365921020508,-0.42377370595932007,1.37906014919281,-132.598876953125,-45.196533203125,36.3006591796875
1.2099999,10.278307914733887,-0.6057330369949341,0.9576807022094727,-133.9569091796875,-47.0123291015625,43.5028076171875
1.2299999,10.168174743652344,-0.7709329724311829,0.5386953949928284,-134.307861328125,-56.304931640625,56.976318359375
1.2499999,9.967061996459961,-1.0031704902648926,0.08619125932455063,-134.979248046875,-67.474365234375,70.9686279296875
1.2699999,9.59835433959961,-1.1348515748977661,-0.29209262132644653,-133.9569091796875,-68.695068359375,78.948974609375
1.2899999,9.148244857788086,-1.3407529592514038,-0.6871358752250671,-134.1094970703125,-75.897216796875,88.07373046875
1.3099999,8.616731643676758,-1.5203180313110352,-1.05105459690094,-132.598876953125,-83.984375,97.076416015625
1.3299999,8.02536392211914,-1.7477672100067139,-1.4891934394836426,-124.542236328125,-77.0416259765625,92.437744140625
1.3499999,7.438784599304199,-2.0231003761291504,-1.941697597503662,-116.455078125,-74.5391845703125,82.3516845703125
1.3699999,6.904877662658691,-2.2601263523101807,-2.4205379486083984,-115.447998046875,-89.3707275390625,84.28955078125
1.3899999,6.4834980964660645,-2.451662540435791,-2.8586769104003906,-113.0218505859375,-86.8072509765625,81.3140869140625
1.4099999,6.19379997253418,-2.557007312774658,-3.251325845718384,-107.3455810546875,-57.220458984375,63.995361328125
1.4299998999999999,6.026205539703369,-2.607285737991333,-3.6296098232269287,-109.3292236328125,-37.0330810546875,51.177978515625
1.4499999,5.935225963592529,-2.5306711196899414,-3.993528366088867,-124.69482421875,-43.9453125,52.8717041015625
1.4699999,5.882553577423096,-2.4875755310058594,-4.398148536682129,-139.2669677734375,-39.520263671875,48.095703125
1.4899999,5.875370979309082,-2.408566951751709,-4.809951305389404,-146.728515625,-17.4560546875,34.4085693359375
1.5099999,5.841852188110352,-2.3702597618103027,-5.243301868438721,-153.4423828125,-8.758544921875,28.839111328125
1.5299999,5.825092792510986,-2.2888567447662354,-5.669469833374023,-162.3077392578125,-23.4527587890625,32.806396484375
1.5499999,5.789179801940918,-2.205059766769409,-6.1315507888793945,-166.2750244140625,-35.4461669921875,31.3568115234375
1.5699999,5.808333396911621,-2.10210919380188,-6.54574728012085,-163.8336181640625,-31.951904296875,28.5186767578125
1.5899999,5.770026206970215,-2.013523578643799,-7.003039836883545,-158.7371826171875,-29.1900634765625,35.1715087890625
1.6099999,5.700594425201416,-1.8818424940109253,-7.489062786102295,-152.2979736328125,-41.168212890625,44.3878173828125
1.6299999,5.590460777282715,-1.7405846118927002,-7.953537940979004,-139.0533447265625,-48.736572265625,35.15625
1.6499999,5.489904403686523,-1.5466543436050415,-8.341399192810059,-121.2310791015625,-39.8101806640625,18.9361572265625
1.6699999,5.442020416259766,-1.3287819623947144,-8.59997272491455,-106.8878173828125,-32.470703125,15.380859375
1.6899998999999999,5.547365188598633,-1.137245774269104,-8.62391471862793,-97.1832275390625,-42.54150390625,22.3541259765625
1.7099999,5.669469833374023,-0.9864110946655273,-8.465897560119629,-88.409423828125,-48.004150390625,29.6173095703125
1.7299999,5.700594425201416,-0.7972691655158997,-8.214506149291992,-82.763671875,-47.2259521484375,39.2303466796875
1.7499999,5.571307182312012,-0.5841852426528931,-7.953537940979004,-83.8623046875,-61.3861083984375,49.957275390625
1.7699999,5.324704647064209,-0.3280056416988373,-7.783549785614014,-86.42578125,-86.8377685546875,53.436279296875
1.7899999,5.044582843780518,-0.07422025501728058,-7.716512203216553,-86.1968994140625,-96.9390869140625,50.84228515625
1.8099999,4.8482584953308105,0.14365209639072418,-7.723694801330566,-83.770751953125,-86.822509765625,53.28369140625
1.8299999,4.692635536193848,0.2968810200691223,-7.762001991271973,-81.5887451171875,-70.953369140625,60.5621337890625
1.8499999,4.458003520965576,0.3878606855869293,-7.869740962982178,-80.0018310546875,-61.798095703125,62.8509521484375
1.8699999,4.113238334655762,0.4141969084739685,-8.078036308288574,-78.643798828125,-70.86181640625,60.6842041015625
1.8899999,3.7612907886505127,0.3926490843296051,-8.343792915344238,-74.493408203125,-77.3773193359375,59.9212646484375
1.9099999,3.4356794357299805,0.33518823981285095,-8.678980827331543,-64.5599365234375,-61.03515625,57.3883056640625
1.9299998999999999,3.203441858291626,0.272938996553421,-9.045293807983398,-53.985595703125,-48.5687255859375,52.642822265625
1.9499999,3.0765492916107178,0.15322890877723694,-9.402029991149902,-44.0826416015625,-60.6689453125,52.0782470703125
1.9699999,2.940079689025879,0.038307227194309235,-9.763554573059082,-31.2652587890625,-72.2808837890625,59.478759765625
1.9899999,2.851494312286377,-0.08619125932455063,-10.074800491333008,-16.3726806640625,-68.359375,63.995361328125
2.0099999,2.7724854946136475,-0.2082955539226532,-10.247182846069336,-2.7313232421875,-56.549072265625,56.5643310546875
2.0299999,2.6360161304473877,-0.2298433631658554,-10.309432983398438,5.67626953125,-50.323486328125,45.83740234375
2.0499999,2.477998733520508,-0.1843535304069519,-10.247182846069336,6.3323974609375,-51.6204833984375,38.63525390625
2.0699999,2.3319525718688965,-0.05267243832349777,-10.101137161254883,0.640869140625,-48.7213134765625,31.646728515625
2.0899999,2.2697031497955322,0.07900865375995636,-9.904812812805176,-8.697509765625,-39.154052734375,25.299072265625
2.1099999,2.2673089504241943,0.2346317619085312,-9.768342971801758,-20.6298828125,-32.9742431640625,23.895263671875
2.1299999,2.3343467712402344,0.3471592366695404,-9.732429504394531,-34.24072265625,-31.4788818359375,24.5361328125
2.1499999,2.4205379486083984,0.4118026793003082,-9.816226959228516,-44.8150634765625,-26.123046875,22.186279296875
2.1699999,2.499546527862549,0.4189853072166443,-10.029311180114746,-48.370361328125,-13.641357421875,19.3634033203125
2.1899999,2.537853717803955,0.3998316824436188,-10.319009780883789,-46.7987060546875,-7.6904296875,19.6075439453125
2.2099999,2.5091233253479004,0.30885201692581177,-10.663774490356445,-43.2586669921875,-10.7574462890625,20.44677734375
2.2299999,2.4372973442077637,0.2513911724090576,-10.967838287353516,-37.8265380859375,-14.2059326171875,18.8140869140625
2.2499999,2.3056161403656006,0.20111294090747833,-11.226411819458008,-28.961181640625,-8.2244873046875,13.6566162109375
2.2699999,2.1787235736846924,0.2059013396501541,-11.401188850402832,-21.087646484375,-2.7008056640625,8.758544921875
2.2899999,2.0590133666992188,0.2346317619085312,-11.508927345275879,-16.2200927734375,-4.791259765625,7.26318359375
2.3099999,2.0231003761291504,0.2992752194404602,-11.525687217712402,-9.368896484375,-4.669189453125,5.7373046875
2.3299999,2.027888774871826,0.40701428055763245,-11.463438034057617,1.8310546875,9.2315673828125,-1.1749267578125
2.3499999,2.078166961669922,0.4668693244457245,-11.348516464233398,11.41357421875,18.096923828125,-8.23974609375
2.3699999,2.1332337856292725,0.5315127968788147,-11.202469825744629,14.4805908203125,4.45556640625,-5.6610107421875
2.3899999,2.0853497982025146,0.49799394607543945,-11.08994197845459,14.2364501953125,-10.92529296875,2.74658203125
2.4099999,1.9776105880737305,0.42377370595932007,-11.018115997314453,14.1448974609375,-9.0179443359375,6.134033203125
2.4299999,1.7980455160140991,0.363918662071228,-10.939107894897461,12.1307373046875,9.3231201171875,-1.5716552734375
2.4499999,1.5849615335464478,0.3711012601852417,-10.831368446350098,8.514404296875,31.4178466796875,-19.9127197265625
2.4699999,1.41257905960083,0.3974374830722809,-10.6925048828125,4.5166015625,44.3115234375,-39.36767578125
2.4899999,1.314416766166687,0.4668693244457245,-10.551246643066406,-2.3345947265625,50.4608154296875,-52.154541015625
2.5099999,1.2976573705673218,0.5889736413955688,-10.36449909210205,-10.3607177734375,55.84716796875,-57.708740234375
2.5299999,1.5394717454910278,0.8307880163192749,-10.002974510192871,-19.0887451171875,69.5648193359375,-59.75341796875
2.5499999,1.8339585065841675,1.0965443849563599,-9.66539192199707,-43.4112548828125,97.991943359375,-61.004638671875
2.5699999,2.205059766769409,1.3072341680526733,-9.44991397857666,-60.516357421875,113.983154296875,-60.3179931640625
2.5899999,2.5043349266052246,1.357512354850769,-9.495404243469238,-46.6766357421875,106.048583984375,-59.3109130859375
2.6099999,2.671929121017456,1.1444283723831177,-9.90241813659668,-10.6964111328125,94.268798828125,-58.7310791015625
2.6299999,2.760514497756958,0.8571242094039917,-10.366893768310547,33.3709716796875,88.775634765625,-57.3883056640625
2.6499999,2.7748796939849854,0.5937620401382446,-10.72841739654541,74.188232421875,82.6873779296875,-54.7332763671875
2.6699999,2.7676970958709717,0.49320554733276367,-10.843339920043945,103.790283203125,60.8062744140625,-51.9561767578125
2.6899999,2.7892448902130127,0.5793967843055725,-10.673351287841797,124.2523193359375,32.7301025390625,-49.224853515625
2.7099999,2.911349296569824,0.790086567401886,-10.261548042297363,137.0391845703125,20.965576171875,-45.5322265625
2.7299999,3.181894063949585,1.0319008827209473,-9.682151794433594,140.106201171875,26.397705078125,-40.2984619140625
2.7499999,3.5266590118408203,1.1899182796478271,-9.064447402954102,136.90185546875,32.0892333984375,-34.454345703125
2.7699999,3.8738183975219727,1.2090718746185303,-8.525752067565918,131.378173828125,29.8614501953125,-30.1361083984375
2.7899999,4.132391929626465,1.113303780555725,-8.157045364379883,122.6959228515625,26.9622802734375,-28.8848876953125
2.8099999,4.343081951141357,0.8978256583213806,-7.931990146636963,114.44091796875,31.585693359375,-33.050537109375
2.8299999,4.551377296447754,0.5913678407669067,-7.807491779327393,110.0311279296875,39.8406982421875,-38.5894775390625
2.8499999,4.721365928649902,0.2537853717803955,-7.785943984985352,106.964111328125,46.8902587890625,-41.9769287109375
2.8699999,4.891354084014893,-0.1149216815829277,-7.82185697555542,106.414794921875,46.4630126953125,-44.8150634765625
2.8899999,5.073313236236572,-0.5099649429321289,-7.8745293617248535,110.9771728515625,42.572021484375,-45.379638671875
2.9099999,5.233725070953369,-0.8834604024887085,-7.910442352294922,118.8507080078125,39.5660400390625,-41.107177734375
2.9299999,5.413290023803711,-1.192312479019165,-7.881711959838867,125.4425048828125,35.94970703125,-37.7197265625
2.9499999,5.592854976654053,-1.4173674583435059,-7.757213592529297,129.9285888671875,32.257080078125,-40.283203125
2.9699999,5.726930618286133,-1.5849615335464478,-7.592013359069824,133.48388671875,33.2794189453125,-41.9769287109375
2.9899999,5.851428985595703,-1.7357962131500244,-7.378929615020752,136.1236572265625,27.984619140625,-34.85107421875
3.0099999,5.959167957305908,-1.9177556037902832,-7.151480674743652,137.3138427734375,15.8843994140625,-26.3519287109375
3.0299999,6.064512729644775,-2.1092917919158936,-6.921637058258057,138.6260986328125,7.6446533203125,-26.4129638671875
3.0499999,6.196194171905518,-2.276885747909546,-6.672640323638916,140.0146484375,6.378173828125,-31.463623046875
3.0699999,6.294356346130371,-2.408566951751709,-6.428431510925293,138.97705078125,9.979248046875,-34.1644287109375
3.0899999,6.375759124755859,-2.5474305152893066,-6.208165168762207,136.0626220703125,9.58251953125,-35.919189453125
3.1099999,6.461950302124023,-2.7246015071868896,-5.995080947875977,133.941650390625,2.227783203125,-39.581298828125
3.1299999,6.514622688293457,-2.978386878967285,-5.861005783081055,134.6435546875,-0.4730224609375,-39.6575927734375
3.1499999,6.607996463775635,-3.268085241317749,-5.75326681137085,136.5966796875,-1.983642578125,-32.16552734375
3.1699999,6.710947513580322,-3.5936968326568604,-5.655104637145996,140.289306640625,-5.67626953125,-25.4974365234375
3.1899999,6.799532890319824,-3.9240965843200684,-5.504269599914551,146.5301513671875,-5.5389404296875,-23.4375
3.2099999,6.797138690948486,-4.19224739074707,-5.34625244140625,152.862548828125,-3.082275390625,-22.4609375
3.2299999,6.722918510437012,-4.37420654296875,-5.149928092956543,157.440185546875,-13.458251953125,-22.1710205078125
3.2499999,6.607996463775635,-4.458003520965576,-4.948814868927002,162.41455078125,-31.005859375,-26.1688232421875
3.2699999,6.57926607131958,-4.484339714050293,-4.6950297355651855,167.3431396484375,-38.1317138671875,-31.2652587890625
3.2899999,6.66785192489624,-4.508281707763672,-4.410119533538818,171.7529296875,-31.7535400390625,-30.059814453125
3.3099999,6.8809356689453125,-4.541800498962402,-4.065354347229004,173.492431640625,-25.177001953125,-23.3917236328125
3.3299999000000002,7.122750282287598,-4.608838081359863,-3.711012601852417,174.346923828125,-25.360107421875,-19.9127197265625
3.3499999,7.333439826965332,-4.659116744995117,-3.335123062133789,176.1322021484375,-29.449462890625,-19.8974609375
3.3699999,7.594407558441162,-4.752490520477295,-2.8634653091430664,180.0994873046875,-30.8380126953125,-14.2974853515625
3.3899999,7.838616371154785,-4.879383087158203,-2.3918075561523438,181.6253662109375,-27.984619140625,2.1514892578125
3.4099999,8.097189903259277,-5.056553840637207,-1.9105730056762695,177.9632568359375,-40.557861328125,26.1688232421875
3.4299999,8.279149055480957,-5.228936672210693,-1.522712230682373,174.6826171875,-65.338134765625,52.1392822265625
3.4499999,8.372523307800293,-5.315127849578857,-1.158793568611145,173.33984375,-82.7178955078125,75.0579833984375
3.4699999,8.324639320373535,-5.324704647064209,-0.8236053586006165,172.6837158203125,-81.5582275390625,91.522216796875
3.4899999,8.149862289428711,-5.25527286529541,-0.4884171485900879,166.656494140625,-79.315185546875,105.926513671875
3.5099999,7.829039573669434,-5.102043628692627,-0.20350714027881622,156.9976806640625,-95.03173828125,118.7286376953125
3.5299999,7.419631004333496,-4.963180065155029,0.033518824726343155,153.86962890625,-117.034912109375,128.448486328125
3.5499999,7.005434036254883,-4.8937482833862305,0.24899697303771973,149.566650390625,-120.78857421875,134.1552734375
3.5699999,6.603208065032959,-4.967968463897705,0.44532153010368347,135.55908203125,-110.8245849609375,138.397216796875
3.5899999,6.234501361846924,-5.166687488555908,0.6607996821403503,117.034912109375,-109.8480224609375,140.93017578125
3.6099999,5.889736175537109,-5.523423194885254,0.9241618514060974,105.8502197265625,-110.6719970703125,139.0533447265625
3.6299999,5.523423194885254,-5.995080947875977,1.2761094570159912,94.8638916015625,-89.66064453125,133.85009765625
3.6499999,5.0469770431518555,-6.557718276977539,1.659181833267212,68.023681640625,-52.9937744140625,130.9356689453125
3.6699999,4.441244125366211,-7.228095054626465,2.0039467811584473,35.400390625,-34.698486328125,130.462646484375
3.6899999,3.646369218826294,-7.905653953552246,2.1523873805999756,33.447265625,-43.365478515625,126.6937255859375
3.7099999,2.7461493015289307,-8.580819129943848,2.0829553604125977,20.8740234375,-47.088623046875,111.7095947265625
3.7299999,1.8411411046981812,-9.363722801208496,1.7525556087493896,21.8048095703125,-31.829833984375,95.64208984375
3.7499999,1.0582371950149536,-10.11550235748291,1.3479355573654175,38.330078125,-15.2740478515625,87.1734619140625
3.7699999,0.38067805767059326,-10.824186325073242,0.9457096457481384,42.724609375,-10.9405517578125,80.902099609375
3.7899999,-0.15562310814857483,-11.370063781738281,0.6847416758537292,49.5758056640625,-12.75634765625,74.5697021484375
3.8099999,-0.5937620401382446,-11.583148002624512,0.7158663272857666,50.384521484375,-18.0511474609375,68.54248046875
3.8299999000000002,-0.9361328482627869,-11.556811332702637,0.9792284965515137,46.875,-17.9901123046875,57.5714111328125
3.8499999,-1.192312479019165,-11.382035255432129,1.436521053314209,39.7186279296875,-14.83154296875,45.41015625
3.8699999,-1.3551181554794312,-11.12346076965332,1.9369091987609863,30.9906005859375,-13.24462890625,39.215087890625
3.8899999,-1.4532804489135742,-10.8505220413208,2.3918075561523438,22.613525390625,-18.585205078125,35.3240966796875
3.9099999,-1.4652514457702637,-10.644620895385742,2.717418909072876,16.0675048828125,-19.561767578125,28.25927734375
3.9299999,-1.4508862495422363,-10.481815338134766,2.8993782997131348,13.5650634765625,-11.199951171875,22.7508544921875
3.9499999,-1.4484920501708984,-10.381258964538574,2.9472622871398926,12.054443359375,-2.6397705078125,21.820068359375
3.9699999,-1.501164436340332,-10.273519515991211,2.9017724990844727,9.552001953125,-1.77001953125,19.2718505859375
3.9899999,-1.5682021379470825,-10.165780067443848,2.80361008644104,9.27734375,-9.033203125,9.5977783203125
4.0099999,-1.6065093278884888,-10.034099578857422,2.7006595134735107,11.993408203125,-13.641357421875,3.90625
4.029999900000001,-1.5873557329177856,-9.93593692779541,2.6144683361053467,15.4571533203125,-10.8184814453125,7.843017578125
4.0499999,-1.4891934394836426,-9.8784761428833,2.559401512145996,16.9830322265625,-10.955810546875,15.625
4.069999900000001,-1.3718775510787964,-9.864110946655273,2.5330653190612793,18.8446044921875,-11.810302734375,18.49365234375
4.0899999000000005,-1.3024457693099976,-9.84256362915039,2.5450363159179688,21.1029052734375,-10.8795166015625,19.9737548828125
4.1099999,-1.292868971824646,-9.797073364257812,2.583343744277954,21.392822265625,-9.5367431640625,23.37646484375
4.1299999000000005,-1.3503297567367554,-9.72285270690918,2.6384103298187256,20.172119140625,-9.2620849609375,24.2462158203125
4.1499999,-1.434126853942871,-9.658209800720215,2.7293899059295654,18.6004638671875,-8.8043212890625,19.866943359375
4.1699999000000005,-1.5203180313110352,-9.605537414550781,2.8395233154296875,15.2435302734375,-8.1634521484375,17.9595947265625
4.1899999,-1.5849615335464478,-9.610325813293457,2.942473888397217,8.4991455078125,-6.89697265625,21.575927734375
4.209999900000001,-1.6304513216018677,-9.670180320739746,3.026270866394043,3.173828125,-4.7454833984375,22.979736328125
4.2299999,-1.6831238269805908,-9.775525093078613,3.066972494125366,2.227783203125,-2.3193359375,18.8751220703125
4.249999900000001,-1.745373010635376,-9.916783332824707,3.050212860107422,1.9378662109375,-1.6632080078125,15.6097412109375
4.2699999,-1.821987509727478,-10.06043529510498,3.028665065765381,-0.1068115234375,-2.6397705078125,15.8538818359375
4.289999900000001,-1.8794482946395874,-10.20648193359375,2.9903578758239746,-1.0833740234375,-3.4637451171875,13.6260986328125
4.3099999,-1.9345149993896484,-10.321403503417969,2.9759926795959473,0.1068115234375,-4.9285888671875,9.124755859375
4.329999900000001,-1.9800047874450684,-10.398017883300781,2.964021682739258,0.885009765625,-5.5389404296875,7.5531005859375
4.3499999,-2.0015525817871094,-10.41956615447998,2.980781078338623,0.396728515625,-6.3018798828125,5.615234375
4.369999900000001,-1.9752163887023926,-10.383652687072754,3.023876667022705,-0.3509521484375,-6.591796875,1.1749267578125
4.3899999,-1.843535304069519,-10.196905136108398,3.179499864578247,-6.0272216796875,-4.2877197265625,-0.1220703125
4.409999900000001,-1.7860745191574097,-10.077195167541504,3.2082302570343018,-8.3770751953125,-1.5869140625,-3.204345703125
4.4299999,-1.7357962131500244,-9.979032516479492,3.201047658920288,-8.148193359375,-0.42724609375,-9.2010498046875
4.449999900000001,-1.7070658206939697,-9.897629737854004,3.1483752727508545,-7.9345703125,-1.6937255859375,-11.3067626953125
4.4699999,-1.6543933153152466,-9.849745750427246,3.0885202884674072,-9.307861328125,-4.364013671875,-9.94873046875
4.489999900000001,-1.5753847360610962,-9.818621635437012,3.0597896575927734,-9.9334716796875,-4.638671875,-9.918212890625
4.5099999,-1.4987702369689941,-9.787496566772461,3.028665065765381,-8.8653564453125,-0.79345703125,-12.02392578125
4.529999900000001,-1.4437036514282227,-9.746794700622559,3.0119056701660156,-8.392333984375,-0.1983642578125,-12.176513671875
4.5499999,-1.4221558570861816,-9.703699111938477,2.9975404739379883,-9.3536376953125,-5.1116943359375,-9.9639892578125
4.569999900000001,-1.4101848602294922,-9.648633003234863,2.9975404739379883,-10.3607177734375,-9.8876953125,-9.185791015625
4.5899999000000005,-1.4101848602294922,-9.593565940856934,3.0310592651367188,-10.650634765625,-9.368896484375,-8.270263671875
4.609999900000001,-1.400607943534851,-9.524134635925293,3.112462282180786,-13.1683349609375,-3.1890869140625,-4.7454833984375
4.6299999000000005,-1.4293384552001953,-9.473855972290039,3.1723172664642334,-17.852783203125,3.41796875,-3.692626953125
4.6499999,-1.4724340438842773,-9.440337181091309,3.227383852005005,-21.3470458984375,-2.5482177734375,-4.150390625
4.6699999000000005,-1.4437036514282227,-9.337387084960938,3.4524388313293457,-28.3355712890625,-10.80322265625,-2.4261474609375
4.6899999,-1.4077905416488647,-9.239224433898926,3.6296098232269287,-55.1910400390625,-0.244140625,-0.3204345703125
4.709999900000001,-1.278503656387329,-9.14345645904541,3.773261785507202,-86.9903564453125,14.495849609375,-3.1280517578125
4.7299999,-1.2018892765045166,-9.133879661560059,3.6128504276275635,-102.325439453125,24.078369140625,-11.2457275390625
4.749999900000001,-1.192312479019165,-9.301473617553711,3.0166940689086914,-102.1270751953125,26.5960693359375,-21.6064453125
4.7699999,-1.2282254695892334,-9.648633003234863,2.0685901641845703,-94.757080078125,23.7579345703125,-29.23583984375
4.789999900000001,-1.2449848651885986,-10.091560363769531,1.0319008827209473,-88.1805419921875,19.6075439453125,-31.4178466796875
4.8099999,-1.2210428714752197,-10.56800651550293,0.07422025501728058,-82.8094482421875,20.111083984375,-29.7088623046875
4.829999900000001,-1.1803414821624756,-10.84094524383545,-0.7110779285430908,-66.619873046875,19.6075439453125,-28.1524658203125
4.8499999,-1.1324573755264282,-11.18092155456543,-1.2066776752471924,22.0794677734375,-1.1749267578125,-28.0914306640625
4.869999900000001,-1.1276689767837524,-11.291055679321289,-1.5825673341751099,-10.589599609375,14.58740234375,-39.3218994140625
4.8899999,-1.1300631761550903,-11.374852180480957,-1.7381904125213623,-39.3524169921875,27.984619140625,-49.285888671875
4.909999900000001,-1.1085153818130493,-11.338939666748047,-1.7357962131500244,-19.439697265625,30.33447265625,-59.844970703125
4.9299999,-1.0223240852355957,-11.161767959594727,-1.6328455209732056,-5.5389404296875,32.6690673828125,-70.281982421875
4.949999900000001,-0.8882488012313843,-10.893617630004883,-1.4173674583435059,-5.279541015625,37.750244140625,-76.629638671875
4.9699999,-0.6847416758537292,-10.651803016662598,-1.1683704853057861,-1.03759765625,39.0472412109375,-79.7271728515625
4.989999900000001,-0.4405331015586853,-10.429142951965332,-0.9193734526634216,2.74658203125,37.2161865234375,-81.35986328125
5.0099999,-0.17477671802043915,-10.24239444732666,-0.6919242739677429,-0.1220703125,37.65869140625,-82.94677734375
5.029999900000001,0.10534487664699554,-10.074800491333008,-0.47884035110473633,-1.0528564453125,38.7420654296875,-85.418701171875
5.0499999,0.3758896589279175,-9.919178009033203,-0.2992752194404602,-0.946044921875,41.290283203125,-88.68408203125
5.069999900000001,0.6392518281936646,-9.75397777557373,-0.13168109953403473,-2.9449462890625,44.1131591796875,-92.041015625
5.0899999000000005,0.8834604024887085,-9.579200744628906,0.0071826050989329815,-6.5155029296875,46.6156005859375,-96.6949462890625
5.109999900000001,1.1228805780410767,-9.387664794921875,0.12210428714752197,-10.7269287109375,48.7823486328125,-102.5848388671875
5.1299999000000005,1.37906014919281,-9.165003776550293,0.2059013396501541,-15.3350830078125,50.048828125,-108.489990234375
5.1499999,1.6974890232086182,-8.954314231872559,0.2753331959247589,-19.1802978515625,50.1556396484375,-112.6861572265625
5.1699999000000005,2.1045033931732178,-8.753201484680176,0.3447650372982025,-24.3682861328125,53.4210205078125,-115.203857421875
5.1899999,2.612074136734009,-8.588001251220703,0.42377370595932007,-29.1290283203125,58.929443359375,-116.5313720703125
5.209999900000001,3.1531636714935303,-8.439560890197754,0.4884171485900879,-32.196044921875,65.093994140625,-116.455078125
5.2299999,3.7038300037384033,-8.293514251708984,0.5363011956214905,-34.6832275390625,68.3135986328125,-115.3106689453125
5.249999900000001,4.230554580688477,-8.1139497756958,0.5626373887062073,-36.8804931640625,68.7103271484375,-113.28125
5.2699999,4.704606533050537,-7.922413349151611,0.5650315880775452,-38.360595703125,70.12939453125,-110.870361328125
5.289999900000001,5.154716491699219,-7.702147006988525,0.5674257874488831,-38.6199951171875,71.502685546875,-107.421875
5.3099999,5.556941986083984,-7.493851184844971,0.569819986820221,-37.567138671875,71.3958740234375,-103.5308837890625
5.329999900000001,5.894524574279785,-7.29034423828125,0.5674257874488831,-35.9344482421875,68.9544677734375,-97.503662109375
5.3499999,6.1530985832214355,-7.074865818023682,0.5674257874488831,-34.5611572265625,62.9119873046875,-90.4693603515625
5.369999900000001,6.3518171310424805,-6.864176273345947,0.5889736413955688,-32.8369140625,55.389404296875,-86.48681640625
5.3899999,6.50025749206543,-6.643909931182861,0.629675030708313,-30.70068359375,51.6815185546875,-84.77783203125
5.409999900000001,6.636727333068848,-6.44279670715332,0.7038952708244324,-28.2135009765625,50.5523681640625,-82.794189453125
5.4299999,6.7708024978637695,-6.2632317543029785,0.7948749661445618,-25.6805419921875,48.9654541015625,-80.38330078125
5.449999900000001,6.933608055114746,-6.098031520843506,0.8906430602073669,-22.88818359375,46.2799072265625,-79.65087890625
5.4699999,7.0772600173950195,-5.949591159820557,0.9600749015808105,-20.0958251953125,43.0450439453125,-80.5511474609375
5.489999900000001,7.187393665313721,-5.805939197540283,0.9792284965515137,-18.5089111328125,38.330078125,-80.047607421875
5.5099999,7.264008045196533,-5.669469833374023,0.950498104095459,-17.608642578125,30.5633544921875,-79.2236328125
5.529999900000001,7.3693528175354,-5.547365188598633,0.9193734526634216,-15.380859375,25.970458984375,-81.7108154296875
5.5499999,7.5417351722717285,-5.432443618774414,0.9002198576927185,-11.5966796875,31.6009521484375,-85.7696533203125
5.569999900000001,7.841010570526123,-5.319916248321533,0.933738648891449,-7.9345703125,40.4052734375,-85.6475830078125
5.5899999000000005,8.130708694458008,-5.195417881011963,1.0127472877502441,-4.4403076171875,43.853759765625,-79.7576904296875
5.609999900000001,8.38449478149414,-5.04218864440918,1.0821791887283325,-3.0364990234375,42.388916015625,-73.974609375
5.6299999000000005,8.501810073852539,-4.824316501617432,1.139639973640442,0.30517578125,38.421630859375,-69.915771484375
5.6499999,8.554482460021973,-4.527435302734375,1.192312479019165,3.84521484375,33.6761474609375,-68.5272216796875
5.6699999000000005,8.611943244934082,-4.156333923339844,1.2665326595306396,7.110595703125,32.7606201171875,-68.0084228515625
5.6899999,8.7268648147583,-3.7660791873931885,1.3862427473068237,10.009765625,33.9813232421875,-65.9942626953125
5.709999900000001,8.899248123168945,-3.421314239501953,1.5610195398330688,11.9171142578125,31.9061279296875,-59.173583984375
5.7299999,9.083600997924805,-3.1531636714935303,1.7573440074920654,11.6119384765625,26.458740234375,-46.417236328125
5.749999900000001,9.244012832641602,-2.96162748336792,1.9800047874450684,10.31494140625,21.1944580078125,-34.210205078125
5.7699999,9.320627212524414,-2.80361008644104,2.185906171798706,9.033203125,19.6990966796875,-27.2979736328125
5.789999900000001,9.296685218811035,-2.6360161304473877,2.365471363067627,7.38525390625,13.580322265625,-22.796630859375
5.8099999,9.184157371520996,-2.4468741416931152,2.5306711196899414,5.401611328125,1.7242431640625,-18.06640625
5.829999900000001,9.009381294250488,-2.248155355453491,2.6408045291900635,3.4942626953125,-5.4931640625,-17.1661376953125
5.8499999,8.87291145324707,-2.054224967956543,2.786850690841675,0.8697509765625,-6.3323974609375,-20.904541015625
5.869999900000001,8.78432559967041,-1.9177556037902832,2.8874073028564453,-3.082275390625,1.8463134765625,-25.45166015625
5.8899999,8.75080680847168,-1.8938134908676147,2.892195701599121,-7.232666015625,6.591796875,-25.7110595703125
5.909999900000001,8.793902397155762,-1.920149803161621,2.784456491470337,-1.3885498046875,3.41796875,-23.86474609375
5.9299999,8.863334655761719,-2.1811177730560303,2.6240451335906982,11.627197265625,0.3509521484375,-23.284912109375
5.949999900000001,8.978256225585938,-2.2649147510528564,2.3535003662109375,18.9666748046875,5.79833984375,-22.6898193359375
5.9699999,9.10993766784668,-2.3487119674682617,2.274491548538208,27.83203125,10.894775390625,-14.0838623046875
5.989999900000001,9.220070838928223,-2.2170307636260986,2.231395959854126,23.5595703125,5.8746337890625,-4.730224609375
6.0099999,9.27034854888916,-1.9728221893310547,2.3582887649536133,12.939453125,-2.2735595703125,0.54931640625
6.029999900000001,9.251194953918457,-1.6855180263519287,2.5306711196899414,0.54931640625,-1.2664794921875,0.5035400390625
6.0499999,9.188945770263672,-1.479616641998291,2.671929121017456,-9.46044921875,3.5247802734375,-1.9073486328125
6.069999900000001,9.078812599182129,-1.3407529592514038,2.7509377002716064,-15.716552734375,5.9814453125,-4.6844482421875
6.0899999000000005,8.959102630615234,-1.335964560508728,2.7054479122161865,-20.2178955078125,5.0048828125,-6.4697265625
6.109999900000001,8.892065048217773,-1.4652514457702637,2.6168625354766846,-24.1546630859375,3.0059814453125,-6.9122314453125
6.1299999000000005,8.892065048217773,-1.6927006244659424,2.470816135406494,-25.634765625,2.1514892578125,-4.9896240234375
6.149999900000001,8.966285705566406,-1.968033790588379,2.322375535964966,-24.2919921875,1.068115234375,-0.885009765625
6.1699999000000005,9.071630477905273,-2.233790159225464,2.1715409755706787,-20.5078125,2.1514892578125,0.5035400390625
6.1899999,9.167398452758789,-2.4636335372924805,2.0231003761291504,-16.4031982421875,5.401611328125,-2.4566650390625
6.209999900000001,9.198522567749023,-2.631227731704712,1.8818424940109253,-9.9334716796875,4.180908203125,-3.23486328125
6.2299999,9.210494041442871,-2.7461493015289307,1.766920804977417,-2.166748046875,-4.3182373046875,1.251220703125
6.249999900000001,9.2033109664917,-2.7557260990142822,1.721431016921997,3.3111572265625,-10.5743408203125,6.2103271484375
6.2699999,9.17936897277832,-2.691082715988159,1.7357962131500244,6.0577392578125,-4.5013427734375,5.31005859375
6.289999900000001,9.14345645904541,-2.564189910888672,1.8363527059555054,7.3394775390625,4.08935546875,1.0528564453125
6.3099999,9.093177795410156,-2.427720546722412,1.941697597503662,7.8125,2.410888671875,0.0152587890625
6.329999900000001,9.078812599182129,-2.315192937850952,2.049436569213867,6.7291259765625,-5.3558349609375,3.1890869140625
6.3499999,9.090784072875977,-2.2649147510528564,2.1547815799713135,4.150390625,-5.0811767578125,6.195068359375
6.369999900000001,9.150638580322266,-2.2170307636260986,2.209848165512085,1.068115234375,3.0517578125,6.4239501953125
6.3899999,9.17936897277832,-2.2625205516815186,2.2361843585968018,-1.373291015625,8.8348388671875,3.7078857421875
6.409999900000001,9.17936897277832,-2.341529369354248,2.1954829692840576,-2.2125244140625,10.3302001953125,0.1220703125
6.4299999,9.157821655273438,-2.4133553504943848,2.2194249629974365,-1.983642578125,6.7901611328125,-0.48828125
6.449999900000001,9.260771751403809,-2.2888567447662354,2.4803929328918457,-11.993408203125,10.6201171875,1.8463134765625
6.4699999,9.332598686218262,-2.2194249629974365,2.741360902786255,-40.069580078125,24.871826171875,5.9356689453125
6.489999900000001,9.440337181091309,-1.9823989868164062,3.064578056335449,-59.6466064453125,28.2135009765625,9.2010498046875
6.5099999,9.397241592407227,-1.9632453918457031,3.0837318897247314,-58.0596923828125,22.308349609375,9.3841552734375
6.529999900000001,9.220070838928223,-2.0853497982025146,2.8395233154296875,-46.4019775390625,10.345458984375,7.6141357421875
6.5499999,8.987833023071289,-2.319981336593628,2.4372973442077637,-33.63037109375,-1.9683837890625,6.134033203125
6.569999900000001,8.808267593383789,-2.6144683361053467,2.0374655723571777,-21.2249755859375,-12.3443603515625,5.18798828125
6.5899999000000005,8.755595207214355,-2.894589900970459,1.7501614093780518,-9.857177734375,-20.599365234375,6.0577392578125
6.609999900000001,8.851364135742188,-3.117250680923462,1.6089035272598267,-1.251220703125,-26.67236328125,9.9029541015625
6.6299999000000005,9.05247688293457,-3.246537446975708,1.6065093278884888,3.326416015625,-28.7322998046875,15.6707763671875
6.649999900000001,9.282320022583008,-3.2632968425750732,1.6927006244659424,4.5318603515625,-26.3824462890625,19.9432373046875
6.6699999000000005,9.478644371032715,-3.1747114658355713,1.8052281141281128,3.0975341796875,-22.9644775390625,21.5606689453125
6.6899999,9.619902610778809,-3.0166940689086914,1.900996208190918,-0.152587890625,-21.881103515625,22.857666015625
6.709999900000001,9.701305389404297,-2.8443117141723633,1.9608511924743652,-5.340576171875,-22.64404296875,26.0467529296875
6.7299999,9.737217903137207,-2.7030537128448486,1.9823989868164062,-11.8560791015625,-23.7884521484375,30.76171875
6.749999900000001,9.742006301879883,-2.6168625354766846,1.9632453918457031,-18.524169921875,-25.634765625,35.33935546875
6.7699999,9.730035781860352,-2.5905263423919678,1.9105730056762695,-24.4903564453125,-27.9541015625,38.63525390625
6.789999900000001,9.6989107131958,-2.6240451335906982,1.8171991109848022,-29.9835205078125,-29.632568359375,40.71044921875
6.8099999,9.674968719482422,-2.7054479122161865,1.680729627609253,-35.2935791015625,-30.792236328125,42.48046875
6.829999900000001,9.655815124511719,-2.846705913543701,1.5203180313110352,-40.7562255859375,-34.9578857421875,44.2352294921875
6.8499999,9.658209800720215,-3.043030261993408,1.338358759880066,-47.088623046875,-39.337158203125,47.821044921875
6.869999900000001,9.643844604492188,-3.294421434402466,1.1516109704971313,-54.38232421875,-40.252685546875,54.6722412109375
6.8899999,9.579200744628906,-3.557783842086792,0.933738648891449,-61.3555908203125,-39.215087890625,61.9964599609375
6.909999900000001,9.425971984863281,-3.8115692138671875,0.6943184733390808,-67.9473876953125,-42.327880859375,66.83349609375
6.9299999,9.153033256530762,-4.034229755401611,0.40940847992897034,-74.7833251953125,-47.54638671875,70.037841796875
6.949999900000001,8.798690795898438,-4.213795185089111,0.08858546614646912,-81.54296875,-49.9725341796875,72.540283203125
6.9699999,8.422801971435547,-4.367023944854736,-0.23702596127986908,-87.554931640625,-46.1273193359375,71.2890625
6.989999900000001,8.051700592041016,-4.520252704620361,-0.5602431893348694,-91.5374755859375,-34.942626953125,65.338134765625
7.0099999,7.690176010131836,-4.668693542480469,-0.8930372595787048,-94.05517578125,-22.7813720703125,59.234619140625
7.029999900000001,7.374141216278076,-4.8267107009887695,-1.2234370708465576,-96.0693359375,-17.4407958984375,54.595947265625
7.0499999,7.082048416137695,-4.970362663269043,-1.5322890281677246,-97.0916748046875,-13.4735107421875,48.980712890625
7.069999900000001,6.842628479003906,-5.0900726318359375,-1.8363527059555054,-96.6949462890625,-4.39453125,41.1529541015625
7.0899999000000005,6.648698329925537,-5.2049946784973145,-2.121262788772583,-95.52001953125,-0.1068115234375,35.552978515625
7.109999900000001,6.48828649520874,-5.322310447692871,-2.3965959548950195,-94.1162109375,-4.547119140625,35.2783203125
7.1299999000000005,6.370970726013184,-5.458779811859131,-2.655169725418091,-91.6290283203125,-7.87353515625,34.72900390625
7.149999900000001,6.3063273429870605,-5.595249176025391,-2.868253707885742,-87.799072265625,-3.753662109375,30.7769775390625
7.1699999000000005,6.282385349273682,-5.726930618286133,-3.0382418632507324,-83.587646484375,2.532958984375,26.8096923828125
7.1899999,6.246472358703613,-5.849034786224365,-3.201047658920288,-77.9876708984375,2.2430419921875,26.30615234375
7.209999900000001,6.179434776306152,-5.961562156677246,-3.383007049560547,-69.6563720703125,-4.8980712890625,26.3671875
7.2299999,6.119579315185547,-6.064512729644775,-3.5745432376861572,-59.478759765625,-10.7269287109375,23.651123046875
7.249999900000001,6.074089527130127,-6.138733386993408,-3.756502389907837,-49.407958984375,-8.7890625,21.5301513671875
7.2699999,6.090848922729492,-6.172252178192139,-3.8977603912353516,-39.947509765625,-6.16455078125,22.8424072265625
7.289999900000001,6.13633918762207,-6.150704383850098,-3.9815573692321777,-30.76171875,-10.284423828125,25.360107421875
7.3099999,6.212953567504883,-6.086060523986816,-4.02465295791626,-22.705078125,-16.693115234375,27.5421142578125
7.329999900000001,6.291962146759033,-5.980715751647949,-4.019864559173584,-16.9677734375,-19.7601318359375,31.2957763671875
7.3499999,6.370970726013184,-5.863399982452393,-3.9839515686035156,-13.18359375,-21.148681640625,37.6739501953125
7.369999900000001,6.418854713439941,-5.74129581451416,-3.9240965843200684,-11.0321044921875,-24.1851806640625,43.64013671875
7.3899999,6.414066314697266,-5.640739440917969,-3.8714241981506348,-10.80322265625,-25.93994140625,45.0439453125
7.409999900000001,6.3518171310424805,-5.571307182312012,-3.8355112075805664,-12.786865234375,-26.763916015625,44.6624755859375
7.4299999,6.253654956817627,-5.537788391113281,-3.8331170082092285,-16.357421875,-26.3671875,44.7235107421875
7.449999900000001,6.143521785736084,-5.5545477867126465,-3.8762125968933105,-19.317626953125,-23.92578125,43.121337890625
7.4699999,6.030993938446045,-5.609614372253418,-3.950432777404785,-22.1099853515625,-21.0723876953125,39.8101806640625
7.489999900000001,5.92325496673584,-5.702988624572754,-4.082113742828369,-26.1688232421875,-18.4173583984375,38.14697265625
7.5099999,5.832275390625,-5.822698593139648,-4.228160381317139,-30.487060546875,-17.242431640625,39.0777587890625
7.529999900000001,5.74129581451416,-5.966350555419922,-4.393360137939453,-33.5845947265625,-13.85498046875,40.9088134765625
7.5499999,5.609614372253418,-6.114790916442871,-4.572925090789795,-35.15625,-10.0860595703125,43.0145263671875
7.569999900000001,5.43723201751709,-6.246472358703613,-4.759673118591309,-35.9039306640625,-10.8489990234375,44.2047119140625
7.5899999000000005,5.224148273468018,-6.361393928527832,-4.975151062011719,-35.064697265625,-12.0391845703125,43.0145263671875
7.609999900000001,4.987122058868408,-6.476315498352051,-5.243301868438721,-31.31103515625,-10.711669921875,40.10009765625
7.6299999000000005,4.7620673179626465,-6.615179061889648,-5.5329999923706055,-22.88818359375,-12.664794921875,38.14697265625
7.649999900000001,4.594472885131836,-6.734889507293701,-5.822698593139648,-13.0615234375,-17.5628662109375,37.9638671875
7.6699999000000005,4.446032524108887,-6.921637058258057,-6.069301128387451,-5.615234375,-17.669677734375,36.7431640625
7.6899999,4.434061527252197,-6.995857238769531,-6.217741966247559,1.190185546875,-10.6964111328125,34.6527099609375
7.709999900000001,4.390965938568115,-7.208941459655762,-6.279991149902344,6.04248046875,-4.82177734375,35.9649658203125
7.7299999,4.431667327880859,-7.333439826965332,-6.279991149902344,6.2408447265625,-5.615234375,40.313720703125
7.749999900000001,4.410119533538818,-7.433996200561523,-6.167463779449463,6.4544677734375,-4.8675537109375,41.9158935546875
7.7699999,4.367023944854736,-7.522581577301025,-6.009446144104004,5.55419921875,3.5552978515625,39.24560546875
7.789999900000001,4.223371982574463,-7.484274387359619,-5.7987565994262695,-0.2593994140625,9.674072265625,37.017822265625
7.8099999,4.048594951629639,-7.534552574157715,-5.612008571624756,-6.4697265625,9.3841552734375,34.515380859375
7.829999900000001,3.7876269817352295,-7.544129371643066,-5.453991413116455,-10.2996826171875,11.505126953125,26.1383056640625
7.8499999,3.5673606395721436,-7.594407558441162,-5.348646640777588,-12.969970703125,16.0064697265625,15.0146484375
7.869999900000001,3.4165258407592773,-7.671022415161133,-5.315127849578857,-16.17431640625,12.3291015625,10.3759765625
7.8899999,3.423708438873291,-7.73087739944458,-5.274426460266113,-18.4783935546875,6.3629150390625,12.5732421875
7.909999900000001,3.485957622528076,-7.8745293617248535,-5.343858242034912,-17.7764892578125,9.490966796875,15.31982421875
7.9299999,3.5673606395721436,-8.010998725891113,-5.451597213745117,-14.801025390625,11.8255615234375,16.2200927734375
7.949999900000001,3.5745432376861572,-8.142680168151855,-5.595249176025391,-10.650634765625,4.4097900390625,16.0675048828125
7.9699999,3.5194764137268066,-8.195352554321289,-5.714959621429443,-5.645751953125,-5.706787109375,15.0909423828125
7.989999900000001,3.4548330307006836,-8.180987358093262,-5.796362400054932,-0.6561279296875,-7.537841796875,13.214111328125
8.0099999,3.423708438873291,-8.087613105773926,-5.817910194396973,3.6163330078125,-2.5482177734375,10.040283203125
8.0299999,3.4356794357299805,-7.953537940979004,-5.808333396911621,6.988525390625,0.2288818359375,5.889892578125
8.049999900000001,3.4596214294433594,-7.819462776184082,-5.784391403198242,9.2620849609375,-0.0457763671875,2.471923828125
8.069999900000001,3.4979286193847656,-7.73087739944458,-5.722142219543457,9.5367431640625,-3.021240234375,1.9073486328125
8.0899999,3.557783842086792,-7.65186882019043,-5.652710437774658,7.87353515625,-4.7607421875,3.2196044921875
8.1099999,3.6583402156829834,-7.6351094245910645,-5.556941986083984,5.1116943359375,-0.1373291015625,2.655029296875
8.129999900000001,3.7445313930511475,-7.5968017578125,-5.468356609344482,3.021240234375,7.3394775390625,0.8697509765625
8.149999900000001,3.797203779220581,-7.577648162841797,-5.430049419403076,1.678466796875,8.880615234375,0.5340576171875
8.1699999,3.7852327823638916,-7.5632829666137695,-5.420472621917725,0.335693359375,1.3427734375,0.67138671875
8.1899999,3.7708675861358643,-7.55131196975708,-5.420472621917725,-0.7781982421875,-4.791259765625,0.762939453125
8.2099999,3.7397429943084717,-7.515398979187012,-5.439626216888428,-1.3885498046875,-0.9613037109375,0.5035400390625
8.229999900000001,3.7253777980804443,-7.4986395835876465,-5.468356609344482,-0.91552734375,5.340576171875,0.8392333984375
8.2499999,3.6798880100250244,-7.479485988616943,-5.5114521980285645,0.4119873046875,6.2255859375,1.3275146484375
8.2699999,3.603273630142212,-7.469909191131592,-5.566518783569336,2.2125244140625,0.1983642578125,1.15966796875
8.2899999,3.550601005554199,-7.469909191131592,-5.600037574768066,3.997802734375,-4.608154296875,0.732421875
8.309999900000001,3.5458126068115234,-7.50582218170166,-5.57370138168335,7.99560546875,5.035400390625,-1.7852783203125
8.3299999,3.557783842086792,-7.568071365356445,-5.523423194885254,10.6048583984375,4.6539306640625,-3.0517578125
8.3499999,3.5673606395721436,-7.644686222076416,-5.504269599914551,12.4969482421875,-1.9989013671875,-1.77001953125
8.3699999,3.5745432376861572,-7.723694801330566,-5.458779811859131,13.2293701171875,-6.3934326171875,0.8087158203125
8.389999900000001,3.598485231399536,-7.805097579956055,-5.406107425689697,13.24462890625,-3.6468505859375,2.01416015625
8.4099999,3.6774938106536865,-7.8314337730407715,-5.34625244140625,13.397216796875,0.42724609375,1.15966796875
8.4299999,3.758896589279175,-7.850587368011475,-5.295974254608154,13.458251953125,1.1444091796875,1.5869140625
8.4499999,3.88818359375,-7.833827972412109,-5.250484466552734,13.519287109375,-0.762939453125,4.21142578125
8.469999900000001,3.9839515686035156,-7.82185697555542,-5.216965675354004,13.24462890625,-4.5166015625,7.6141357421875
8.4899999,4.050989151000977,-7.773972988128662,-5.16429328918457,11.3677978515625,-11.4898681640625,12.75634765625
8.5099999,4.077325344085693,-7.702147006988525,-5.102043628692627,8.514404296875,-13.580322265625,14.373779296875
8.5299999,4.034229755401611,-7.627926826477051,-4.982333660125732,4.9896240234375,-7.5836181640625,9.9029541015625
8.549999900000001,4.055777549743652,-7.568071365356445,-4.8722004890441895,-1.2359619140625,0.579833984375,5.584716796875
8.569999900000001,4.072536945343018,-7.536946773529053,-4.778826713562012,-11.29150390625,3.0517578125,9.002685546875
8.5899999,4.194641590118408,-7.529764175415039,-4.733336925506592,-23.62060546875,-3.1280517578125,19.439697265625
8.6099999,4.28322696685791,-7.503427982330322,-4.7620673179626465,-35.0341796875,-5.7220458984375,27.313232421875
8.629999900000001,4.288015365600586,-7.46033239364624,-4.857835292816162,-44.036865234375,1.007080078125,27.2064208984375
8.649999900000001,4.185064792633057,-7.374141216278076,-5.039794445037842,-51.20849609375,4.57763671875,23.92578125
8.6699999,4.005499362945557,-7.307103633880615,-5.2672438621521,-56.182861328125,8.36181640625,18.1121826171875
8.6899999,3.8307228088378906,-7.237671852111816,-5.544970989227295,-59.6771240234375,17.7001953125,12.542724609375
8.709999900000001,3.7205893993377686,-7.19936466217041,-5.851428985595703,-61.58447265625,26.5350341796875,11.199951171875
8.729999900000001,3.689464807510376,-7.175422668457031,-6.1052141189575195,-61.737060546875,31.43310546875,12.3291015625
8.7499999,3.713406801223755,-7.1706342697143555,-6.31829833984375,-63.385009765625,35.125732421875,16.2506103515625
8.7699999,3.737348794937134,-7.096413612365723,-6.48828649520874,-67.1234130859375,35.94970703125,23.956298828125
8.7899999,3.737348794937134,-6.98628044128418,-6.5912370681762695,-70.831298828125,31.8450927734375,32.135009765625
8.809999900000001,3.73016619682312,-6.763619899749756,-6.646304130554199,-73.699951171875,34.8968505859375,34.820556640625
8.8299999,3.6607344150543213,-6.509834289550781,-6.6846113204956055,-75.897216796875,48.0194091796875,31.2652587890625
8.8499999,3.531447410583496,-6.224924564361572,-6.72531270980835,-79.5745849609375,55.999755859375,29.052734375
8.8699999,3.3494882583618164,-5.947196960449219,-6.806715488433838,-81.329345703125,53.5430908203125,25.4974365234375
8.889999900000001,3.138798475265503,-5.750872611999512,-6.957550048828125,-77.484130859375,52.215576171875,17.181396484375
8.9099999,2.9544448852539062,-5.635950565338135,-7.1490864753723145,-69.915771484375,55.35888671875,11.6119384765625
8.9299999,2.8107926845550537,-5.621585369110107,-7.352593421936035,-60.9893798828125,53.3447265625,10.7879638671875
8.9499999,2.7246015071868896,-5.736507415771484,-7.524975776672363,-50.3387451171875,46.630859375,9.765625
8.969999900000001,2.655169725418091,-5.899312973022461,-7.69735860824585,-37.0635986328125,37.2467041015625,8.48388671875
8.9899999,2.6455929279327393,-5.882553577423096,-7.709329605102539,-24.59716796875,24.688720703125,10.31494140625
9.0099999,2.669534921646118,-5.743690013885498,-7.5417351722717285,-26.42822265625,26.2603759765625,10.101318359375
9.0299999,2.7054479122161865,-5.504269599914551,-7.357381820678711,-43.02978515625,39.3218994140625,3.72314453125
9.049999900000001,2.695871114730835,-5.272032260894775,-7.204153060913086,-45.34912109375,38.238525390625,-2.7618408203125
9.069999900000001,2.631227731704712,-5.252878665924072,-7.319074630737305,-28.01513671875,26.5960693359375,-8.36181640625
9.0899999,2.561795711517334,-5.398924827575684,-7.663839817047119,-1.953125,13.61083984375,-13.1072998046875
9.1099999,2.561795711517334,-5.595249176025391,-8.04930591583252,22.9034423828125,3.9215087890625,-17.2271728515625
9.129999900000001,2.6839001178741455,-5.750872611999512,-8.300697326660156,42.4957275390625,0.3509521484375,-19.6685791015625
9.149999900000001,2.8874073028564453,-5.837063789367676,-8.343792915344238,56.82373046875,-0.5340576171875,-19.1650390625
9.1699999,3.071760892868042,-5.849034786224365,-8.22887134552002,67.9931640625,-7.4462890625,-16.815185546875
9.1899999,3.1914708614349365,-5.839457988739014,-8.032546997070312,78.9794921875,-25.390625,-16.4947509765625
9.209999900000001,3.268085241317749,-5.870582580566406,-7.807491779327393,93.658447265625,-40.863037109375,-18.829345703125
9.229999900000001,3.3231520652770996,-5.992686748504639,-7.582436561584473,114.166259765625,-41.1529541015625,-20.5535888671875
9.2499999,3.3710360527038574,-6.229712963104248,-7.354987621307373,137.8631591796875,-39.3218994140625,-19.2718505859375
9.2699999,3.318363666534424,-6.5050458908081055,-7.220912456512451,161.5753173828125,-53.22265625,-17.3797607421875
9.2899999,3.2561142444610596,-6.8043212890625,-7.070077419281006,184.50927734375,-86.7462158203125,-18.0816650390625
9.309999900000001,3.227383852005005,-7.067683219909668,-6.888118267059326,206.817626953125,-108.5052490234375,-18.3563232421875
9.3299999,3.265691041946411,-7.264008045196533,-6.603208065032959,226.6693115234375,-108.0474853515625,-15.716552734375
9.3499999,3.4093432426452637,-7.393294811248779,-6.186617374420166,243.865966796875,-111.175537109375,-12.75634765625
9.3699999,3.620033025741577,-7.474697589874268,-5.628767967224121,256.5765380859375,-125.7781982421875,-11.444091796875
9.389999900000001,3.8522706031799316,-7.493851184844971,-4.972756862640381,264.0228271484375,-131.195068359375,-10.223388671875
9.4099999,4.082113742828369,-7.501033782958984,-4.225766181945801,266.5863037109375,-123.291015625,-8.4075927734375
9.4299999,4.307168960571289,-7.510610580444336,-3.399766445159912,266.6473388671875,-120.8953857421875,-5.37109375
9.4499999,4.467580318450928,-7.522581577301025,-2.5785553455352783,263.1378173828125,-130.43212890625,-1.3885498046875
9.469999900000001,4.592078685760498,-7.539340972900391,-1.742978811264038,252.349853515625,-139.495849609375,1.8310546875
9.4899999,4.716577529907227,-7.5417351722717285,-0.9409212470054626,236.7095947265625,-133.087158203125,3.5858154296875
9.5099999,4.881777286529541,-7.556100368499756,-0.10773907601833344,220.1385498046875,-120.7275390625,5.6610107421875
9.5299999,5.023035049438477,-7.582436561584473,0.667982280254364,203.5064697265625,-110.8245849609375,10.31494140625
9.549999900000001,5.102043628692627,-7.587224960327148,1.3551181554794312,188.8275146484375,-106.536865234375,17.364501953125
9.569999900000001,5.123591423034668,-7.565677165985107,1.941697597503662,175.10986328125,-103.729248046875,23.6053466796875
9.5899999,5.063736438751221,-7.46033239364624,2.410961151123047,155.0445556640625,-93.5821533203125,26.641845703125
9.6099999,4.941632270812988,-7.328651428222656,2.7988216876983643,146.66748046875,-86.5478515625,30.364990234375
9.629999900000001,4.752490520477295,-7.137115478515625,3.1196448802948,137.1002197265625,-82.45849609375,34.210205078125
9.649999900000001,4.496310710906982,-6.842628479003906,3.4572272300720215,126.2054443359375,-78.369140625,37.078857421875
9.6699999,4.288015365600586,-6.797138690948486,3.665522813796997,169.4183349609375,-80.4290771484375,42.938232421875
9.6899999,4.043806552886963,-6.576871871948242,4.0294413566589355,147.369384765625,-69.671630859375,44.952392578125
9.709999900000001,3.8546648025512695,-6.619967937469482,4.292803764343262,140.2587890625,-72.93701171875,49.9420166015625
9.729999900000001,3.6846764087677,-6.564900875091553,4.6734819412231445,138.336181640625,-63.3544921875,54.8858642578125
9.7499999,3.5051112174987793,-6.5050458908081055,5.082890033721924,123.2452392578125,-43.3349609375,54.8095703125
9.7699999,3.3207578659057617,-6.45476770401001,5.463568210601807,106.5826416015625,-28.2440185546875,50.994873046875
9.7899999,3.1100680828094482,-6.356605529785156,5.779603004455566,82.8857421875,-20.2789306640625,49.7894287109375
9.809999900000001,2.8826189041137695,-6.339846134185791,6.050147533416748,93.841552734375,-27.496337890625,54.840087890625
9.8299999,2.6384103298187256,-6.368576526641846,6.248866558074951,97.076416015625,-22.9644775390625,59.7686767578125
9.8499999,2.3798365592956543,-6.404489517211914,6.449979305267334,86.6851806640625,-14.2822265625,64.3463134765625
9.8699999,2.1164743900299072,-6.45476770401001,6.646304130554199,90.911865234375,-23.712158203125,65.61279296875
9.889999900000001,1.8483237028121948,-6.418854713439941,6.830657482147217,91.9647216796875,-35.0341796875,60.97412109375
9.9099999,1.6400281190872192,-6.358999729156494,7.015010833740234,89.0960693359375,-37.1856689453125,55.0537109375
9.9299999,1.53707754611969,-6.303933143615723,7.228095054626465,87.0513916015625,-33.6761474609375,51.788330078125
9.9499999,1.5275006294250488,-6.289567947387695,7.441178798675537,84.1827392578125,-29.60205078125,48.675537109375
9.969999900000001,1.5514427423477173,-6.289567947387695,7.642292022705078,81.60400390625,-29.72412109375,44.464111328125
9.9899999,1.5729905366897583,-6.258443355560303,7.824251174926758,80.474853515625,-31.1431884765625,39.0472412109375
10.0099999,1.5825673341751099,-6.184223175048828,7.931990146636963,82.1533203125,-25.7415771484375,32.501220703125
10.0299999,1.625662922859192,-6.0836663246154785,8.015787124633789,82.5653076171875,-22.8118896484375,27.9998779296875
10.049999900000001,1.7070658206939697,-5.971138954162598,8.08043098449707,82.1990966796875,-23.3001708984375,27.7557373046875
10.069999900000001,1.7980455160140991,-5.846640586853027,8.147468566894531,83.953857421875,-20.6298828125,29.3731689453125
10.0899999,1.8602946996688843,-5.717353820800781,8.252813339233398,87.158203125,-19.1650390625,30.4107666015625
10.1099999,1.8746598958969116,-5.566518783569336,8.403648376464844,89.0960693359375,-21.1029052734375,31.67724609375
10.129999900000001,1.8339585065841675,-5.394136428833008,8.604761123657227,89.17236328125,-20.660400390625,32.6385498046875
10.149999900000001,1.7501614093780518,-5.183446884155273,8.834604263305664,88.8214111328125,-17.913818359375,32.2113037109375
10.1699999,1.6639702320098877,-4.922478675842285,9.119514465332031,87.0361328125,-18.2647705078125,31.18896484375
10.1899999,1.5705963373184204,-4.6255974769592285,9.442731857299805,81.329345703125,-14.4500732421875,30.1361083984375
10.209999900000001,1.5059528350830078,-4.311957359313965,9.782708168029785,71.22802734375,-5.67626953125,28.472900390625
10.229999900000001,1.4748282432556152,-4.02465295791626,10.120290756225586,57.952880859375,-0.4425048828125,26.91650390625
10.2499999,1.434126853942871,-3.7828385829925537,10.38604736328125,44.036865234375,4.33349609375,26.5655517578125
10.2699999,1.3670891523361206,-3.6320040225982666,10.453084945678711,33.1573486328125,5.645751953125,26.0467529296875
10.2899999,1.2713210582733154,-3.5697548389434814,10.366893768310547,33.1878662109375,-0.091552734375,23.3612060546875
10.309999900000001,1.170764684677124,-3.531447410583496,10.129867553710938,38.02490234375,-5.0201416015625,18.5089111328125
10.3299999,1.1061211824417114,-3.5386300086975098,9.885659217834473,38.6199951171875,-2.62451171875,13.9312744140625
10.3499999,1.139639973640442,-3.471592426300049,9.744400978088379,38.0859375,0.152587890625,12.1917724609375
10.3699999,1.194706678390503,-3.337517261505127,9.770736694335938,30.0750732421875,0.2899169921875,11.2152099609375
10.389999900000001,1.3120225667953491,-3.1435868740081787,9.919178009033203,14.678955078125,1.953125,8.60595703125
10.4099999,1.455674648284912,-2.940079689025879,10.120290756225586,-1.922607421875,7.293701171875,4.7760009765625
10.4299999,1.5107412338256836,-2.7246015071868896,10.259154319763184,-16.143798828125,12.5732421875,3.4027099609375
10.4499999,1.5849615335464478,-2.6240451335906982,10.29746150970459,-26.06201171875,12.8173828125,2.62451171875
10.469999900000001,1.6136919260025024,-2.612074136734009,10.199298858642578,-31.2652587890625,8.72802734375,0.79345703125
10.4899999,1.6328455209732056,-2.7102363109588623,10.005369186401367,-32.6995849609375,8.8043212890625,0.6256103515625
10.5099999,1.6950948238372803,-2.868253707885742,9.730035781860352,-30.5633544921875,11.8865966796875,1.739501953125
10.5299999,1.723825216293335,-3.07415509223938,9.445125579833984,-24.9481201171875,13.3819580078125,1.556396484375
10.549999900000001,1.7286136150360107,-3.2369606494903564,9.150638580322266,-18.5089111328125,13.9617919921875,0.1373291015625
10.569999900000001,1.6639702320098877,-3.378218650817871,8.9064302444458,-11.9171142578125,7.8277587890625,-1.2664794921875
10.5899999,1.6136919260025024,-3.4572272300720215,8.7268648147583,-4.1656494140625,-3.4332275390625,-1.983642578125
10.6099999,1.5849615335464478,-3.4811692237854004,8.645462036132812,3.11279296875,-7.0953369140625,-1.40380859375
10.629999900000001,1.6041151285171509,-3.4572272300720215,8.655038833618164,7.1868896484375,-2.7923583984375,-1.28173828125
10.649999900000001,1.6519991159439087,-3.383007049560547,8.722076416015625,8.4381103515625,0.030517578125,-2.5482177734375
10.6699999,1.702277421951294,-3.2752678394317627,8.832210540771484,7.8277587890625,-4.1046142578125,-4.2572021484375
10.6899999,1.7693150043487549,-3.1531636714935303,8.956708908081055,5.4931640625,-8.1024169921875,-3.692626953125
10.709999900000001,1.8579005002975464,-3.0334534645080566,9.081207275390625,1.861572265625,-4.57763671875,-2.62451171875
10.729999900000001,1.9488801956176758,-2.9257144927978516,9.174580574035645,-2.532958984375,5.523681640625,-3.5858154296875
10.7499999,2.0183119773864746,-2.8562827110290527,9.241618156433105,-6.622314453125,11.3372802734375,-4.94384765625
10.7699999,2.0183119773864746,-2.8179752826690674,9.246406555175781,-9.3231201171875,10.894775390625,-4.608154296875
10.7899999,1.968033790588379,-2.8203697204589844,9.205705642700195,-9.8114013671875,7.1258544921875,-3.0975341796875
10.809999900000001,1.886630892753601,-2.8562827110290527,9.141061782836914,-8.056640625,3.4942626953125,-1.2969970703125
10.8299999,1.800439715385437,-2.9041666984558105,9.071630477905273,-5.584716796875,3.2501220703125,0.3509521484375
10.8499999,1.7334020137786865,-2.9688100814819336,9.014169692993164,-2.99072265625,4.791259765625,0.7476806640625
10.8699999,1.6950948238372803,-3.0310592651367188,8.983044624328613,-0.1983642578125,2.01416015625,-0.2899169921875
10.889999900000001,1.6927006244659424,-3.1052796840667725,8.983044624328613,1.9073486328125,-1.220703125,0.48828125
10.9099999,1.7381904125213623,-3.1651346683502197,9.006986618041992,3.082275390625,-0.885009765625,2.0599365234375
10.9299999,1.7956513166427612,-3.2130186557769775,9.040505409240723,3.509521484375,2.166748046875,0.91552734375
10.9499999,1.8411411046981812,-3.224989652633667,9.0859956741333,3.814697265625,4.791259765625,-2.01416015625
10.969999900000001,1.8555063009262085,-3.2154128551483154,9.121908187866211,3.204345703125,1.7547607421875,-2.3651123046875
10.9899999,1.867477297782898,-3.179499864578247,9.17697525024414,1.8157958984375,-4.45556640625,0.30517578125
11.0099999,1.8579005002975464,-3.1196448802948,9.232041358947754,0.2288818359375,-4.425048828125,2.3193359375
11.0299999,1.8531121015548706,-3.0597896575927734,9.284713745117188,-1.6021728515625,-0.091552734375,1.5869140625
11.049999900000001,1.824381709098816,-2.999934673309326,9.32302188873291,-3.7994384765625,1.9989013671875,0.48828125
11.069999900000001,1.7573440074920654,-2.9664158821105957,9.32302188873291,-5.889892578125,-0.5645751953125,-0.152587890625
11.0899999,1.7334020137786865,-2.959233283996582,9.337387084960938,-7.8125,-4.1351318359375,0.1678466796875
11.1099999,1.7310078144073486,-2.980781078338623,9.351752281188965,-9.6893310546875,-2.3040771484375,1.617431640625
11.129999900000001,1.7764976024627686,-3.0334534645080566,9.35654067993164,-11.3067626953125,2.86865234375,2.8228759765625
11.149999900000001,1.8052281141281128,-3.098097085952759,9.373299598693848,-12.8631591796875,4.1351318359375,3.570556640625
11.1699999,1.7980455160140991,-3.162740468978882,9.390059471130371,-14.34326171875,-0.18310546875,3.2806396484375
11.1899999,1.7812861204147339,-3.2130186557769775,9.44752025604248,-17.1966552734375,-4.669189453125,3.662109375
11.209999900000001,1.7357962131500244,-3.2321722507476807,9.5624418258667,-23.193359375,-2.0294189453125,7.14111328125
11.229999900000001,1.6831238269805908,-3.2321722507476807,9.739612579345703,-31.0516357421875,3.4942626953125,10.986328125
11.2499999,1.6280571222305298,-3.251325845718384,9.904812812805176,-38.665771484375,1.220703125,13.580322265625
11.2699999,1.4867992401123047,-3.248931646347046,10.11550235748291,-46.539306640625,-5.31005859375,15.350341796875
11.2899999,1.4532804489135742,-3.222595453262329,10.591948509216309,-60.48583984375,-2.01416015625,14.70947265625
11.309999900000001,1.357512354850769,-3.1938650608062744,10.888829231262207,-94.573974609375,19.775390625,14.892578125
11.3299999,1.2880805730819702,-3.222595453262329,11.207258224487305,-126.678466796875,33.26416015625,14.22119140625
11.3499999,1.139639973640442,-3.421314239501953,11.058817863464355,-137.51220703125,32.257080078125,10.955810546875
11.3699999,0.9074024558067322,-3.8331170082092285,10.500968933105469,-133.056640625,24.0478515625,7.2021484375
11.389999900000001,0.6488286852836609,-4.4292731285095215,9.701305389404297,-125.823974609375,13.641357421875,3.7841796875
11.4099999,0.43095630407333374,-5.078101634979248,8.880094528198242,-119.68994140625,9.8419189453125,-0.1373291015625
11.4299999,0.30885201692581177,-5.683835029602051,8.147468566894531,-116.8975830078125,11.41357421875,-4.0740966796875
11.4499999,0.31364041566848755,-6.160281181335449,7.620744228363037,-117.340087890625,9.368896484375,-7.3394775390625
11.469999900000001,0.4118026793003082,-6.519411087036133,7.232883453369141,-120.05615234375,13.85498046875,-10.589599609375
11.4899999,0.5626373887062073,-6.761225700378418,6.9455790519714355,-127.0751953125,24.47509765625,-15.7470703125
11.5099999,0.727837324142456,-6.947973251342773,6.682217121124268,-135.2081298828125,30.3955078125,-23.6053466796875
11.5299999,0.8930372595787048,-7.108384609222412,6.404489517211914,-140.31982421875,30.8990478515625,-30.853271484375
11.549999900000001,1.0582371950149536,-7.2352776527404785,6.071695327758789,-143.24951171875,35.3546142578125,-36.163330078125
11.569999900000001,1.2497732639312744,-7.390900611877441,5.731719017028809,-115.6005859375,34.3780517578125,-38.63525390625
11.5899999,1.4532804489135742,-7.546523571014404,5.386953830718994,-68.695068359375,30.4107666015625,-41.473388671875
11.6099999,1.6543933153152466,-7.785943984985352,4.967968463897705,-131.3934326171875,60.6536865234375,-49.4842529296875
11.629999900000001,1.7908629179000854,-7.994239330291748,4.546588897705078,-168.8995361328125,79.5440673828125,-53.6651611328125
11.649999900000001,1.889025092124939,-8.24084186553955,4.046200752258301,-160.980224609375,79.498291015625,-55.6182861328125
11.6699999,1.9129672050476074,-8.406042098999023,3.555389642715454,-158.75244140625,80.7647705078125,-58.7005615234375
11.6899999,1.9033904075622559,-8.525752067565918,3.0526070594787598,-156.9061279296875,83.2977294921875,-61.676025390625
11.709999900000001,1.8914192914962769,-8.619126319885254,2.5713725090026855,-152.984619140625,82.3211669921875,-65.5670166015625
11.729999900000001,1.9033904075622559,-8.688557624816895,2.1045033931732178,-147.4761962890625,80.810546875,-69.2138671875
11.7499999,1.9393033981323242,-8.710105895996094,1.680729627609253,-141.4794921875,79.345703125,-71.1517333984375
11.7699999,2.011129379272461,-8.683769226074219,1.3215993642807007,-137.969970703125,77.5604248046875,-73.272705078125
11.7899999,2.1356279850006104,-8.607154846191406,0.9911994934082031,-138.00048828125,75.3326416015625,-76.6143798828125
11.809999900000001,2.3319525718688965,-8.497021675109863,0.7086837291717529,-138.24462890625,69.366455078125,-79.2999267578125
11.8299999,2.612074136734009,-8.398859977722168,0.4141969084739685,-136.6119384765625,65.4296875,-79.8797607421875
11.8499999,2.9544448852539062,-8.348581314086914,0.08379705995321274,-134.94873046875,61.5081787109375,-76.1260986328125
11.8699999,3.3303346633911133,-8.336610794067383,-0.272938996553421,-133.575439453125,49.2401123046875,-66.7877197265625
11.889999900000001,3.7181951999664307,-8.355764389038086,-0.6416460275650024,-130.889892578125,35.82763671875,-56.1370849609375
11.9099999,4.072536945343018,-8.367734909057617,-0.9864110946655273,-127.2430419921875,33.3404541015625,-47.3480224609375
11.9299999,4.369418144226074,-8.327033042907715,-1.3000515699386597,-125.30517578125,37.8265380859375,-38.75732421875
11.9499999,4.5825018882751465,-8.248024940490723,-1.6089035272598267,-124.4659423828125,38.116455078125,-30.8074951171875
11.969999900000001,4.7189717292785645,-8.145073890686035,-1.9488801956176758,-120.880126953125,31.2957763671875,-25.115966796875
11.9899999,4.809951305389404,-8.042123794555664,-2.31758713722229,-113.1134033203125,28.74755859375,-22.369384765625
12.0099999,4.867412090301514,-7.977479934692383,-2.7246015071868896,-101.98974609375,34.2254638671875,-20.0653076171875
12.0299999,4.881777286529541,-7.948749542236328,-3.1292216777801514,-88.92822265625,34.515380859375,-15.9454345703125
12.049999900000001,4.862623691558838,-7.94635534286499,-3.4979286193847656,-74.1119384765625,26.79443359375,-12.87841796875
12.069999900000001,4.824316501617432,-7.955932140350342,-3.773261785507202,-58.7158203125,23.3917236328125,-14.1448974609375
12.0899999,4.795586109161377,-7.955932140350342,-3.928884983062744,-46.478271484375,28.13720703125,-16.448974609375
12.1099999,4.786009311676025,-7.927201747894287,-3.9624037742614746,-38.818359375,30.1361083984375,-16.326904296875
12.129999900000001,4.800374507904053,-7.872135162353516,-3.907337188720703,-33.2183837890625,24.993896484375,-15.5181884765625
12.149999900000001,4.838681697845459,-7.795520782470703,-3.825934410095215,-28.25927734375,21.5301513671875,-15.68603515625
12.1699999,4.917690277099609,-7.702147006988525,-3.737348794937134,-25.45166015625,23.8189697265625,-15.68603515625
12.1899999,5.015852451324463,-7.601590633392334,-3.6583402156829834,-24.6124267578125,26.947021484375,-14.9383544921875
12.209999900000001,5.197812080383301,-7.445967197418213,-3.6104562282562256,-23.193359375,24.200439453125,-15.5181884765625
12.229999900000001,5.25527286529541,-7.41484260559082,-3.6750996112823486,-20.660400390625,17.6544189453125,-13.61083984375
12.2499999,5.307945251464844,-7.400477409362793,-3.7852327823638916,-16.6015625,8.209228515625,-9.765625
12.2699999,5.367800235748291,-7.395689010620117,-3.914519786834717,-11.138916015625,1.678466796875,-7.0037841796875
12.289999900000002,5.418078422546387,-7.386112213134766,-4.036623954772949,-4.730224609375,-0.4425048828125,-6.4697265625
12.309999900000001,5.451597213745117,-7.362170219421387,-4.132391929626465,1.1138916015625,-2.1209716796875,-5.1727294921875
12.3299999,5.4659624099731445,-7.338228225708008,-4.211400985717773,6.3629150390625,-3.7689208984375,-3.7078857421875
12.3499999,5.4659624099731445,-7.314286231994629,-4.242525577545166,11.2457275390625,-4.5318603515625,-4.1961669921875
12.3699999,5.473145008087158,-7.29034423828125,-4.23773717880249,14.8162841796875,-1.3275146484375,-5.9356689453125
12.389999900000001,5.475539207458496,-7.280767440795898,-4.2090067863464355,16.693115234375,2.5482177734375,-7.1868896484375
12.4099999,5.48272180557251,-7.319074630737305,-4.242525577545166,18.707275390625,-3.4027099609375,-4.4708251953125
12.4299999,5.509057998657227,-7.376535415649414,-4.23773717880249,26.6265869140625,-14.5111083984375,0.3509521484375
12.4499999,5.566518783569336,-7.412448406219482,-4.247313976287842,34.5458984375,-15.5029296875,3.0364990234375
12.469999900000001,5.612008571624756,-7.4555439949035645,-4.211400985717773,36.7279052734375,-7.2174072265625,4.3792724609375
12.4899999,5.671864032745361,-7.433996200561523,-4.0294413566589355,34.0423583984375,-1.4801025390625,6.4697265625
12.5099999,5.655104637145996,-7.42681360244751,-3.8355112075805664,29.47998046875,0.091552734375,8.9111328125
12.5299999,5.57370138168335,-7.362170219421387,-3.5889084339141846,23.3917236328125,3.2196044921875,8.1787109375
12.549999900000001,5.439626216888428,-7.321468830108643,-3.3279404640197754,15.5792236328125,7.9498291015625,4.2724609375
12.569999900000001,5.279214859008789,-7.230489253997803,-3.1052796840667725,3.60107421875,8.0413818359375,1.708984375
12.5899999,5.166687488555908,-7.204153060913086,-2.9065608978271484,-10.498046875,5.31005859375,1.2664794921875
12.6099999,5.082890033721924,-7.177816867828369,-2.808398485183716,-21.6217041015625,10.6048583984375,-0.640869140625
12.629999900000001,5.082890033721924,-7.2352776527404785,-2.7916390895843506,-28.0609130859375,17.333984375,-4.425048828125
12.649999900000001,5.0876784324646,-7.3238630294799805,-2.9305028915405273,-30.4718017578125,13.73291015625,-5.035400390625
12.6699999,5.130774021148682,-7.450755596160889,-3.117250680923462,-29.60205078125,3.753662109375,-1.617431640625
12.6899999,5.171475887298584,-7.601590633392334,-3.375824451446533,-25.57373046875,-0.091552734375,0.885009765625
12.709999900000001,5.200206279754639,-7.7213006019592285,-3.6128504276275635,-18.9666748046875,2.5787353515625,1.495361328125
12.729999900000001,5.22175407409668,-7.802703380584717,-3.8379054069519043,-11.260986328125,2.6397705078125,1.8768310546875
12.7499999,5.193023681640625,-7.824251174926758,-4.000710964202881,-3.173828125,-2.9296875,2.410888671875
12.7699999,5.185841083526611,-7.805097579956055,-4.091690540313721,3.96728515625,-9.002685546875,2.44140625
12.789999900000002,5.193023681640625,-7.747636795043945,-4.094084739685059,8.453369140625,-9.58251953125,3.23486328125
12.809999900000001,5.224148273468018,-7.680599212646484,-4.005499362945557,9.9639892578125,-4.608154296875,4.94384765625
12.8299999,5.264849662780762,-7.599195957183838,-3.8762125968933105,10.3912353515625,0.91552734375,5.31005859375
12.8499999,5.260061264038086,-7.539340972900391,-3.7397429943084717,10.1165771484375,2.0904541015625,3.90625
12.8699999,5.231330871582031,-7.496245384216309,-3.627215623855591,7.99560546875,-0.4119873046875,2.5177001953125
12.889999900000001,5.212177276611328,-7.467514991760254,-3.531447410583496,4.94384765625,-2.197265625,1.4495849609375
12.9099999,5.212177276611328,-7.481880187988281,-3.464409828186035,1.9683837890625,-1.3580322265625,1.1749267578125
12.9299999,5.233725070953369,-7.51779317855835,-3.423708438873291,0.091552734375,1.953125,1.312255859375
12.9499999,5.238513469696045,-7.568071365356445,-3.4380736351013184,-0.5340576171875,4.8065185546875,0.67138671875
12.969999900000001,5.22175407409668,-7.627926826477051,-3.485957622528076,-0.5340576171875,2.2430419921875,-0.152587890625
12.9899999,5.185841083526611,-7.663839817047119,-3.5434184074401855,-0.244140625,-3.1280517578125,-0.0152587890625
13.0099999,5.169081687927246,-7.668628215789795,-3.598485231399536,0.3204345703125,-3.84521484375,0.8087158203125
13.0299999,5.157110691070557,-7.668628215789795,-3.6343982219696045,1.495361328125,1.922607421875,0.091552734375
13.049999900000001,5.147533416748047,-7.659051418304443,-3.6798880100250244,3.41796875,3.6468505859375,-0.885009765625
13.069999900000001,5.123591423034668,-7.642292022705078,-3.6966474056243896,5.06591796875,-3.5858154296875,0.0152587890625
13.0899999,5.102043628692627,-7.637503623962402,-3.6798880100250244,4.7760009765625,-6.0882568359375,1.1138916015625
13.1099999,5.099649429321289,-7.5968017578125,-3.6391866207122803,3.5552978515625,0.06103515625,1.2359619140625
13.129999900000001,5.109226226806641,-7.558494567871094,-3.5721490383148193,3.0670166015625,5.157470703125,0.8087158203125
13.149999900000001,5.109226226806641,-7.539340972900391,-3.533841609954834,3.509521484375,4.3487548828125,0.3204345703125
13.1699999,5.097255229949951,-7.513004779815674,-3.512293815612793,4.0130615234375,-2.0751953125,1.190185546875
13.1899999,5.1116204261779785,-7.529764175415039,-3.4835634231567383,3.6773681640625,-4.6844482421875,2.410888671875
13.209999900000001,5.128379821777344,-7.529764175415039,-3.464409828186035,3.0975341796875,0.79345703125,2.899169921875
13.229999900000001,5.17626428604126,-7.544129371643066,-3.445256233215332,3.1585693359375,5.859375,2.7923583984375
13.2499999,5.178658485412598,-7.589619159698486,-3.4572272300720215,4.241943359375,2.410888671875,2.777099609375
13.2699999,5.173870086669922,-7.623138427734375,-3.4763808250427246,5.218505859375,-4.9591064453125,3.021240234375
13.289999900000002,5.166687488555908,-7.673416614532471,-3.466804027557373,4.6539306640625,-6.9122314453125,3.387451171875
13.309999900000001,5.149928092956543,-7.704541206359863,-3.4404678344726562,3.35693359375,0.6561279296875,3.1585693359375
13.3299999,5.152322292327881,-7.73087739944458,-3.4141316413879395,2.288818359375,7.6751708984375,2.50244140625
13.3499999,5.106832027435303,-7.750030994415283,-3.4117374420166016,1.9989013671875,3.2196044921875,2.50244140625
13.3699999,5.056553840637207,-7.781155586242676,-3.4189200401306152,1.1444091796875,-5.5694580078125,3.204345703125
13.389999900000001,5.015852451324463,-7.795520782470703,-3.423708438873291,-0.9765625,-6.744384765625,3.0975341796875
13.4099999,4.99669885635376,-7.829039573669434,-3.4093432426452637,-2.74658203125,0.91552734375,1.7242431640625
13.4299999,4.989516258239746,-7.860164165496826,-3.4165258407592773,-2.7923583984375,6.988525390625,-0.06103515625
13.4499999,4.975151062011719,-7.905653953552246,-3.4620156288146973,-1.52587890625,5.5389404296875,-1.0986328125
13.469999900000001,4.960785865783691,-7.94635534286499,-3.531447410583496,0.8697509765625,3.3111572265625,-2.25830078125
13.4899999,4.95120906829834,-7.977479934692383,-3.620033025741577,3.265380859375,2.13623046875,-3.2196044921875
13.5099999,5.027823448181152,-7.9631147384643555,-3.6559460163116455,5.2947998046875,-0.3204345703125,-1.007080078125
13.5299999,5.166687488555908,-7.8314337730407715,-3.3638534545898438,-0.91552734375,5.462646484375,2.471923828125
13.549999900000001,5.276820659637451,-7.671022415161133,-3.1938650608062744,-28.38134765625,22.735595703125,4.150390625
13.569999900000001,5.303156852722168,-7.474697589874268,-2.942473888397217,-47.119140625,26.6265869140625,3.2501220703125
13.5899999,5.200206279754639,-7.4100542068481445,-3.0406360626220703,-44.921875,13.2598876953125,1.7242431640625
13.6099999,5.003881454467773,-7.469909191131592,-3.4524388313293457,-30.1666259765625,1.495361328125,-1.4801025390625
13.629999900000001,4.829104900360107,-7.654263019561768,-4.02465295791626,-10.55908203125,-0.7476806640625,-4.82177734375
13.649999900000001,4.752490520477295,-7.86734676361084,-4.551377296447754,8.9569091796875,1.0528564453125,-6.378173828125
13.6699999,4.759673118591309,-8.054094314575195,-4.922478675842285,24.6124267578125,3.173828125,-4.8065185546875
13.6899999,4.817133903503418,-8.188169479370117,-5.0900726318359375,36.1480712890625,3.6163330078125,-0.823974609375
13.709999900000001,4.865017890930176,-8.252813339233398,-5.063736438751221,43.5791015625,0.54931640625,3.7689208984375
13.729999900000001,4.8937482833862305,-8.250418663024902,-4.884171485900879,46.173095703125,-1.6021728515625,6.561279296875
13.7499999,4.9152960777282715,-8.212111473083496,-4.608838081359863,45.1812744140625,3.0975341796875,5.9814453125
13.7699999,4.944026470184326,-8.149862289428711,-4.309563159942627,42.5262451171875,9.94873046875,4.5318603515625
13.789999900000002,4.95120906829834,-8.106766700744629,-4.0533833503723145,42.1600341796875,12.939453125,2.716064453125
13.809999900000001,4.922478675842285,-8.087613105773926,-3.8786067962646484,43.853759765625,11.9171142578125,-0.213623046875
13.8299999,4.853046894073486,-8.097189903259277,-3.7852327823638916,46.2646484375,10.0250244140625,-2.655029296875
13.8499999,4.774038314819336,-8.1139497756958,-3.7277719974517822,48.919677734375,9.9334716796875,-5.3558349609375
13.8699999,4.733336925506592,-8.128314971923828,-3.6559460163116455,52.764892578125,13.48876953125,-10.2081298828125
13.889999900000001,4.742913722991943,-8.123526573181152,-3.5482068061828613,57.06787109375,21.2554931640625,-16.9830322265625
13.9099999,4.853046894073486,-8.121131896972656,-3.383007049560547,60.882568359375,32.5775146484375,-22.003173828125
13.9299999,5.0014872550964355,-8.118738174438477,-3.1914708614349365,64.971923828125,45.379638671875,-22.5372314453125
13.9499999,5.161899089813232,-8.142680168151855,-2.9879636764526367,69.9005126953125,51.8035888671875,-18.798828125
13.969999900000001,5.295974254608154,-8.166622161865234,-2.7772738933563232,75.408935546875,48.7060546875,-13.8092041015625
13.9899999,5.370194435119629,-8.169015884399414,-2.5330653190612793,80.902099609375,43.121337890625,-11.77978515625
14.0099999,5.398924827575684,-8.128314971923828,-2.2433669567108154,84.930419921875,43.7469482421875,-12.4359130859375
14.0299999,5.427655220031738,-8.027758598327637,-1.86508309841156,86.60888671875,47.9736328125,-13.336181640625
14.049999900000001,5.492298603057861,-7.876923561096191,-1.3623007535934448,85.052490234375,55.0994873046875,-15.5181884765625
14.069999900000001,5.583278179168701,-7.68538761138916,-0.7709329724311829,77.8961181640625,68.1304931640625,-18.7530517578125
14.0899999,5.671864032745361,-7.474697589874268,-0.11013327538967133,63.8580322265625,80.780029296875,-19.7906494140625
14.1099999,5.729324817657471,-7.249642848968506,0.5650315880775452,45.928955078125,88.3941650390625,-17.9901123046875
14.129999900000001,5.722142219543457,-7.026981830596924,1.2042834758758545,27.618408203125,97.2900390625,-18.157958984375
14.149999900000001,5.659893035888672,-6.8043212890625,1.7621324062347412,9.2315673828125,112.0758056640625,-21.4080810546875
14.1699999,5.566518783569336,-6.603208065032959,2.2218191623687744,-8.544921875,127.62451171875,-25.726318359375
14.1899999,5.4444146156311035,-6.426037311553955,2.5522189140319824,-24.2767333984375,136.3372802734375,-29.327392578125
14.209999900000001,5.317522048950195,-6.301538944244385,2.7533318996429443,-37.506103515625,136.71875,-32.2418212890625
14.229999900000001,5.195417881011963,-6.2392897605896,2.8347349166870117,-48.004150390625,133.4228515625,-34.60693359375
14.2499999,5.125985622406006,-6.222530364990234,2.849100112915039,-56.7626953125,127.01416015625,-34.515380859375
14.2699999,5.137956619262695,-6.248866558074951,2.851494312286377,-64.422607421875,120.7275390625,-32.012939453125
14.289999900000002,5.216965675354004,-6.320692539215088,2.8586769104003906,-70.892333984375,118.133544921875,-27.28271484375
14.309999900000001,5.336675643920898,-6.411672115325928,2.9041666984558105,-77.2857666015625,117.3248291015625,-19.866943359375
14.3299999,5.453991413116455,-6.517016887664795,2.9759926795959473,-83.892822265625,117.67578125,-12.2833251953125
14.3499999,5.51624059677124,-6.610390663146973,3.043030261993408,-89.1876220703125,118.8812255859375,-6.439208984375
14.3699999,5.501875400543213,-6.672640323638916,3.0765492916107178,-93.20068359375,118.4539794921875,-2.9754638671875
14.389999900000001,5.4252610206604,-6.739677906036377,3.0550012588500977,-95.5963134765625,114.654541015625,-1.190185546875
14.4099999,5.284003257751465,-6.854599475860596,2.9759926795959473,-96.7864990234375,108.428955078125,2.1209716796875
14.4299999,5.114014625549316,-7.026981830596924,2.851494312286377,-97.59521484375,100.4638671875,8.9874267578125
14.4499999,4.965574264526367,-7.254431247711182,2.7246015071868896,-97.2137451171875,92.8955078125,14.7705078125
14.469999900000001,4.824316501617432,-7.522581577301025,2.58813214302063,-95.15380859375,89.4317626953125,16.937255859375
14.4899999,4.699818134307861,-7.807491779327393,2.449268341064453,-91.3543701171875,87.249755859375,20.2178955078125
14.5099999,4.577713489532471,-8.099584579467773,2.319981336593628,-85.75439453125,82.8094482421875,26.153564453125
14.5299999,4.412513732910156,-8.42040729522705,2.1787235736846924,-78.033447265625,79.5440673828125,30.8990478515625
14.549999900000001,4.185064792633057,-8.762778282165527,2.0254945755004883,-69.2291259765625,75.8514404296875,33.8592529296875
14.569999900000001,3.909731388092041,-9.105149269104004,1.886630892753601,-59.0057373046875,66.5435791015625,37.567138671875
14.5899999,3.579331636428833,-9.457097053527832,1.7597382068634033,-46.56982421875,56.1676025390625,41.9158935546875
14.6099999,3.2321722507476807,-9.792284965515137,1.6615760326385498,-32.257080078125,47.4395751953125,45.4864501953125
14.629999900000001,2.868253707885742,-10.103530883789062,1.5825673341751099,-15.7470703125,37.7960205078125,47.1649169921875
14.649999900000001,2.5115175247192383,-10.350133895874023,1.5538369417190552,1.46484375,23.13232421875,48.3245849609375
14.6699999,2.185906171798706,-10.532093048095703,1.5610195398330688,17.2119140625,8.8653564453125,47.4700927734375
14.6899999,1.9081788063049316,-10.596736907958984,1.6903064250946045,29.6478271484375,-0.396728515625,41.50390625
14.709999900000001,1.7405846118927002,-10.563218116760254,1.922544002532959,37.139892578125,-0.030517578125,30.76171875
14.729999900000001,1.6400281190872192,-10.551246643066406,2.145204782485962,42.1600341796875,2.0294189453125,20.1416015625
14.7499999,1.6950948238372803,-10.445901870727539,2.4420857429504395,53.6651611328125,-2.7313232421875,14.46533203125
14.7699999,1.8291701078414917,-10.436325073242188,2.669534921646118,61.8133544921875,-6.866455078125,13.3209228515625
14.789999900000002,2.078166961669922,-10.302249908447266,2.9735984802246094,60.36376953125,-4.058837890625,12.359619140625
14.809999900000001,2.341529369354248,-10.086771965026855,3.3016040325164795,50.9185791015625,3.1585693359375,11.8865966796875
14.8299999,2.5474305152893066,-9.75637149810791,3.6966474056243896,30.82275390625,2.13623046875,13.12255859375
14.8499999,2.63362193107605,-9.315838813781738,4.01268196105957,10.101318359375,-0.9613037109375,11.0015869140625
14.8699999,2.5546131134033203,-8.99740982055664,4.19224739074707,-4.2724609375,-1.6021728515625,4.7149658203125
14.889999900000001,2.3989901542663574,-8.674192428588867,4.2329487800598145,-15.3350830078125,-2.7618408203125,-3.7384033203125
14.9099999,2.22660756111145,-8.585607528686523,4.079719543457031,-23.6053466796875,-0.732421875,-10.894775390625
14.9299999,2.1164743900299072,-8.588001251220703,3.8115692138671875,-30.517578125,1.46484375,-14.70947265625
14.9499999,2.1308395862579346,-8.731653213500977,3.4620156288146973,-32.8826904296875,2.1209716796875,-15.07568359375
14.969999900000001,2.2409727573394775,-8.944737434387207,3.0789434909820557,-30.1666259765625,0.4730224609375,-13.1683349609375
14.9899999,2.4205379486083984,-9.17936897277832,2.693476915359497,-25.177001953125,-2.8076171875,-9.6435546875
15.0099999,2.6216509342193604,-9.363722801208496,2.382230758666992,-17.822265625,-0.67138671875,-7.171630859375
15.0299999,2.784456491470337,-9.452308654785156,2.123656988143921,-8.85009765625,1.3885498046875,-5.889892578125
15.049999900000001,2.9257144927978516,-9.466673851013184,1.98958158493042,-2.044677734375,-2.1820068359375,-3.5552978515625
15.069999900000001,3.002328872680664,-9.411606788635254,1.9033904075622559,2.0599365234375,-5.9051513671875,-0.4119873046875
15.0899999,3.0573954582214355,-9.327810287475586,1.9033904075622559,4.82177734375,-5.8135986328125,1.4190673828125
15.1099999,3.071760892868042,-9.220070838928223,1.9847931861877441,6.5155029296875,-2.0599365234375,0.701904296875
15.129999900000001,3.043030261993408,-9.126696586608887,2.0590133666992188,6.866455078125,0.518798828125,0.0457763671875
15.149999900000001,3.0142998695373535,-9.035717010498047,2.183511972427368,6.4239501953125,-1.0528564453125,1.0528564453125
15.1699999,2.9735984802246094,-9.002198219299316,2.2601263523101807,4.7149658203125,-5.0506591796875,2.7618408203125
15.1899999,2.96162748336792,-8.951920509338379,2.360682964324951,1.64794921875,-2.960205078125,2.5177001953125
15.209999900000001,2.940079689025879,-8.980650901794434,2.425326347351074,-1.8768310546875,5.8441162109375,0.244140625
15.229999900000001,2.9041666984558105,-9.002198219299316,2.4827871322631836,-5.1422119140625,7.6141357421875,-0.335693359375
15.2499999,2.851494312286377,-9.07641887664795,2.4803929328918457,-5.767822265625,2.2125244140625,1.9989013671875
15.2699999,2.7892448902130127,-9.157821655273438,2.449268341064453,-4.6844482421875,0.3662109375,2.8533935546875
15.289999900000002,2.7437551021575928,-9.224859237670898,2.38462495803833,-3.4637451171875,4.547119140625,0.6103515625
15.309999900000001,2.7269957065582275,-9.29189682006836,2.3295583724975586,-2.0294189453125,6.378173828125,-1.617431640625
15.3299999,2.7269957065582275,-9.330204010009766,2.2864625453948975,-0.1983642578125,2.44140625,-1.190185546875
15.3499999,2.7437551021575928,-9.349357604980469,2.2577321529388428,2.0751953125,-0.18310546875,0.5645751953125
15.3699999,2.765302896499634,-9.344569206237793,2.2697031497955322,3.6468505859375,2.3345947265625,1.8310546875
15.389999900000001,2.7700912952423096,-9.301473617553711,2.2888567447662354,3.7384033203125,5.06591796875,2.044677734375
15.4099999,2.765302896499634,-9.251194953918457,2.341529369354248,3.3416748046875,4.302978515625,0.579833984375
15.4299999,2.7437551021575928,-9.193734169006348,2.4133553504943848,3.021240234375,2.777099609375,-0.823974609375
15.4499999,2.734178304672241,-9.153033256530762,2.4851813316345215,2.166748046875,3.326416015625,-0.5950927734375
15.469999900000001,2.695871114730835,-9.100360870361328,2.5665841102600098,0.3814697265625,5.3863525390625,-0.7476806640625
15.4899999,2.6862943172454834,-9.0859956741333,2.6168625354766846,-1.251220703125,4.180908203125,-1.739501953125
15.5099999,2.6671407222747803,-9.064447402954102,2.6671407222747803,-2.7618408203125,-0.518798828125,-2.4871826171875
15.5299999,2.691082715988159,-9.07641887664795,2.695871114730835,-4.4403076171875,-1.739501953125,-1.7242431640625
15.549999900000001,2.7102363109588623,-9.105149269104004,2.7078421115875244,-6.591796875,-0.8087158203125,0.396728515625
15.569999900000001,2.738966703414917,-9.126696586608887,2.695871114730835,-7.6446533203125,0.701904296875,0.762939453125
15.5899999,2.734178304672241,-9.174580574035645,2.6192567348480225,-5.828857421875,2.044677734375,-1.312255859375
15.6099999,2.715024709701538,-9.217676162719727,2.5282769203186035,-3.204345703125,0.518798828125,-2.25830078125
15.629999900000001,2.715024709701538,-9.265560150146484,2.4181437492370605,-1.2664794921875,-1.3580322265625,-1.556396484375
15.649999900000001,2.7269957065582275,-9.287108421325684,2.3511061668395996,0.1068115234375,-1.7547607421875,-0.8392333984375
15.6699999,2.7461493015289307,-9.279925346374512,2.3127987384796143,1.1138916015625,0.0152587890625,-0.3204345703125
15.6899999,2.7724854946136475,-9.244012832641602,2.315192937850952,1.77001953125,0.5950927734375,0.1373291015625
15.709999900000001,2.7772738933563232,-9.191340446472168,2.3271639347076416,1.89208984375,-0.5340576171875,-0.335693359375
15.729999900000001,2.7916390895843506,-9.133879661560059,2.365471363067627,1.8463134765625,-1.3580322265625,-0.48828125
15.7499999,2.8131868839263916,-9.0859956741333,2.4205379486083984,1.2054443359375,-0.1678466796875,-0.30517578125
15.7699999,2.832340717315674,-9.05487060546875,2.47560453414917,-0.18310546875,1.9378662109375,0.4119873046875
15.789999900000002,2.8347349166870117,-9.062053680419922,2.5043349266052246,-1.861572265625,2.38037109375,1.89208984375
15.809999900000001,2.806004285812378,-9.10993766784668,2.497152328491211,-2.6092529296875,-0.1068115234375,3.204345703125
15.8299999,2.765302896499634,-9.188945770263672,2.454056739807129,-1.89208984375,-4.0283203125,3.9825439453125
15.8499999,2.7102363109588623,-9.27034854888916,2.408566951751709,-1.2664794921875,-4.2877197265625,4.0435791015625
15.869999900000002,2.693476915359497,-9.366117477416992,2.3535003662109375,-1.708984375,-0.6561279296875,2.99072265625
15.889999900000001,2.6791117191314697,-9.428366661071777,2.315192937850952,-0.1983642578125,2.50244140625,1.739501953125
15.9099999,2.7030537128448486,-9.402029991149902,2.4851813316345215,0.67138671875,1.40380859375,3.35693359375
15.9299999,2.698265314102173,-9.330204010009766,2.650381326675415,-17.4560546875,6.8511962890625,5.67626953125
15.9499999,2.6360161304473877,-9.232041358947754,2.8874073028564453,-38.360595703125,12.26806640625,4.8828125
15.969999900000001,2.4684219360351562,-9.224859237670898,2.894589900970459,-37.6129150390625,3.8299560546875,0.152587890625
15.9899999,2.231395959854126,-9.378087997436523,2.6192567348480225,-19.439697265625,-7.598876953125,-6.072998046875
16.0099999,1.9919757843017578,-9.639056205749512,2.1380221843719482,3.8299560546875,-18.4173583984375,-12.5732421875
16.0299999,1.8842366933822632,-9.938331604003906,1.680729627609253,21.9268798828125,-25.7720947265625,-16.54052734375
16.0499999,1.9393033981323242,-10.14902114868164,1.4437036514282227,32.40966796875,-25.87890625,-16.693115234375
16.0699999,2.1499931812286377,-10.216058731079102,1.4891934394836426,37.5213623046875,-20.721435546875,-14.8468017578125
16.089999900000002,2.43011474609375,-10.122684478759766,1.7597382068634033,37.9638671875,-16.6473388671875,-14.3585205078125
16.109999900000002,2.8826189041137695,-9.615114212036133,2.477998733520508,32.6385498046875,-23.468017578125,-17.4102783203125
16.1299999,2.999934673309326,-9.318233489990234,2.765302896499634,28.6102294921875,-26.6571044921875,-18.951416015625
16.1499999,3.045424461364746,-9.069235801696777,2.964021682739258,22.9339599609375,-24.017333984375,-21.1639404296875
16.1699999,3.0573954582214355,-8.89685344696045,3.069366693496704,16.6778564453125,-21.514892578125,-23.1475830078125
16.1899999,3.043030261993408,-8.820239067077637,3.098097085952759,10.31494140625,-23.6053466796875,-24.8260498046875
16.2099999,3.028665065765381,-8.83699893951416,3.0573954582214355,5.0201416015625,-25.6805419921875,-26.85546875
16.2299999,3.045424461364746,-8.923190116882324,2.9879636764526367,1.617431640625,-24.749755859375,-30.059814453125
16.249999900000002,3.1028854846954346,-9.042900085449219,2.9161376953125,0.030517578125,-22.491455078125,-33.6456298828125
16.269999900000002,3.1938650608062744,-9.153033256530762,2.832340717315674,0.4119873046875,-21.453857421875,-35.919189453125
16.2899999,3.3039982318878174,-9.229647636413574,2.734178304672241,2.5787353515625,-24.8565673828125,-37.59765625
16.3099999,3.4356794357299805,-9.255983352661133,2.6360161304473877,5.279541015625,-29.022216796875,-40.2679443359375
16.3299999,3.598485231399536,-9.220070838928223,2.5498247146606445,7.6751708984375,-28.99169921875,-43.27392578125
16.3499999,3.780444383621216,-9.131484985351562,2.4899697303771973,10.3912353515625,-26.7791748046875,-44.7235107421875
16.3699999,3.957615375518799,-8.983044624328613,2.4372973442077637,13.458251953125,-27.1759033203125,-43.731689453125
16.3899999,4.1156325340271,-8.789113998413086,2.389413356781006,16.7999267578125,-31.6009521484375,-43.487548828125
16.4099999,4.247313976287842,-8.554482460021973,2.3343467712402344,19.4244384765625,-36.1328125,-46.0357666015625
16.429999900000002,4.383783340454102,-8.303091049194336,2.3056161403656006,21.331787109375,-36.6668701171875,-49.2401123046875
16.4499999,4.548983097076416,-8.04930591583252,2.3032219409942627,21.6827392578125,-34.9273681640625,-51.055908203125
16.4699999,4.745307922363281,-7.819462776184082,2.3295583724975586,20.5535888671875,-34.912109375,-51.6510009765625
16.4899999,4.9799394607543945,-7.60637903213501,2.3726539611816406,18.341064453125,-35.7513427734375,-51.971435546875
16.5099999,5.233725070953369,-7.41484260559082,2.4205379486083984,15.5181884765625,-34.576416015625,-52.0477294921875
16.5299999,5.497087001800537,-7.254431247711182,2.449268341064453,13.36669921875,-32.3486328125,-51.1322021484375
16.5499999,5.722142219543457,-7.108384609222412,2.425326347351074,11.7645263671875,-34.6832275390625,-47.454833984375
16.5699999,5.940014362335205,-6.981492042541504,2.3558945655822754,9.4146728515625,-42.083740234375,-43.6248779296875
16.589999900000002,6.143521785736084,-6.866570472717285,2.2409727573394775,7.537841796875,-44.3878173828125,-42.236328125
16.609999900000002,6.320692539215088,-6.768408298492432,2.097320795059204,6.77490234375,-40.6494140625,-40.0238037109375
16.6299999,6.473921298980713,-6.66785192489624,1.9488801956176758,6.317138671875,-38.787841796875,-35.7666015625
16.6499999,6.57926607131958,-6.564900875091553,1.7980455160140991,6.2103271484375,-38.0706787109375,-35.0341796875
16.6699999,6.646304130554199,-6.45476770401001,1.647210717201233,7.171630859375,-33.966064453125,-39.55078125
16.6899999,6.710947513580322,-6.3518171310424805,1.501164436340332,9.368896484375,-28.25927734375,-44.036865234375
16.7099999,6.787561893463135,-6.260837554931641,1.3551181554794312,11.871337890625,-26.9775390625,-44.158935546875
16.7299999,6.9024834632873535,-6.19379997253418,1.237802267074585,14.0533447265625,-29.78515625,-42.66357421875
16.749999900000002,7.029376029968262,-6.145915985107422,1.1444283723831177,15.9759521484375,-28.4881591796875,-42.938232421875
16.769999900000002,7.1706342697143555,-6.086060523986816,1.0965443849563599,17.608642578125,-23.25439453125,-43.5333251953125
16.7899999,7.338228225708008,-6.011840343475342,1.0965443849563599,18.61572265625,-19.95849609375,-43.9605712890625
16.8099999,7.5201873779296875,-5.932831764221191,1.1228805780410767,19.3023681640625,-18.0511474609375,-44.2962646484375
16.8299999,7.69735860824585,-5.841852188110352,1.1635819673538208,19.6990966796875,-15.7012939453125,-41.8548583984375
16.8499999,7.869740962982178,-5.746084213256836,1.1994950771331787,19.622802734375,-13.946533203125,-36.5447998046875
16.8699999,8.003816604614258,-5.640739440917969,1.235408067703247,19.4854736328125,-15.6402587890625,-31.036376953125
16.8899999,8.101978302001953,-5.521028995513916,1.2713210582733154,18.9361572265625,-17.1966552734375,-26.9317626953125
16.9099999,8.164227485656738,-5.386953830718994,1.3192051649093628,17.2271728515625,-13.7481689453125,-23.98681640625
16.929999900000002,8.185775756835938,-5.245696067810059,1.3742717504501343,14.83154296875,-8.6517333984375,-20.5841064453125
16.9499999,8.169015884399414,-5.109226226806641,1.414973258972168,12.420654296875,-8.4991455078125,-16.2506103515625
16.9699999,8.121131896972656,-4.991910457611084,1.4245500564575195,10.5438232421875,-14.6942138671875,-12.8936767578125
16.9899999,8.073247909545898,-4.898536682128906,1.4293384552001953,8.575439453125,-20.751953125,-11.6424560546875
17.0099999,8.063671112060547,-4.836287498474121,1.4437036514282227,6.011962890625,-17.852783203125,-11.0931396484375
17.0299999,8.078036308288574,-4.797980308532715,1.479616641998291,2.838134765625,-9.9639892578125,-10.0555419921875
17.0499999,8.109161376953125,-4.788403511047363,1.5059528350830078,-0.48828125,-7.537841796875,-8.7738037109375
17.0699999,8.145073890686035,-4.800374507904053,1.5131354331970215,-2.9144287109375,-9.8724365234375,-8.23974609375
17.089999900000002,8.180987358093262,-4.838681697845459,1.4987702369689941,-4.638671875,-8.0718994140625,-8.0413818359375
17.109999900000002,8.197746276855469,-4.8937482833862305,1.4628572463989258,-5.9661865234375,-2.9449462890625,-6.3018798828125
17.1299999,8.20492935180664,-4.963180065155029,1.4221558570861816,-6.7596435546875,-4.5623779296875,-4.058837890625
17.1499999,8.149862289428711,-5.037400245666504,1.3335703611373901,-6.04248046875,-10.43701171875,-4.5013427734375
17.1699999,8.094796180725098,-5.102043628692627,1.2186486721038818,-1.64794921875,-14.2364501953125,-7.5531005859375
17.1899999,8.092401504516602,-5.166687488555908,1.113303780555725,4.82177734375,-13.3819580078125,-10.0250244140625
17.2099999,8.145073890686035,-5.214571475982666,1.0438719987869263,7.598876953125,-9.82666015625,-8.4075927734375
17.2299999,8.271966934204102,-5.2265424728393555,1.0319008827209473,6.866455078125,-9.46044921875,-2.86865234375
17.249999900000002,8.38688850402832,-5.188235282897949,1.0678139925003052,5.0506591796875,-7.720947265625,0.9002685546875
17.269999900000002,8.465897560119629,-5.12119722366333,1.1204863786697388,2.99072265625,-2.044677734375,0.9613037109375
17.2899999,8.492233276367188,-4.99669885635376,1.1516109704971313,0.518798828125,1.556396484375,0.2593994140625
17.3099999,8.446743965148926,-4.932055473327637,1.1444283723831177,-0.91552734375,-0.640869140625,1.220703125
17.3299999,8.365341186523438,-4.862623691558838,1.1109095811843872,-0.7171630859375,-4.364013671875,2.50244140625
17.3499999,8.250418663024902,-4.884171485900879,1.036689281463623,-0.1220703125,-5.615234375,1.46484375
17.3699999,8.185775756835938,-4.903325080871582,1.0127472877502441,-0.5950927734375,-3.9825439453125,-0.823974609375
17.3899999,8.154650688171387,-4.987122058868408,0.9744400978088379,-1.89208984375,-1.2359619140625,-1.556396484375
17.409999900000003,8.17380428314209,-5.049371242523193,0.9840168952941895,-2.9449462890625,-0.5340576171875,-0.1373291015625
17.429999900000002,8.20492935180664,-5.114014625549316,0.9840168952941895,-2.8533935546875,-1.7547607421875,1.4801025390625
17.4499999,8.22887134552002,-5.135562419891357,0.9816226959228516,-2.410888671875,-2.1514892578125,1.3885498046875
17.4699999,8.248024940490723,-5.125985622406006,0.9864110946655273,-2.4261474609375,-0.67138671875,0.0152587890625
17.4899999,8.24084186553955,-5.125985622406006,0.9672574996948242,-2.13623046875,0.762939453125,-0.823974609375
17.5099999,8.24084186553955,-5.085284233093262,0.9816226959228516,-1.007080078125,-0.335693359375,-0.0457763671875
17.5299999,8.214506149291992,-5.097255229949951,0.9528923034667969,-0.1220703125,-2.7618408203125,1.068115234375
17.5499999,8.195352554321289,-5.094861030578613,0.9552865028381348,0.244140625,-2.655029296875,0.18310546875
17.5699999,8.202534675598145,-5.085284233093262,0.9552865028381348,0.18310546875,0.5340576171875,-1.40380859375
17.589999900000002,8.20492935180664,-5.102043628692627,0.950498104095459,0.3509521484375,3.4027099609375,-1.89208984375
17.609999900000002,8.226476669311523,-5.099649429321289,0.9528923034667969,1.2359619140625,1.434326171875,-0.335693359375
17.6299999,8.243236541748047,-5.085284233093262,0.9576807022094727,2.13623046875,-2.4566650390625,2.0904541015625
17.6499999,8.255207061767578,-5.058948040008545,0.9696516990661621,2.2125244140625,-2.716064453125,2.44140625
17.6699999,8.269572257995605,-5.03021764755249,0.9864110946655273,2.1514892578125,0,1.7242431640625
17.6899999,8.26239013671875,-5.027823448181152,1.0079588890075684,2.0599365234375,1.5716552734375,1.9989013671875
17.7099999,8.245630264282227,-5.011064052581787,1.0319008827209473,2.1209716796875,0.2593994140625,2.7923583984375
17.7299999,8.216899871826172,-5.061342239379883,1.0295066833496094,1.556396484375,-1.40380859375,2.6092529296875
17.749999900000002,8.197746276855469,-5.054159641265869,1.05105459690094,0.457763671875,-1.495361328125,1.922607421875
17.769999900000002,8.188169479370117,-5.106832027435303,1.0438719987869263,-0.6866455078125,-0.5340576171875,1.89208984375
17.7899999,8.188169479370117,-5.099649429321289,1.0462661981582642,-1.2359619140625,0.48828125,2.349853515625
17.8099999,8.17380428314209,-5.106832027435303,1.0438719987869263,-1.5106201171875,0.9918212890625,1.922607421875
17.8299999,8.154650688171387,-5.116408824920654,1.0342950820922852,-1.373291015625,0.6866455078125,0.48828125
17.8499999,8.147468566894531,-5.123591423034668,1.0103530883789062,-1.2969970703125,-0.5035400390625,-0.5035400390625
17.8699999,8.157045364379883,-5.140350818634033,1.0031704902648926,-1.3427734375,-0.823974609375,-0.030517578125
17.8899999,8.188169479370117,-5.161899089813232,0.9888052940368652,-1.64794921875,0.5950927734375,0.67138671875
17.909999900000003,8.219294548034668,-5.157110691070557,0.9816226959228516,-1.8310546875,2.6092529296875,0.79345703125
17.929999900000002,8.233659744262695,-5.149928092956543,0.9744400978088379,-1.190185546875,2.7008056640625,1.03759765625
17.9499999,8.219294548034668,-5.145139217376709,0.9528923034667969,-0.0457763671875,0.9307861328125,1.46484375
17.9699999,8.202534675598145,-5.1331682205200195,0.9433154463768005,0.9765625,-1.3427734375,2.166748046875
17.9899999,8.176198959350586,-5.116408824920654,0.9457096457481384,1.0986328125,-0.579833984375,1.922607421875
18.0099999,8.176198959350586,-5.102043628692627,0.9648633003234863,0.6561279296875,2.1514892578125,0.823974609375
18.0299999,8.169015884399414,-5.094861030578613,0.9840168952941895,0.213623046875,2.349853515625,0.6866455078125
18.0499999,8.178592681884766,-5.1116204261779785,1.0055646896362305,-0.030517578125,-0.0762939453125,2.044677734375
18.0699999,8.188169479370117,-5.137956619262695,1.015141487121582,-0.244140625,-2.166748046875,3.96728515625
18.089999900000002,8.195352554321289,-5.169081687927246,1.0342950820922852,-0.8697509765625,-1.40380859375,4.8828125
18.109999900000002,8.190564155578613,-5.202600479125977,1.0414776802062988,-1.2664794921875,0.8544921875,4.0740966796875
18.1299999,8.164227485656738,-5.216965675354004,1.0462661981582642,-1.3885498046875,2.593994140625,2.4261474609375
18.1499999,8.118738174438477,-5.224148273468018,1.0438719987869263,-1.1444091796875,1.068115234375,1.9683837890625
18.1699999,8.078036308288574,-5.236119270324707,1.01753568649292,-0.8544921875,-2.3651123046875,2.3193359375
18.1899999,8.056488990783691,-5.264849662780762,0.9864110946655273,-0.457763671875,-2.532958984375,2.288818359375
18.2099999,8.054094314575195,-5.317522048950195,0.9528923034667969,-0.0762939453125,0.2288818359375,1.6632080078125
18.2299999,8.061277389526367,-5.360617637634277,0.9361328482627869,0.30517578125,2.197265625,0.213623046875
18.249999900000002,8.061277389526367,-5.386953830718994,0.9241618514060974,0.9918212890625,2.0599365234375,-1.15966796875
18.269999900000002,8.054094314575195,-5.396530628204346,0.9169792532920837,1.861572265625,-1.2664794921875,-1.129150390625
18.2899999,8.056488990783691,-5.3797712326049805,0.9313444495201111,2.5177001953125,-3.3416748046875,-0.54931640625
18.3099999,8.08043098449707,-5.343858242034912,0.9457096457481384,2.4566650390625,-1.556396484375,-0.9765625
18.3299999,8.10437297821045,-5.336675643920898,0.9696516990661621,1.5106201171875,0.518798828125,-1.52587890625
18.3499999,8.111555099487305,-5.295974254608154,1.0031704902648926,0.244140625,0.42724609375,-1.3580322265625
18.3699999,8.1139497756958,-5.2480902671813965,1.0079588890075684,-0.79345703125,-0.7781982421875,-1.7852783203125
18.3899999,8.099584579467773,-5.240907669067383,0.9840168952941895,-1.03759765625,-0.091552734375,-3.143310546875
18.409999900000003,8.106766700744629,-5.2265424728393555,0.9696516990661621,-0.8697509765625,1.15966796875,-3.72314453125
18.429999900000002,8.133103370666504,-5.202600479125977,0.9433154463768005,-0.9918212890625,0.457763671875,-2.3345947265625
18.4499999,8.159439086914062,-5.2265424728393555,0.9241618514060974,-1.2969970703125,1.40380859375,-1.3275146484375
18.4699999,8.180987358093262,-5.195417881011963,0.9169792532920837,-0.7781982421875,2.7618408203125,-1.861572265625
18.4899999,8.192957878112793,-5.216965675354004,0.9026140570640564,0.5950927734375,0.06103515625,-1.8463134765625
18.5099999,8.200140953063965,-5.173870086669922,0.9145850539207458,1.6937255859375,-2.227783203125,-0.42724609375
18.5299999,8.212111473083496,-5.1810526847839355,0.933738648891449,1.617431640625,-1.434326171875,1.28173828125
18.5499999,8.20732307434082,-5.118803024291992,0.9696516990661621,0.9307861328125,2.25830078125,1.3275146484375
18.5699999,8.178592681884766,-5.12119722366333,0.9888052940368652,0.6866455078125,3.875732421875,0.2899169921875
18.589999900000002,8.145073890686035,-5.114014625549316,1.0055646896362305,0.9765625,1.708984375,0.091552734375
18.609999900000002,8.109161376953125,-5.137956619262695,1.0055646896362305,1.40380859375,-0.823974609375,0.7781982421875
18.6299999,8.111555099487305,-5.166687488555908,1.01753568649292,1.40380859375,-2.2125244140625,2.0599365234375
18.6499999,8.128314971923828,-5.212177276611328,1.0271124839782715,0.7476806640625,-0.91552734375,3.1280517578125
18.6699999,8.145073890686035,-5.231330871582031,1.0462661981582642,0.0762939453125,0.9918212890625,2.74658203125
18.6899999,8.13789176940918,-5.25527286529541,1.0319008827209473,-0.42724609375,1.64794921875,1.373291015625
18.7099999,8.106766700744629,-5.272032260894775,1.0007762908935547,-0.4730224609375,-0.48828125,0.2899169921875
18.7299999,8.08282470703125,-5.252878665924072,0.9792284965515137,-0.30517578125,-3.204345703125,0.1373291015625
18.749999900000002,8.08043098449707,-5.279214859008789,0.9481038451194763,-0.5035400390625,-1.8310546875,0.0762939453125
18.769999900000002,8.094796180725098,-5.25527286529541,0.9576807022094727,-1.0223388671875,1.52587890625,0.030517578125
18.7899999,8.10437297821045,-5.307945251464844,0.9481038451194763,-1.7547607421875,1.8768310546875,-0.091552734375
18.8099999,8.111555099487305,-5.2911858558654785,0.9409212470054626,-1.983642578125,-0.1983642578125,-0.579833984375
18.8299999,8.109161376953125,-5.315127849578857,0.9241618514060974,-1.556396484375,-1.4801025390625,-0.3662109375
18.8499999,8.118738174438477,-5.3127336502075195,0.9074024558067322,-0.9765625,-1.0986328125,0.2593994140625
18.8699999,8.125920295715332,-5.293580055236816,0.9050082564353943,-0.701904296875,1.3427734375,0.0152587890625
18.8899999,8.125920295715332,-5.30076265335083,0.9074024558067322,-0.6256103515625,3.23486328125,-0.6561279296875
18.909999900000003,8.130708694458008,-5.279214859008789,0.9074024558067322,-0.091552734375,2.899169921875,-0.732421875
18.929999900000002,8.106766700744629,-5.329493045806885,0.9145850539207458,0.8392333984375,-0.518798828125,0.030517578125
18.9499999,8.106766700744629,-5.315127849578857,0.9289502501487732,1.52587890625,-1.129150390625,0.152587890625
18.9699999,8.090007781982422,-5.331887245178223,0.9457096457481384,1.3275146484375,1.52587890625,-0.67138671875
18.9899999,8.075642585754395,-5.298368453979492,0.9744400978088379,0.67138671875,1.678466796875,-1.5106201171875
19.0099999,8.056488990783691,-5.243301868438721,0.993593692779541,-0.18310546875,-0.6103515625,-2.0599365234375
19.0299999,8.070854187011719,-5.178658485412598,1.0103530883789062,-0.640869140625,-2.4261474609375,-1.89208984375
19.0499999,8.092401504516602,-5.152322292327881,1.015141487121582,-1.373291015625,-1.2969970703125,-1.495361328125
19.0699999,8.145073890686035,-5.109226226806641,1.0199298858642578,-2.2735595703125,1.1749267578125,-1.373291015625
19.089999900000002,8.17380428314209,-5.137956619262695,0.9840168952941895,-2.3956298828125,1.861572265625,-0.2593994140625
19.109999900000002,8.183381080627441,-5.128379821777344,0.9433154463768005,-1.64794921875,-0.885009765625,1.3427734375
19.1299999,8.166622161865234,-5.171475887298584,0.9026140570640564,-0.823974609375,-3.23486328125,1.6326904296875
19.1499999,8.159439086914062,-5.200206279754639,0.8643068075180054,-0.54931640625,-1.1749267578125,0.48828125
19.1699999,8.152256965637207,-5.228936672210693,0.8643068075180054,-0.396728515625,1.28173828125,0.274658203125
19.1899999,8.166622161865234,-5.276820659637451,0.871489405632019,-0.1678466796875,-0.152587890625,2.288818359375
19.2099999,8.154650688171387,-5.319916248321533,0.8643068075180054,0.06103515625,-1.64794921875,3.60107421875
19.2299999,8.142680168151855,-5.307945251464844,0.8834604024887085,0.213623046875,-0.1678466796875,2.1820068359375
19.249999900000002,8.106766700744629,-5.305551052093506,0.8619126081466675,0.2288818359375,1.190185546875,0.396728515625
19.269999900000002,8.085219383239746,-5.2696380615234375,0.8786720037460327,0.18310546875,1.64794921875,-0.030517578125
19.2899999,8.070854187011719,-5.250484466552734,0.8858546018600464,0.0152587890625,0.5035400390625,0.30517578125
19.3099999,8.063671112060547,-5.281609058380127,0.8978256583213806,-0.3509521484375,-0.3662109375,0.9613037109375
19.3299999,8.078036308288574,-5.30076265335083,0.9241618514060974,-0.823974609375,-0.18310546875,1.0986328125
19.3499999,8.08282470703125,-5.331887245178223,0.9361328482627869,-1.617431640625,0.457763671875,0.030517578125
19.3699999,8.085219383239746,-5.329493045806885,0.9361328482627869,-1.861572265625,0.8544921875,-0.67138671875
19.3899999,8.08043098449707,-5.310339450836182,0.9265560507774353,-1.617431640625,0.1983642578125,-0.79345703125
19.409999900000003,8.075642585754395,-5.293580055236816,0.8978256583213806,-1.6021728515625,-1.2969970703125,-1.03759765625
19.429999900000002,8.078036308288574,-5.276820659637451,0.8762778043746948,-1.617431640625,0.091552734375,-1.3275146484375
19.4499999,8.101978302001953,-5.264849662780762,0.8571242094039917,-1.5411376953125,0.5950927734375,-0.3814697265625
19.4699999,8.123526573181152,-5.284003257751465,0.8379706144332886,-1.190185546875,-0.2899169921875,0.8697509765625
19.4899999,8.142680168151855,-5.331887245178223,0.8379706144332886,-0.5645751953125,-1.251220703125,1.1138916015625
19.5099999,8.145073890686035,-5.351040840148926,0.8451532125473022,-0.6103515625,-0.762939453125,0.518798828125
19.5299999,8.13789176940918,-5.3582234382629395,0.8571242094039917,-1.0528564453125,0.2288818359375,0.30517578125
19.5499999,8.128314971923828,-5.322310447692871,0.8738836050033569,-1.068115234375,0.9613037109375,0.457763671875
19.5699999,8.109161376953125,-5.315127849578857,0.8786720037460327,-0.6256103515625,1.0833740234375,0.2593994140625
19.589999900000002,8.087613105773926,-5.2672438621521,0.8595184087753296,0.1983642578125,1.4495849609375,-0.1220703125
19.609999900000002,8.08043098449707,-5.322310447692871,0.828393816947937,1.0528564453125,0.42724609375,-0.3662109375
19.6299999,8.063671112060547,-5.315127849578857,0.8259995579719543,1.6021728515625,-0.274658203125,-0.579833984375
19.6499999,8.070854187011719,-5.341464042663574,0.8044517636299133,1.739501953125,-1.1444091796875,-0.518798828125
19.6699999,8.078036308288574,-5.319916248321533,0.8451532125473022,1.4801025390625,-1.678466796875,0
19.6899999,8.090007781982422,-5.324704647064209,0.8619126081466675,0.79345703125,-1.3275146484375,-0.091552734375
19.7099999,8.101978302001953,-5.274426460266113,0.8906430602073669,0.0457763671875,-1.3275146484375,-0.274658203125
19.7299999,8.111555099487305,-5.298368453979492,0.8954314589500427,-0.6561279296875,-1.2664794921875,0.48828125
19.749999900000002,8.121131896972656,-5.260061264038086,0.8786720037460327,-1.312255859375,-1.2969970703125,1.46484375
19.769999900000002,8.106766700744629,-5.276820659637451,0.8547300100326538,-1.46484375,-0.2899169921875,0.6561279296875
19.7899999,8.101978302001953,-5.303156852722168,0.828393816947937,-1.312255859375,-0.30517578125,-1.1444091796875
19.8099999,8.097189903259277,-5.295974254608154,0.8020575642585754,-1.190185546875,-2.2125244140625,-1.7547607421875
19.8299999,8.101978302001953,-5.324704647064209,0.8044517636299133,-1.556396484375,-2.38037109375,-0.8544921875
19.8499999,8.1139497756958,-5.322310447692871,0.7924807667732239,-1.556396484375,-0.9765625,0.2593994140625
19.8699999,8.11634349822998,-5.310339450836182,0.7876923680305481,-1.1444091796875,0.9918212890625,0.091552734375
19.8899999,8.1139497756958,-5.331887245178223,0.7757213711738586,-0.213623046875,2.99072265625,-1.739501953125
19.909999900000003,8.111555099487305,-5.367800235748291,0.7445967197418213,1.312255859375,-1.251220703125,-0.1220703125
19.929999900000002,8.109161376953125,-5.355829238891602,0.7541735172271729,1.03759765625,-2.4261474609375,1.5869140625
19.9499999,8.123526573181152,-5.3127336502075195,0.7781155705451965,0.4425048828125,0.9918212890625,0.5645751953125
19.9699999,8.111555099487305,-5.295974254608154,0.7852981686592102,-0.0457763671875,2.6702880859375,-1.2664794921875
19.9899999,8.109161376953125,-5.295974254608154,0.8068459630012512,0.1220703125,1.4801025390625,-1.678466796875
20.0099999,8.094796180725098,-5.293580055236816,0.7948749661445618,0.1678466796875,-1.678466796875,-0.3509521484375
20.0299999,8.075642585754395,-5.293580055236816,0.8092401623725891,-0.091552734375,-2.716064453125,0.762939453125
20.0499999,8.08043098449707,-5.284003257751465,0.828393816947937,-0.9918212890625,-1.617431640625,0.4425048828125
20.0699999,8.073247909545898,-5.238513469696045,0.8475474119186401,-1.800537109375,2.227783203125,-1.129150390625
20.089999900000002,8.092401504516602,-5.303156852722168,0.8092401623725891,-0.30517578125,2.3193359375,-1.2664794921875
20.109999900000002,8.099584579467773,-5.295974254608154,0.7805097699165344,4.7454833984375,-3.35693359375,1.190185546875
20.1299999,8.13789176940918,-5.360617637634277,0.7254431247711182,7.1258544921875,-6.7901611328125,3.35693359375
20.1499999,8.135497093200684,-5.343858242034912,0.727837324142456,6.28662109375,-1.861572265625,3.570556640625
20.1699999,8.152256965637207,-5.34625244140625,0.7613561153411865,3.7841796875,3.6773681640625,1.8768310546875
