# Time (seconds),Accel_X,Accel_Y,Accel_Z,Gyro_X,Gyro_Y,Gyro_Z
0.0099999,-9.818621635437012,-0.31124621629714966,0.9624691009521484,-3.2501220703125,-0.91552734375,1.8157958984375
0.029999900000000003,-9.84495735168457,-0.2944868206977844,0.9576807022094727,-1.556396484375,-1.9073486328125,0.2288818359375
0.0499999,-9.830592155456543,-0.27054479718208313,1.0055646896362305,-3.47900390625,2.9754638671875,7.9193115234375
0.0699999,-9.725247383117676,-0.26575639843940735,1.0893617868423462,-5.0506591796875,6.683349609375,13.214111328125
0.08999990000000001,-9.586383819580078,-0.2298433631658554,1.1827356815338135,-5.9967041015625,2.777099609375,16.6473388671875
0.10999990000000001,-9.457097053527832,-0.17477671802043915,1.259350061416626,-8.8348388671875,1.2664794921875,20.3094482421875
0.1299999,-9.418789863586426,-0.10534487664699554,1.3048399686813354,-11.688232421875,11.322021484375,19.6380615234375
0.14999990000000002,-9.50737476348877,-0.038307227194309235,1.3120225667953491,-11.627197265625,22.52197265625,12.4969482421875
0.1699999,-9.835380554199219,0.0071826050989329815,1.3024457693099976,-11.1846923828125,15.533447265625,7.5836181640625
0.1899999,-10.304644584655762,0.016759412363171577,1.2521674633026123,-13.97705078125,-7.781982421875,9.0179443359375
0.20999990000000002,-10.800244331359863,0.06464344263076782,1.1779472827911377,-13.702392578125,-1.7547607421875,3.6163330078125
0.2299999,-10.984597206115723,0.09816227108240128,1.1276689767837524,-7.720947265625,-6.317138671875,-2.105712890625
0.2499999,-10.757147789001465,0.18914192914962769,1.1276689767837524,-3.2806396484375,-14.0838623046875,-2.838134765625
0.2699999,-10.287884712219238,0.28969839215278625,1.2114660739898682,-3.387451171875,-10.101318359375,5.0506591796875
0.28999990000000003,-9.734824180603027,0.33039984107017517,1.3886369466781616,-8.026123046875,-5.2947998046875,10.1776123046875
0.3099999,-9.330204010009766,0.30885201692581177,1.623268723487854,-16.6778564453125,8.9874267578125,7.904052734375
0.3299999,-9.299078941345215,0.2322375625371933,1.8052281141281128,-26.3519287109375,16.78466796875,9.94873046875
0.34999990000000003,-9.370905876159668,0.06703764945268631,1.8531121015548706,-33.416748046875,18.5546875,14.0533447265625
0.3699999,-9.59835433959961,-0.13168109953403473,1.742978811264038,-35.58349609375,18.035888671875,18.0816650390625
0.3899999,-9.876082420349121,-0.27054479718208313,1.4772224426269531,-32.989501953125,17.0745849609375,18.1732177734375
0.40999990000000003,-9.998186111450195,-0.31124621629714966,1.1276689767837524,-24.5819091796875,12.51220703125,14.8468017578125
0.4299999,-10.165780067443848,-0.23702596127986908,0.7565677165985107,-12.8173828125,8.1787109375,18.951416015625
0.4499999,-10.158597946166992,0.014365210197865963,0.43335050344467163,-3.6468505859375,4.08935546875,16.265869140625
0.4699999,-10.192116737365723,0.35913026332855225,0.23702596127986908,4.150390625,0.2593994140625,12.14599609375
0.4899999,-10.20887565612793,0.7206547260284424,0.17956513166427612,10.4217529296875,-2.5787353515625,6.5765380859375
0.5099999,-10.199298858642578,1.0558429956436157,0.26336219906806946,11.29150390625,-3.9825439453125,1.7242431640625
0.5299999,-10.180145263671875,1.280897855758667,0.4692635238170624,8.087158203125,-4.8828125,-0.9765625
0.5499999,-10.098742485046387,1.3407529592514038,0.7182605266571045,4.1046142578125,-4.852294921875,-3.2501220703125
0.5699999,-9.976638793945312,1.2114660739898682,0.8667010068893433,2.1820068359375,-3.8299560546875,-5.7220458984375
0.5899998999999999,-9.895236015319824,0.9481038451194763,0.9169792532920837,7.110595703125,-5.5999755859375,-7.2174072265625
0.6099998999999999,-9.911994934082031,0.6057330369949341,0.8810662031173706,15.045166015625,-10.650634765625,-6.4239501953125
0.6299999,-10.053253173828125,0.24181437492370605,0.7996633648872375,17.4560546875,-13.8702392578125,-3.6773681640625
0.6499999,-10.268731117248535,-0.038307227194309235,0.7781155705451965,16.0675048828125,-14.6942138671875,0.42724609375
0.6699999,-10.429142951965332,-0.19871874153614044,0.9193734526634216,16.0980224609375,-15.31982421875,4.2724609375
0.6899999,-10.469843864440918,-0.26575639843940735,1.1994950771331787,15.167236328125,-13.6871337890625,6.89697265625
0.7099999,-10.273519515991211,-0.26096799969673157,1.5897499322891235,12.237548828125,-14.251708984375,3.6468505859375
0.7299998999999999,-9.923966407775879,-0.24660277366638184,2.056619167327881,11.2457275390625,-17.9595947265625,-0.6866455078125
0.7499998999999999,-9.526528358459473,-0.19393034279346466,2.612074136734009,8.1329345703125,-18.341064453125,1.46484375
0.7699999,-9.205705642700195,-0.11971008777618408,3.1220390796661377,-6.6680908203125,-12.176513671875,3.021240234375
0.7899999,-9.07641887664795,0.023942016065120697,3.507505416870117,-26.885986328125,-2.349853515625,3.021240234375
0.8099999,-9.26795482635498,0.44771572947502136,3.406949043273926,-40.7257080078125,9.8114013671875,3.1890869140625
0.8299999,-9.349357604980469,0.6727706789970398,2.832340717315674,-37.2467041015625,25.2838134765625,8.880615234375
0.8499998999999999,-9.519346237182617,0.8978256583213806,2.0039467811584473,-30.792236328125,42.938232421875,19.2718505859375
0.8699998999999999,-9.627084732055664,1.1803414821624756,1.0821791887283325,-22.64404296875,42.0989990234375,19.8211669921875
0.8899999,-9.825803756713867,1.4484920501708984,0.17477671802043915,-15.0604248046875,28.594970703125,10.3912353515625
0.9099999,-9.998186111450195,1.6400281190872192,-0.5913678407669067,-7.6446533203125,17.6849365234375,1.40380859375
0.9299999,-10.141838073730469,1.6855180263519287,-1.01753568649292,-0.2593994140625,7.7972412109375,-4.0740966796875
0.9499999,-10.216058731079102,1.5418659448623657,-1.0606313943862915,4.791259765625,-0.0457763671875,-6.7291259765625
0.9699998999999999,-10.211270332336426,1.2090718746185303,-0.8690952062606812,7.2174072265625,-4.4708251953125,-7.7362060546875
0.9899998999999999,-10.177751541137695,0.7924807667732239,-0.5363011956214905,13.1683349609375,-9.2010498046875,-7.781982421875
1.0099999,-10.103530883789062,0.3902548849582672,-0.12928688526153564,22.0794677734375,-15.6097412109375,-5.8441162109375
1.0299999,-10.022128105163574,0.0933738648891449,0.22266076505184174,23.92578125,-18.6614990234375,-2.166748046875
1.0499999,-9.998186111450195,-0.08858546614646912,0.5267243981361389,19.8516845703125,-18.9056396484375,0.3662109375
1.0699999,-10.010157585144043,-0.1364694982767105,0.8667010068893433,17.0440673828125,-20.1263427734375,3.0059814453125
1.0899999,-10.002974510192871,-0.06464344263076782,1.1755530834197998,15.289306640625,-20.3399658203125,6.6680908203125
1.1099999,-9.95748519897461,0.08379705995321274,1.400607943534851,15.2740478515625,-17.8070068359375,8.1939697265625
1.1299999,-9.86650562286377,0.2968810200691223,1.5849615335464478,18.768310546875,-16.2506103515625,6.103515625
1.1499999,-9.758766174316406,0.6177040338516235,1.8579005002975464,17.822265625,-15.2587890625,4.7760009765625
1.1699998999999999,-9.646238327026367,1.0247182846069336,2.1930887699127197,1.1749267578125,-8.2244873046875,4.7607421875
1.1899998999999999,-9.581595420837402,1.381454348564148,2.4827871322631836,-21.4080810546875,3.662109375,1.77001953125
1.2099999,-9.560047149658203,1.6328455209732056,2.7293899059295654,-31.0516357421875,11.138916015625,-4.1046142578125
1.2299999,-9.59596061706543,1.6711528301239014,2.806004285812378,-31.341552734375,13.580322265625,-6.927490234375
1.2499999,-9.677363395690918,1.4700398445129395,2.583343744277954,-29.9072265625,16.9830322265625,-6.4239501953125
1.2699999,-9.823410034179688,1.094150185585022,2.140416383743286,-18.2952880859375,18.280029296875,-6.5155029296875
1.2899999,-9.86889934539795,0.689530074596405,1.5873557329177856,1.3427734375,12.6953125,-7.6446533203125
1.3099999,-9.959878921508789,0.3280056416988373,0.8834604024887085,16.2200927734375,5.7373046875,-6.0577392578125
1.3299999,-9.981427192687988,0.16759411990642548,0.3974374830722809,20.2178955078125,-0.7171630859375,-4.2572021484375
1.3499999,-10.072406768798828,0.06703764945268631,0.06703764945268631,16.4337158203125,-8.1329345703125,-3.662109375
1.3699999,-10.153809547424316,0.15562310814857483,0.040701430290937424,12.3138427734375,-14.34326171875,-3.5858154296875
1.3899999,-10.101137161254883,0.2753331959247589,0.27054479718208313,9.429931640625,-17.1661376953125,-3.2501220703125
1.4099999,-10.0580415725708,0.4429273009300232,0.5889736413955688,4.7454833984375,-17.1051025390625,-4.9591064453125
1.4299998999999999,-9.907206535339355,0.5554547905921936,0.9193734526634216,1.6021728515625,-17.1356201171875,-9.0484619140625
1.4499999,-9.832986831665039,0.6775590777397156,1.314416766166687,4.2572021484375,-17.1051025390625,-10.3759765625
1.4699999,-9.775525093078613,0.727837324142456,1.7070658206939697,2.227783203125,-13.61083984375,-8.60595703125
1.4899999,-9.66539192199707,0.7206547260284424,2.1092917919158936,-8.056640625,-3.9825439453125,-8.30078125
1.5099999,-9.576807022094727,0.6392518281936646,2.343923568725586,-11.7340087890625,1.6937255859375,-8.6517333984375
1.5299999,-9.603142738342285,0.5339069962501526,2.3295583724975586,-2.410888671875,-1.2359619140625,-5.523681640625
1.5499999,-9.730035781860352,0.33758243918418884,1.987187385559082,9.765625,-10.955810546875,-4.45556640625
1.5699999,-9.945513725280762,0.1149216815829277,1.5083470344543457,18.6309814453125,-18.8446044921875,-5.7220458984375
1.5899999,-10.098742485046387,-0.028730420395731926,1.216254472732544,24.9786376953125,-21.728515625,-5.6915283203125
1.6099999,-10.04846477508545,-0.11971008777618408,1.2066776752471924,25.543212890625,-23.0255126953125,-5.55419921875
1.6299999,-9.86889934539795,-0.031124621629714966,1.4437036514282227,17.7459716796875,-18.280029296875,-6.40869140625
1.6499999,-9.751583099365234,0.08619125932455063,1.8124107122421265,8.11767578125,-13.1072998046875,-5.3863525390625
1.6699999,-9.634267807006836,0.2849099934101105,2.255337953567505,1.7852783203125,-10.528564453125,-3.3721923828125
1.6899998999999999,-9.588777542114258,0.4189853072166443,2.607285737991333,-4.6234130859375,-6.1187744140625,-0.9918212890625
1.7099999,-9.57201862335205,0.5099649429321289,2.8443117141723633,-10.101318359375,0.8544921875,2.0751953125
1.7299999,-9.610325813293457,0.45250412821769714,2.8778305053710938,-9.3231201171875,0.2288818359375,1.64794921875
1.7499999,-9.636661529541016,0.3974374830722809,2.7461493015289307,-2.74658203125,-5.340576171875,-0.7476806640625
1.7699999,-9.691728591918945,0.2944868206977844,2.6408045291900635,2.3345947265625,-3.7994384765625,-1.2054443359375
1.7899999,-9.703699111938477,0.23942017555236816,2.5713725090026855,-0.0457763671875,1.52587890625,-3.265380859375
1.8099999,-9.653421401977539,0.2298433631658554,2.564189910888672,-5.43212890625,9.124755859375,-5.5694580078125
1.8299999,-9.59835433959961,0.22266076505184174,2.561795711517334,-6.65283203125,12.725830078125,-3.173828125
1.8499999,-9.59835433959961,0.23942017555236816,2.518700122833252,-7.2021484375,12.4359130859375,-1.9683837890625
1.8699999,-9.600749015808105,0.2513911724090576,2.3535003662109375,-12.51220703125,15.7928466796875,-0.8697509765625
1.8899999,-9.696516990661621,0.31603461503982544,2.118868589401245,-15.5029296875,17.02880859375,3.265380859375
1.9099999,-9.813833236694336,0.3423708379268646,1.7621324062347412,-8.85009765625,6.988525390625,1.8768310546875
1.9299998999999999,-9.96945571899414,0.3256114423274994,1.316810965538025,2.9296875,-2.8839111328125,-2.655029296875
1.9499999,-10.050858497619629,0.20350714027881622,0.9672574996948242,12.664794921875,-9.2010498046875,-4.5318603515625
1.9699999,-10.074800491333008,0.05746084079146385,0.7733271718025208,18.4478759765625,-14.5721435546875,-6.011962890625
1.9899999,-10.002974510192871,-0.08140286058187485,0.9289502501487732,22.2015380859375,-15.4266357421875,-5.523681640625
2.0099999,-9.888052940368652,-0.12449848651885986,1.3503297567367554,19.5159912109375,-12.6495361328125,-2.4871826171875
2.0299999,-9.737217903137207,-0.05027823522686958,1.8746598958969116,8.4686279296875,-5.950927734375,0.1373291015625
2.0499999,-9.653421401977539,0.10295066982507706,2.449268341064453,-0.79345703125,1.251220703125,2.9449462890625
2.0699999,-9.600749015808105,0.26815059781074524,2.8179752826690674,-6.3323974609375,2.9296875,6.4239501953125
2.0899999,-9.600749015808105,0.395043283700943,2.920926094055176,-11.65771484375,0.3509521484375,5.5694580078125
2.1099999,-9.66539192199707,0.40462008118629456,2.75812029838562,-12.237548828125,-0.1373291015625,2.6397705078125
2.1299999,-9.739612579345703,0.272938996553421,2.4875755310058594,-5.1116943359375,-1.8768310546875,0.213623046875
2.1499999,-9.713275909423828,0.17717093229293823,2.1811177730560303,1.251220703125,-2.3956298828125,-0.6866455078125
2.1699999,-9.758766174316406,0.038307227194309235,1.9345149993896484,2.8839111328125,0.6561279296875,1.190185546875
2.1899999,-9.739612579345703,0.06464344263076782,1.8171991109848022,4.302978515625,0.274658203125,0.54931640625
2.2099999,-9.696516990661621,0.1388636976480484,1.8076223134994507,5.2490234375,0.6866455078125,0.396728515625
2.2299999,-9.737217903137207,0.3926490843296051,1.8938134908676147,1.922607421875,2.8533935546875,3.6163330078125
2.2499999,-9.744400978088379,0.5889736413955688,2.0614075660705566,-4.2572021484375,0.4119873046875,1.64794921875
2.2699999,-9.75637149810791,0.8188169598579407,2.1978771686553955,-8.2550048828125,-0.9613037109375,-5.1727294921875
2.2899999,-9.775525093078613,0.8092401623725891,2.2697031497955322,-5.340576171875,0.1983642578125,-9.2926025390625
2.3099999,-9.749189376831055,0.6775590777397156,2.3271639347076416,-0.732421875,-0.6561279296875,-10.68115234375
2.3299999,-9.730035781860352,0.3232172429561615,2.2816741466522217,-0.762939453125,2.9754638671875,-8.6517333984375
2.3499999,-9.694122314453125,-0.033518824726343155,2.250549554824829,-1.373291015625,5.8441162109375,-3.0975341796875
2.3699999,-9.670180320739746,-0.3208230137825012,2.1308395862579346,0.6256103515625,4.913330078125,0.3662109375
2.3899999,-9.703699111938477,-0.4118026793003082,1.9488801956176758,3.9825439453125,4.0740966796875,3.84521484375
2.4099999,-9.81143856048584,-0.36152446269989014,1.6974890232086182,7.2174072265625,-0.8697509765625,7.110595703125
2.4299999,-9.876082420349121,-0.15562310814857483,1.5322890281677246,10.1470947265625,-10.3759765625,4.9896240234375
2.4499999,-9.950302124023438,0.10055647045373917,1.4987702369689941,12.359619140625,-12.725830078125,1.4801025390625
2.4699999,-9.897629737854004,0.3423708379268646,1.6950948238372803,8.697509765625,-11.5814208984375,-2.532958984375
2.4899999,-9.770736694335938,0.4908113479614258,2.0159177780151367,0.7171630859375,-5.67626953125,-5.828857421875
2.5099999,-9.684545516967773,0.4836287498474121,2.343923568725586,-4.69970703125,0.42724609375,-2.8076171875
2.5299999,-9.607931137084961,0.3711012601852417,2.6360161304473877,-7.0037841796875,2.8228759765625,1.03759765625
2.5499999,-9.512163162231445,0.16519992053508759,2.6839001178741455,-7.8887939453125,6.04248046875,3.7689208984375
2.5699999,-9.605537414550781,0.06703764945268631,2.537853717803955,-4.2266845703125,6.8359375,7.7972412109375
2.5899999,-9.696516990661621,0.011971008032560349,2.2912509441375732,2.5787353515625,-2.288818359375,7.9498291015625
2.6099999,-9.816226959228516,0.06464344263076782,1.9847931861877441,7.7056884765625,-8.1939697265625,4.82177734375
2.6299999,-9.907206535339355,0.17717093229293823,1.7884687185287476,11.1236572265625,-8.8653564453125,0.91552734375
2.6499999,-9.81143856048584,0.29209262132644653,1.7764976024627686,12.7716064453125,-9.0179443359375,-3.875732421875
2.6699999,-9.761159896850586,0.35913026332855225,1.9608511924743652,9.2620849609375,-3.72314453125,-3.2958984375
2.6899999,-9.646238327026367,0.44532153010368347,2.2601263523101807,0.274658203125,0.8087158203125,-0.335693359375
2.7099999,-9.557653427124023,0.4189853072166443,2.559401512145996,-7.26318359375,4.3487548828125,1.52587890625
2.7299999,-9.591172218322754,0.42856210470199585,2.734178304672241,-9.5672607421875,9.0484619140625,4.8065185546875
2.7499999,-9.619902610778809,0.35913026332855225,2.717418909072876,-8.8348388671875,6.683349609375,8.3160400390625
2.7699999,-9.708487510681152,0.35434186458587646,2.516305923461914,-5.9356689453125,-0.213623046875,6.3018798828125
2.7899999,-9.840168952941895,0.2801215946674347,2.2625205516815186,0.396728515625,-2.4871826171875,2.5482177734375
2.8099999,-9.828198432922363,0.23942017555236816,2.073378562927246,5.126953125,-4.0283203125,-0.3204345703125
2.8299999,-9.765948295593262,0.20350714027881622,1.9800047874450684,4.6844482421875,-0.18310546875,-0.396728515625
2.8499999,-9.68933391571045,0.22505496442317963,2.0422539710998535,1.6937255859375,2.9296875,2.9754638671875
2.8699999,-9.605537414550781,0.2346317619085312,2.190694570541382,-2.5787353515625,3.0670166015625,3.997802734375
2.8899999,-9.579200744628906,0.33039984107017517,2.3056161403656006,-6.927490234375,6.988525390625,5.0201416015625
2.9099999,-9.641449928283691,0.4213795065879822,2.298433542251587,-7.843017578125,8.056640625,9.2010498046875
2.9299999,-9.68933391571045,0.49320554733276367,2.169146776199341,-3.2501220703125,-1.251220703125,7.75146484375
2.9499999,-9.816226959228516,0.586579442024231,1.9321208000183105,4.08935546875,-6.9580078125,2.2125244140625
2.9699999,-9.864110946655273,0.5506663918495178,1.7717092037200928,8.7127685546875,-8.3465576171875,-1.708984375
2.9899999,-9.799467086791992,0.5650315880775452,1.7381904125213623,9.82666015625,-8.148193359375,-4.486083984375
3.0099999,-9.81143856048584,0.45010992884635925,1.8339585065841675,10.9710693359375,-5.218505859375,-2.471923828125
3.0299999,-9.701305389404297,0.4405331015586853,2.054224967956543,8.4075927734375,-4.791259765625,0.030517578125
3.0499999,-9.627084732055664,0.44771572947502136,2.298433542251587,0.885009765625,-1.983642578125,0.54931640625
3.0699999,-9.603142738342285,0.5434837937355042,2.5067291259765625,-6.4544677734375,4.4708251953125,3.0517578125
3.0899999,-9.591172218322754,0.6392518281936646,2.63362193107605,-9.307861328125,2.86865234375,4.3182373046875
3.1099999,-9.603142738342285,0.7134721279144287,2.6384103298187256,-7.4462890625,-2.5177001953125,0.701904296875
3.1299999,-9.703699111938477,0.7086837291717529,2.5737667083740234,-2.7618408203125,-1.89208984375,-3.47900390625
3.1499999,-9.701305389404297,0.6153098344802856,2.4684219360351562,1.40380859375,-2.3651123046875,-6.2713623046875
3.1699999,-9.667786598205566,0.507570743560791,2.43011474609375,2.1820068359375,0.9613037109375,-7.537841796875
3.1899999,-9.651026725769043,0.38307225704193115,2.4229321479797363,0.30517578125,5.584716796875,-3.5552978515625
3.2099999,-9.617507934570312,0.3519476354122162,2.4684219360351562,-3.7841796875,7.080078125,-2.5787353515625
3.2299999,-9.583989143371582,0.3687070608139038,2.4827871322631836,-9.1094970703125,10.3607177734375,-1.7242431640625
3.2499999,-9.672574996948242,0.49799394607543945,2.425326347351074,-12.5885009765625,13.48876953125,2.1514892578125
3.2699999,-9.713275909423828,0.608127236366272,2.2026655673980713,-10.3912353515625,5.5999755859375,0.3814697265625
3.2899999,-9.806650161743164,0.6967126727104187,1.9728221893310547,-3.997802734375,-1.4801025390625,-5.4779052734375
3.3099999,-9.8784761428833,0.689530074596405,1.7118542194366455,2.5787353515625,-4.7607421875,-10.6201171875
3.3299999000000002,-9.825803756713867,0.5746083855628967,1.6065093278884888,5.218505859375,-6.988525390625,-13.1072998046875
3.3499999,-9.837775230407715,0.36152446269989014,1.6112977266311646,5.859375,-4.4097900390625,-11.0321044921875
3.3699999,-9.782708168029785,0.08140286058187485,1.7717092037200928,6.3323974609375,-5.0048828125,-6.0577392578125
3.3899999,-9.6989107131958,-0.13168109953403473,1.9967641830444336,3.5400390625,-5.1116943359375,-2.1209716796875
3.4099999,-9.727641105651855,-0.23942017555236816,2.2002713680267334,-0.5645751953125,-1.0223388671875,1.0986328125
3.4299999,-9.6989107131958,-0.1843535304069519,2.3319525718688965,-2.2735595703125,-1.6326904296875,4.94384765625
3.4499999,-9.701305389404297,-0.028730420395731926,2.4013843536376953,-1.8463134765625,-8.0718994140625,5.035400390625
3.4699999,-9.744400978088379,0.14604631066322327,2.382230758666992,-0.457763671875,-8.5906982421875,1.739501953125
3.4899999,-9.749189376831055,0.24899697303771973,2.3750481605529785,1.9683837890625,-7.8887939453125,-1.4190673828125
3.5099999,-9.641449928283691,0.27054479718208313,2.389413356781006,5.0201416015625,-7.476806640625,-4.45556640625
3.5299999,-9.651026725769043,0.28969839215278625,2.4875755310058594,5.1727294921875,-2.2735595703125,-0.9918212890625
3.5499999,-9.57201862335205,0.2801215946674347,2.6360161304473877,-0.213623046875,1.2664794921875,2.01416015625
3.5699999,-9.481039047241211,0.3447650372982025,2.873042106628418,-7.7972412109375,5.035400390625,1.1749267578125
3.5899999,-9.516951560974121,0.42616790533065796,2.9712042808532715,-13.8397216796875,11.8255615234375,2.5177001953125
3.6099999,-9.603142738342285,0.5482721924781799,2.868253707885742,-15.777587890625,10.3759765625,4.791259765625
3.6299999,-9.677363395690918,0.5267243981361389,2.5737667083740234,-9.552001953125,1.8310546875,1.8768310546875
3.6499999,-9.854534149169922,0.4620809257030487,2.097320795059204,4.4708251953125,-3.3416748046875,-3.1890869140625
3.6699999,-9.892841339111328,0.3256114423274994,1.7717092037200928,17.0745849609375,-8.4991455078125,-6.103515625
3.6899999,-9.828198432922363,0.15562310814857483,1.6280571222305298,20.8892822265625,-8.636474609375,-7.171630859375
3.7099999,-9.797073364257812,0.08379705995321274,1.7597382068634033,18.1732177734375,-4.5928955078125,-3.23486328125
3.7299999,-9.694122314453125,0.10295066982507706,2.1284453868865967,9.5672607421875,-2.227783203125,-1.922607421875
3.7499999,-9.536105155944824,0.22026655077934265,2.5689783096313477,-4.2877197265625,3.936767578125,-0.79345703125
3.7699999,-9.464279174804688,0.37828385829925537,2.9879636764526367,-17.333984375,12.2222900390625,3.662109375
3.7899999,-9.478644371032715,0.5123591423034668,3.093308687210083,-23.2696533203125,10.55908203125,5.0811767578125
3.8099999,-9.524134635925293,0.5386953949928284,2.959233283996582,-18.98193359375,3.7841796875,2.0599365234375
3.8299999000000002,-9.684545516967773,0.3902548849582672,2.5450363159179688,-7.843017578125,0.1220703125,-0.701904296875
3.8499999,-9.780313491821289,0.19871874153614044,2.1116859912872314,4.4403076171875,-5.0048828125,-2.62451171875
3.8699999,-9.816226959228516,0.011971008032560349,1.8124107122421265,11.9781494140625,-5.096435546875,-3.570556640625
3.8899999,-9.816226959228516,-0.0933738648891449,1.7094600200653076,13.2598876953125,-3.997802734375,0.1220703125
3.9099999,-9.758766174316406,0.014365210197865963,1.946485996246338,8.4075927734375,-4.180908203125,0.3509521484375
3.9299999,-9.667786598205566,0.18914192914962769,2.2146365642547607,-2.227783203125,0.6866455078125,-0.4119873046875
3.9499999,-9.586383819580078,0.42856210470199585,2.5258827209472656,-11.2762451171875,6.7291259765625,1.708984375
3.9699999,-9.603142738342285,0.586579442024231,2.6623523235321045,-11.65771484375,2.4261474609375,1.922607421875
3.9899999,-9.639056205749512,0.6057330369949341,2.5737667083740234,-5.126953125,-2.9754638671875,-1.800537109375
4.0099999,-9.706093788146973,0.4596867263317108,2.425326347351074,3.3111572265625,-4.4708251953125,-4.5013427734375
4.029999900000001,-9.706093788146973,0.272938996553421,2.252943754196167,10.711669921875,-6.3018798828125,-6.40869140625
4.0499999,-9.703699111938477,0.028730420395731926,2.1978771686553955,14.7247314453125,-3.570556640625,-5.2490234375
4.069999900000001,-9.655815124511719,-0.06464344263076782,2.2673089504241943,12.8631591796875,-2.1820068359375,-0.6256103515625
4.0899999000000005,-9.624691009521484,-0.035913024097681046,2.403778553009033,4.638671875,-0.7171630859375,0.274658203125
4.1099999,-9.579200744628906,0.13168109953403473,2.63362193107605,-6.6070556640625,5.2337646484375,-0.152587890625
4.1299999000000005,-9.583989143371582,0.3495534360408783,2.8395233154296875,-16.1590576171875,10.1776123046875,3.814697265625
4.1499999,-9.581595420837402,0.49799394607543945,2.8610711097717285,-20.1263427734375,6.2103271484375,4.5623779296875
4.1699999000000005,-9.66539192199707,0.4692635238170624,2.7485435009002686,-14.923095703125,2.7618408203125,0.457763671875
4.1899999,-9.725247383117676,0.29209262132644653,2.3989901542663574,-3.0670166015625,-0.6866455078125,-2.1514892578125
4.209999900000001,-9.715670585632324,0.035913024097681046,2.0877439975738525,5.6915283203125,-3.9825439453125,-3.3111572265625
4.2299999,-9.775525093078613,-0.16998831927776337,1.7621324062347412,10.6964111328125,-2.9754638671875,-0.9613037109375
4.249999900000001,-9.749189376831055,-0.22026655077934265,1.7860745191574097,13.85498046875,-5.7373046875,2.1209716796875
4.2699999,-9.708487510681152,-0.07900865375995636,2.0015525817871094,7.38525390625,-4.6844482421875,2.38037109375
4.289999900000001,-9.615114212036133,0.19393034279346466,2.4827871322631836,-8.9569091796875,5.3253173828125,2.7923583984375
4.3099999,-9.5624418258667,0.5003881454467773,2.806004285812378,-23.681640625,12.5274658203125,5.37109375
4.329999900000001,-9.528923034667969,0.6272808313369751,3.0310592651367188,-25.8636474609375,7.8125,4.669189453125
4.3499999,-9.622296333312988,0.6536170840263367,2.7940332889556885,-15.5029296875,2.288818359375,0.335693359375
4.369999900000001,-9.744400978088379,0.4165911078453064,2.4420857429504395,-1.3427734375,-2.044677734375,-2.3040771484375
4.3899999,-9.739612579345703,0.15801730751991272,2.0470423698425293,11.1083984375,-6.4544677734375,-4.0130615234375
4.409999900000001,-9.80904483795166,-0.08379705995321274,1.824381709098816,18.8446044921875,-5.8746337890625,-0.8087158203125
4.4299999,-9.725247383117676,-0.16998831927776337,1.8507179021835327,17.7001953125,-5.767822265625,2.44140625
4.449999900000001,-9.600749015808105,0.16519992053508759,2.5067291259765625,-7.415771484375,4.5318603515625,3.0975341796875
4.4699999,-9.560047149658203,0.47884035110473633,2.8371291160583496,-18.9666748046875,9.6435546875,6.195068359375
4.489999900000001,-9.5624418258667,0.6416460275650024,3.026270866394043,-23.1781005859375,6.6070556640625,5.7525634765625
4.5099999,-9.634267807006836,0.7350199222564697,2.920926094055176,-16.815185546875,3.8299560546875,0.3509521484375
4.529999900000001,-9.6989107131958,0.7422025203704834,2.6599581241607666,9.857177734375,5.6304931640625,-13.519287109375
4.5499999,-9.682151794433594,0.4165911078453064,2.2888567447662354,36.3006591796875,9.8419189453125,-20.5841064453125
4.569999900000001,-9.725247383117676,0.272938996553421,2.0661959648132324,7.6904296875,1.0986328125,-5.218505859375
4.5899999000000005,-9.679757118225098,-0.021547814831137657,1.9823989868164062,5.706787109375,-1.861572265625,2.8839111328125
4.609999900000001,-9.646238327026367,-0.06703764945268631,2.1164743900299072,0.3204345703125,1.77001953125,0.1068115234375
4.6299999000000005,-9.605537414550781,0.047884032130241394,2.3319525718688965,-9.8419189453125,8.4991455078125,-0.518798828125
4.6499999,-9.62947940826416,0.2082955539226532,2.47560453414917,-14.2059326171875,10.1318359375,4.9591064453125
4.6699999000000005,-9.651026725769043,0.3256114423274994,2.456450939178467,-9.8876953125,3.387451171875,2.0751953125
4.6899999,-9.770736694335938,0.3423708379268646,2.248155355453491,-2.2125244140625,-2.3193359375,-1.8310546875
4.709999900000001,-9.825803756713867,0.2992752194404602,1.9943699836730957,5.523681640625,-5.157470703125,-3.11279296875
4.7299999,-9.804255485534668,0.20350714027881622,1.889025092124939,10.6353759765625,-6.1798095703125,-7.659912109375
4.749999900000001,-9.780313491821289,0.11971008777618408,1.9369091987609863,10.223388671875,-2.6397705078125,-4.791259765625
4.7699999,-9.677363395690918,0.08858546614646912,2.2170307636260986,4.6844482421875,-0.0152587890625,-0.6103515625
4.789999900000001,-9.57441234588623,0.08619125932455063,2.5234885215759277,-4.974365234375,3.5552978515625,-0.579833984375
4.8099999,-9.524134635925293,0.16519992053508759,2.7533318996429443,-14.2669677734375,10.894775390625,0.518798828125
4.829999900000001,-9.53849983215332,0.22505496442317963,2.7988216876983643,-16.2811279296875,10.498046875,3.936767578125
4.8499999,-9.636661529541016,0.2561795711517334,2.609679937362671,-11.7645263671875,1.9683837890625,4.08935546875
4.869999900000001,-9.775525093078613,0.22026655077934265,2.3511061668395996,-4.791259765625,-0.79345703125,0.4119873046875
4.8899999,-9.892841339111328,0.12449848651885986,1.9800047874450684,1.983642578125,-2.7923583984375,-2.8076171875
4.909999900000001,-9.852140426635742,0.028730420395731926,1.8148049116134644,9.490966796875,-5.615234375,-4.974365234375
4.9299999,-9.823410034179688,-0.05985504388809204,1.7573440074920654,14.3280029296875,-5.2642822265625,-1.46484375
4.949999900000001,-9.730035781860352,0.004788403399288654,1.965639591217041,8.5296630859375,-2.86865234375,1.068115234375
4.9699999,-9.581595420837402,0.13168109953403473,2.3032219409942627,-5.767822265625,2.7313232421875,0.5645751953125
4.989999900000001,-9.524134635925293,0.3280056416988373,2.650381326675415,-17.0135498046875,9.3231201171875,1.40380859375
5.0099999,-9.528923034667969,0.4644751250743866,2.851494312286377,-19.805908203125,9.6588134765625,3.60107421875
5.029999900000001,-9.560047149658203,0.4668693244457245,2.7437551021575928,-15.533447265625,4.8980712890625,1.6021728515625
5.0499999,-9.6989107131958,0.3256114423274994,2.492363929748535,-3.753662109375,1.46484375,-2.0904541015625
5.069999900000001,-9.78989028930664,0.12449848651885986,2.070984363555908,9.8876953125,-3.6773681640625,-4.6844482421875
5.0899999000000005,-9.787496566772461,-0.05267243832349777,1.8148049116134644,18.12744140625,-5.4931640625,-5.18798828125
5.109999900000001,-9.801861763000488,-0.1388636976480484,1.702277421951294,17.2119140625,-4.1351318359375,-1.5411376953125
5.1299999000000005,-9.746794700622559,-0.08140286058187485,1.8698714971542358,7.720947265625,-2.3956298828125,-0.79345703125
5.1499999,-9.646238327026367,0.07422025501728058,2.1930887699127197,-5.2032470703125,2.8076171875,-0.42724609375
5.1699999000000005,-9.588777542114258,0.26815059781074524,2.559401512145996,-15.44189453125,9.4451904296875,1.800537109375
5.1899999,-9.607931137084961,0.3974374830722809,2.75812029838562,-19.4854736328125,8.3465576171875,3.47900390625
5.209999900000001,-9.636661529541016,0.4189853072166443,2.7030537128448486,-15.045166015625,3.35693359375,0.579833984375
5.2299999,-9.725247383117676,0.3232172429561615,2.5115175247192383,-4.5318603515625,1.1749267578125,-2.7313232421875
5.249999900000001,-9.780313491821289,0.1412578970193863,2.1978771686553955,4.1351318359375,-1.1138916015625,-5.340576171875
5.2699999,-9.763554573059082,-0.028730420395731926,2.030282974243164,7.7362060546875,-0.091552734375,-5.340576171875
5.289999900000001,-9.758766174316406,-0.13407529890537262,1.946485996246338,7.720947265625,0.457763671875,-0.732421875
5.3099999,-9.718064308166504,-0.09576806426048279,2.030282974243164,2.7313232421875,0.9002685546875,0.54931640625
5.329999900000001,-9.66539192199707,-0.016759412363171577,2.1164743900299072,-5.1422119140625,4.7454833984375,-0.5340576171875
5.3499999,-9.691728591918945,0.13407529890537262,2.164358377456665,-7.50732421875,6.256103515625,1.52587890625
5.369999900000001,-9.710882186889648,0.21308395266532898,2.1715409755706787,-2.8076171875,-1.1444091796875,2.716064453125
5.3899999,-9.794678688049316,0.24181437492370605,2.0877439975738525,2.99072265625,-6.65283203125,-0.30517578125
5.409999900000001,-9.849745750427246,0.1628057211637497,1.965639591217041,6.6680908203125,-5.767822265625,-3.0059814453125
5.4299999,-9.813833236694336,0.08619125932455063,1.9321208000183105,10.589599609375,-6.9732666015625,-5.79833984375
5.449999900000001,-9.801861763000488,-0.021547814831137657,1.98958158493042,13.7481689453125,-6.1798095703125,-5.37109375
5.4699999,-9.710882186889648,-0.043095629662275314,2.2218191623687744,9.0789794921875,-3.204345703125,-0.9918212890625
5.489999900000001,-9.63187313079834,-0.002394201699644327,2.5115175247192383,-3.7841796875,2.685546875,0.5035400390625
5.5099999,-9.552865028381348,0.09576806426048279,2.8131868839263916,-14.129638671875,8.697509765625,0.244140625
5.529999900000001,-9.550470352172852,0.1867477297782898,2.8610711097717285,-17.2119140625,10.7574462890625,2.5482177734375
5.5499999,-9.59596061706543,0.2298433631658554,2.760514497756958,-13.946533203125,5.126953125,4.791259765625
5.569999900000001,-9.730035781860352,0.20350714027881622,2.382230758666992,-6.65283203125,-0.2288818359375,1.4495849609375
5.5899999000000005,-9.813833236694336,0.12210428714752197,2.032677173614502,5.2947998046875,-3.0059814453125,-3.082275390625
5.609999900000001,-9.830592155456543,0.033518824726343155,1.7501614093780518,15.31982421875,-7.476806640625,-6.744384765625
5.6299999000000005,-9.84256362915039,-0.05746084079146385,1.6687586307525635,18.341064453125,-6.6070556640625,-5.3558349609375
5.6499999,-9.77791976928711,-0.05027823522686958,1.8602946996688843,12.9547119140625,-4.486083984375,-1.0528564453125
5.6699999000000005,-9.691728591918945,0.002394201699644327,2.2170307636260986,0.9002685546875,0.396728515625,0.0457763671875
5.6899999,-9.57201862335205,0.1149216815829277,2.6384103298187256,-12.908935546875,8.3465576171875,-0.3814697265625
5.709999900000001,-9.5408935546875,0.2513911724090576,2.868253707885742,-20.99609375,12.8021240234375,1.678466796875
5.7299999,-9.576807022094727,0.304063618183136,2.918531894683838,-18.5699462890625,7.9498291015625,3.997802734375
5.749999900000001,-9.694122314453125,0.2777273952960968,2.6431987285614014,-10.406494140625,2.471923828125,1.0986328125
5.7699999,-9.821015357971191,0.12928688526153564,2.233790159225464,0.8392333984375,0.4425048828125,-1.52587890625
5.789999900000001,-9.854534149169922,-0.06703764945268631,1.8842366933822632,11.1846923828125,-4.119873046875,-4.5928955078125
5.8099999,-9.849745750427246,-0.24899697303771973,1.6615760326385498,15.350341796875,-5.2032470703125,-3.814697265625
5.829999900000001,-9.799467086791992,-0.3016694188117981,1.7094600200653076,12.664794921875,-4.180908203125,1.6937255859375
5.8499999,-9.703699111938477,-0.19153612852096558,2.011129379272461,2.288818359375,-1.0528564453125,3.265380859375
5.869999900000001,-9.617507934570312,0.040701430290937424,2.3247697353363037,-11.1083984375,5.615234375,1.1444091796875
5.8899999,-9.591172218322754,0.2585737705230713,2.5546131134033203,-16.510009765625,9.0179443359375,1.8157958984375
5.909999900000001,-9.66539192199707,0.4118026793003082,2.5953147411346436,-12.1002197265625,3.0975341796875,3.387451171875
5.9299999,-9.737217903137207,0.363918662071228,2.4013843536376953,-4.1351318359375,-3.8604736328125,1.2054443359375
5.949999900000001,-9.816226959228516,0.19632454216480255,2.1571757793426514,5.3863525390625,-3.7689208984375,-1.7852783203125
5.9699999,-9.797073364257812,0.016759412363171577,1.9847931861877441,13.7939453125,-6.2103271484375,-4.39453125
5.989999900000001,-9.75397777557373,-0.19153612852096558,1.9153614044189453,16.2506103515625,-6.6986083984375,-4.7607421875
6.0099999,-9.679757118225098,-0.2106897532939911,2.051830768585205,11.688232421875,-3.5400390625,-0.6103515625
6.029999900000001,-9.646238327026367,-0.12210428714752197,2.3104045391082764,1.2359619140625,-0.030517578125,2.166748046875
6.0499999,-9.53849983215332,0.07900865375995636,2.6192567348480225,-11.8560791015625,7.354736328125,0.3204345703125
6.069999900000001,-9.524134635925293,0.2777273952960968,2.808398485183716,-19.683837890625,12.26806640625,0.1373291015625
6.0899999000000005,-9.59596061706543,0.40940847992897034,2.7724854946136475,-18.5699462890625,8.7738037109375,2.6397705078125
6.109999900000001,-9.68933391571045,0.33997663855552673,2.5258827209472656,-9.8876953125,-0.9918212890625,1.9073486328125
6.1299999000000005,-9.818621635437012,0.1867477297782898,2.188300371170044,1.434326171875,-3.021240234375,-1.068115234375
6.149999900000001,-9.897629737854004,-0.026336219161748886,1.886630892753601,11.3067626953125,-4.0283203125,-2.960205078125
6.1699999000000005,-9.854534149169922,-0.21787235140800476,1.7166426181793213,17.0135498046875,-7.1563720703125,-4.9896240234375
6.1899999,-9.835380554199219,-0.24899697303771973,1.7956513166427612,17.0440673828125,-5.9356689453125,-1.77001953125
6.209999900000001,-9.75397777557373,-0.15562310814857483,2.0638017654418945,7.62939453125,-3.0517578125,1.251220703125
6.2299999,-9.639056205749512,0.021547814831137657,2.389413356781006,-7.6141357421875,4.33349609375,0.4425048828125
6.249999900000001,-9.567230224609375,0.24899697303771973,2.738966703414917,-16.5863037109375,10.955810546875,-0.0152587890625
6.2699999,-9.603142738342285,0.3711012601852417,2.8203697204589844,-16.4031982421875,9.185791015625,2.38037109375
6.289999900000001,-9.619902610778809,0.35673606395721436,2.7533318996429443,-13.2904052734375,2.288818359375,3.3416748046875
6.3099999,-9.720458984375,0.23942017555236816,2.477998733520508,-7.598876953125,0.518798828125,0.67138671875
6.329999900000001,-9.770736694335938,0,2.183511972427368,3.448486328125,-0.7781982421875,-1.800537109375
6.3499999,-9.737217903137207,-0.17238251864910126,1.941697597503662,11.8865966796875,-4.2877197265625,-3.692626953125
6.369999900000001,-9.749189376831055,-0.2992752194404602,1.8602946996688843,13.1072998046875,-3.2196044921875,-1.5716552734375
6.3899999,-9.720458984375,-0.2513911724090576,1.9536685943603516,8.2244873046875,-2.2430419921875,1.312255859375
6.409999900000001,-9.651026725769043,-0.10295066982507706,2.209848165512085,-2.6092529296875,2.4261474609375,1.5716552734375
6.4299999,-9.643844604492188,0.090979665517807,2.4181437492370605,-11.7950439453125,8.4381103515625,0.701904296875
6.449999900000001,-9.660603523254395,0.26096799969673157,2.4899697303771973,-11.993408203125,8.209228515625,1.8463134765625
6.4699999,-9.742006301879883,0.33279404044151306,2.4468741416931152,-6.9427490234375,0.640869140625,3.0059814453125
6.489999900000001,-9.821015357971191,0.2944868206977844,2.229001760482788,-1.5716552734375,-4.0435791015625,1.129150390625
6.5099999,-9.847352027893066,0.20111294090747833,2.054224967956543,5.0506591796875,-3.35693359375,-1.3580322265625
6.529999900000001,-9.780313491821289,0.05027823522686958,1.968033790588379,11.3983154296875,-5.4779052734375,-4.1961669921875
6.5499999,-9.742006301879883,-0.043095629662275314,1.98958158493042,12.8173828125,-4.7607421875,-4.8675537109375
6.569999900000001,-9.660603523254395,-0.0454898327589035,2.2002713680267334,7.232666015625,-1.1749267578125,-1.617431640625
6.5899999000000005,-9.59596061706543,-0.011971008032560349,2.4851813316345215,-3.2958984375,2.8533935546875,0.8697509765625
6.609999900000001,-9.552865028381348,0.10055647045373917,2.7557260990142822,-14.4500732421875,9.8419189453125,1.007080078125
6.6299999000000005,-9.512163162231445,0.13168109953403473,2.827552318572998,-19.34814453125,13.580322265625,2.410888671875
6.649999900000001,-9.622296333312988,0.1604115068912506,2.698265314102173,-16.082763671875,9.3536376953125,5.0811767578125
6.6699999000000005,-9.734824180603027,0.10055647045373917,2.3487119674682617,-7.26318359375,0.1678466796875,3.7384033203125
6.6899999,-9.847352027893066,0.040701430290937424,1.946485996246338,2.5482177734375,-2.5482177734375,0.5340576171875
6.709999900000001,-9.914389610290527,-0.023942016065120697,1.6759412288665771,10.345458984375,-4.608154296875,-2.3193359375
6.7299999,-9.859322547912598,-0.08140286058187485,1.5682021379470825,14.3280029296875,-6.439208984375,-4.9591064453125
6.749999900000001,-9.804255485534668,-0.08140286058187485,1.6879122257232666,14.1143798828125,-5.7373046875,-1.9989013671875
6.7699999,-9.710882186889648,0,2.0661959648132324,6.28662109375,-3.0670166015625,0.244140625
6.789999900000001,-9.586383819580078,0.14604631066322327,2.4612393379211426,-8.7127685546875,3.7689208984375,0.42724609375
6.8099999,-9.533711433410645,0.26815059781074524,2.806004285812378,-19.95849609375,11.8255615234375,0.1068115234375
6.829999900000001,-9.59835433959961,0.3280056416988373,2.892195701599121,-19.53125,10.8795166015625,2.01416015625
6.8499999,-9.66539192199707,0.23942017555236816,2.7030537128448486,-10.8489990234375,2.4566650390625,3.7384033203125
6.869999900000001,-9.797073364257812,0.11013327538967133,2.2912509441375732,0.274658203125,-1.4801025390625,1.4495849609375
6.8899999,-9.892841339111328,-0.10295066982507706,1.8626888990402222,12.4664306640625,-4.3487548828125,-1.8768310546875
6.909999900000001,-9.825803756713867,-0.17956513166427612,1.625662922859192,20.4925537109375,-8.0108642578125,-4.669189453125
6.9299999,-9.830592155456543,-0.2059013396501541,1.5705963373184204,20.904541015625,-7.1868896484375,-2.44140625
6.949999900000001,-9.708487510681152,-0.08140286058187485,1.8387469053268433,13.48876953125,-5.0811767578125,-0.7476806640625
6.9699999,-9.593565940856934,0.1388636976480484,2.279279947280884,-0.579833984375,0.579833984375,-0.7171630859375
6.989999900000001,-9.543288230895996,0.3256114423274994,2.652775526046753,-14.2669677734375,8.2244873046875,-1.0833740234375
7.0099999,-9.5408935546875,0.47165772318840027,2.8586769104003906,-17.5933837890625,9.5367431640625,-0.244140625
7.029999900000001,-9.655815124511719,0.3998316824436188,2.784456491470337,-11.41357421875,3.4942626953125,1.46484375
7.0499999,-9.77791976928711,0.272938996553421,2.4803929328918457,-1.5869140625,-2.197265625,-0.2899169921875
7.069999900000001,-9.861717224121094,0.05506663769483566,2.1499931812286377,8.8348388671875,-3.5247802734375,-2.7923583984375
7.0899999000000005,-9.837775230407715,-0.14844051003456116,1.8698714971542358,16.5557861328125,-6.0882568359375,-4.82177734375
7.109999900000001,-9.828198432922363,-0.22266076505184174,1.8148049116134644,18.7225341796875,-6.103515625,-4.08935546875
7.1299999000000005,-9.730035781860352,-0.21308395266532898,1.9393033981323242,13.73291015625,-4.6539306640625,-1.15966796875
7.149999900000001,-9.655815124511719,-0.0694318488240242,2.2888567447662354,1.6937255859375,0.213623046875,0.0457763671875
7.1699999000000005,-9.5624418258667,0.12928688526153564,2.628833532333374,-12.5274658203125,7.38525390625,0.48828125
7.1899999,-9.500192642211914,0.2513911724090576,2.8179752826690674,-18.00537109375,11.2457275390625,0.5645751953125
7.209999900000001,-9.603142738342285,0.2825157940387726,2.738966703414917,-10.4827880859375,5.2337646484375,2.288818359375
7.2299999,-9.682151794433594,0.20350714027881622,2.4444799423217773,1.0833740234375,-4.0283203125,1.4190673828125
7.249999900000001,-9.794678688049316,0.06224924325942993,2.075772762298584,8.6212158203125,-5.67626953125,-1.28173828125
7.2699999,-9.8784761428833,-0.10295066982507706,1.8171991109848022,13.9007568359375,-6.53076171875,-3.6163330078125
7.289999900000001,-9.797073364257812,-0.19153612852096558,1.7717092037200928,15.7623291015625,-7.2021484375,-4.45556640625
7.3099999,-9.773131370544434,-0.19393034279346466,1.922544002532959,11.1846923828125,-4.150390625,-0.091552734375
7.329999900000001,-9.679757118225098,-0.047884032130241394,2.2601263523101807,0.4119873046875,0.4119873046875,1.220703125
7.3499999,-9.603142738342285,0.15322890877723694,2.6384103298187256,-12.8173828125,5.6915283203125,0.9613037109375
7.369999900000001,-9.57201862335205,0.3495534360408783,2.875436305999756,-20.721435546875,11.41357421875,1.64794921875
7.3899999,-9.62947940826416,0.43095630407333374,2.8371291160583496,-18.4783935546875,8.6669921875,2.777099609375
7.409999900000001,-9.696516990661621,0.3280056416988373,2.557007312774658,-7.568359375,-0.9765625,2.3040771484375
7.4299999,-9.792284965515137,0.1604115068912506,2.145204782485962,5.706787109375,-5.79833984375,-0.91552734375
7.449999900000001,-9.828198432922363,-0.05506663769483566,1.889025092124939,14.2822265625,-7.32421875,-2.0294189453125
7.4699999,-9.739612579345703,-0.19393034279346466,1.764526605606079,16.6473388671875,-7.2479248046875,-3.5552978515625
7.489999900000001,-9.715670585632324,-0.19393034279346466,1.9536685943603516,14.95361328125,-4.1961669921875,-2.227783203125
7.5099999,-9.62947940826416,-0.07661445438861847,2.3056161403656006,5.5084228515625,-0.7171630859375,-0.091552734375
7.529999900000001,-9.552865028381348,0.11971008777618408,2.676717519760132,-10.9710693359375,6.34765625,0.6561279296875
7.5499999,-9.564835548400879,0.31842881441116333,2.9664158821105957,-22.2625732421875,13.336181640625,0.2899169921875
7.569999900000001,-9.57441234588623,0.3758896589279175,2.9472622871398926,-21.0418701171875,12.63427734375,0.396728515625
7.5899999000000005,-9.670180320739746,0.3447650372982025,2.717418909072876,-11.53564453125,4.4708251953125,2.5634765625
7.609999900000001,-9.806650161743164,0.1388636976480484,2.231395959854126,-0.1373291015625,-2.5177001953125,1.434326171875
7.6299999000000005,-9.880870819091797,-0.05267243832349777,1.8100165128707886,11.9171142578125,-5.7373046875,-2.0294189453125
7.649999900000001,-9.892841339111328,-0.2322375625371933,1.5729905366897583,22.2930908203125,-9.58251953125,-4.8065185546875
7.6699999000000005,-9.823410034179688,-0.24420857429504395,1.6424223184585571,21.0418701171875,-7.99560546875,-4.1656494140625
7.6899999,-9.713275909423828,-0.1173158809542656,1.9943699836730957,8.23974609375,-3.11279296875,-1.5411376953125
7.709999900000001,-9.586383819580078,0.07182604819536209,2.5450363159179688,-7.965087890625,3.9215087890625,-0.518798828125
7.7299999,-9.514557838439941,0.3016694188117981,2.959233283996582,-21.42333984375,10.9405517578125,-0.396728515625
7.749999900000001,-9.47146224975586,0.3280056416988373,3.07415509223938,-24.7802734375,13.5955810546875,0.5340576171875
7.7699999,-9.610325813293457,0.2944868206977844,2.8850131034851074,-16.8304443359375,7.8582763671875,2.3956298828125
7.789999900000001,-9.725247383117676,0.08140286058187485,2.3798365592956543,-2.9296875,-1.7547607421875,1.983642578125
7.8099999,-9.847352027893066,-0.0933738648891449,1.941697597503662,10.80322265625,-6.195068359375,-0.5035400390625
7.829999900000001,-9.904812812805176,-0.2513911724090576,1.6352397203445435,17.3797607421875,-7.904052734375,-2.3651123046875
7.8499999,-9.825803756713867,-0.29209262132644653,1.6041151285171509,17.08984375,-6.6070556640625,-3.997802734375
7.869999900000001,-9.746794700622559,-0.23702596127986908,1.821987509727478,13.7786865234375,-5.06591796875,-1.2359619140625
7.8899999,-9.646238327026367,-0.0694318488240242,2.2409727573394775,4.2572021484375,-1.708984375,0.518798828125
7.909999900000001,-9.555258750915527,0.16519992053508759,2.63362193107605,-10.650634765625,4.180908203125,0.5645751953125
7.9299999,-9.53849983215332,0.3280056416988373,2.9233202934265137,-20.44677734375,11.2762451171875,0.30517578125
7.949999900000001,-9.617507934570312,0.3878606855869293,2.9281086921691895,-18.3258056640625,8.819580078125,1.0986328125
7.9699999,-9.667786598205566,0.28969839215278625,2.736572504043579,-10.101318359375,0.7781982421875,2.38037109375
7.989999900000001,-9.75637149810791,0.05985504388809204,2.3487119674682617,-0.3814697265625,-1.9989013671875,0.9918212890625
8.0099999,-9.797073364257812,-0.1604115068912506,2.0590133666992188,10.101318359375,-4.241943359375,-1.77001953125
8.0299999,-9.761159896850586,-0.3471592366695404,1.8171991109848022,16.1895751953125,-5.584716796875,-2.9296875
8.049999900000001,-9.761159896850586,-0.3663128614425659,1.8052281141281128,16.7236328125,-4.791259765625,-1.1444091796875
8.069999900000001,-9.739612579345703,-0.2106897532939911,1.968033790588379,11.8865966796875,-3.5552978515625,0.2288818359375
8.0899999,-9.655815124511719,0.031124621629714966,2.341529369354248,-0.3662109375,1.373291015625,0.5950927734375
8.1099999,-9.643844604492188,0.31364041566848755,2.6647465229034424,-14.2974853515625,8.30078125,0.3509521484375
8.129999900000001,-9.591172218322754,0.47644615173339844,2.875436305999756,-18.5699462890625,9.94873046875,0.4730224609375
8.149999900000001,-9.62947940826416,0.4429273009300232,2.8179752826690674,-14.1754150390625,4.08935546875,1.708984375
8.1699999,-9.691728591918945,0.2585737705230713,2.5713725090026855,-6.866455078125,-0.9765625,0.732421875
8.1899999,-9.765948295593262,-0.021547814831137657,2.2002713680267334,2.3651123046875,-2.25830078125,-1.2359619140625
8.2099999,-9.765948295593262,-0.2585737705230713,1.9033904075622559,12.87841796875,-5.4779052734375,-2.86865234375
8.229999900000001,-9.84256362915039,-0.35673606395721436,1.723825216293335,19.3023681640625,-5.79833984375,-2.899169921875
8.2499999,-9.701305389404297,-0.047884032130241394,2.1356279850006104,4.5928955078125,-0.9765625,0.9002685546875
8.2699999,-9.607931137084961,0.2082955539226532,2.542642116546631,-9.9945068359375,5.2947998046875,0.244140625
8.2899999,-9.50498104095459,0.40462008118629456,2.8850131034851074,-20.6756591796875,10.6048583984375,0.3814697265625
8.309999900000001,-9.57441234588623,0.4644751250743866,2.985569477081299,-21.66748046875,9.063720703125,1.46484375
8.3299999,-9.648633003234863,0.31364041566848755,2.7461493015289307,-14.0228271484375,2.50244140625,0.701904296875
8.3499999,-9.758766174316406,0.06464344263076782,2.346317768096924,0.5035400390625,-0.9307861328125,-1.0223388671875
8.3699999,-9.86889934539795,-0.18914192914962769,1.8986018896102905,15.472412109375,-5.615234375,-2.74658203125
8.389999900000001,-9.864110946655273,-0.3711012601852417,1.5873557329177856,24.383544921875,-8.3160400390625,-4.5318603515625
8.4099999,-9.84256362915039,-0.3758896589279175,1.5442601442337036,25.6500244140625,-8.941650390625,-2.2735595703125
8.4299999,-9.765948295593262,-0.2082955539226532,1.8579005002975464,16.54052734375,-6.7901611328125,-0.42724609375
8.4499999,-9.610325813293457,0.05985504388809204,2.3487119674682617,-1.03759765625,-0.457763671875,0.5645751953125
8.469999900000001,-9.521739959716797,0.304063618183136,2.8634653091430664,-17.364501953125,8.7890625,0.2288818359375
8.4899999,-9.50737476348877,0.4429273009300232,3.157952070236206,-22.1710205078125,10.4827880859375,0.213623046875
8.5099999,-9.5624418258667,0.40940847992897034,3.1459810733795166,-17.6849365234375,5.5999755859375,1.64794921875
8.5299999,-9.691728591918945,0.22744916379451752,2.829946517944336,-9.0484619140625,2.838134765625,0.9613037109375
8.549999900000001,-9.785101890563965,-0.047884032130241394,2.38462495803833,1.64794921875,0.06103515625,-1.312255859375
8.569999900000001,-9.763554573059082,-0.24899697303771973,1.987187385559082,11.077880859375,-2.3956298828125,-2.899169921875
8.5899999,-9.797073364257812,-0.38307225704193115,1.699883222579956,17.669677734375,-2.777099609375,-1.007080078125
8.6099999,-9.715670585632324,-0.2992752194404602,1.7094600200653076,16.2811279296875,-4.608154296875,-0.030517578125
8.629999900000001,-9.653421401977539,-0.05746084079146385,2.011129379272461,4.4708251953125,-1.3427734375,0.5035400390625
8.649999900000001,-9.624691009521484,0.20111294090747833,2.3535003662109375,-10.6658935546875,5.828857421875,0.1068115234375
8.6699999,-9.557653427124023,0.4165911078453064,2.7078421115875244,-16.6168212890625,7.2479248046875,-0.0762939453125
8.6899999,-9.62947940826416,0.4165911078453064,2.80361008644104,-12.9241943359375,3.5552978515625,1.129150390625
8.709999900000001,-9.706093788146973,0.2801215946674347,2.7054479122161865,-7.4310302734375,0.885009765625,-0.3204345703125
8.729999900000001,-9.78989028930664,0.06464344263076782,2.4420857429504395,0.3662109375,-0.1220703125,-1.6937255859375
8.7499999,-9.78989028930664,-0.19632454216480255,2.140416383743286,9.9029541015625,-3.1890869140625,-3.387451171875
8.7699999,-9.849745750427246,-0.2849099934101105,1.9321208000183105,16.387939453125,-2.9296875,-3.1585693359375
8.7899999,-9.725247383117676,-0.30885201692581177,1.8842366933822632,15.2435302734375,-3.4027099609375,-0.18310546875
8.809999900000001,-9.710882186889648,-0.1412578970193863,2.0470423698425293,5.645751953125,-0.885009765625,1.190185546875
8.8299999,-9.617507934570312,0.11013327538967133,2.365471363067627,-7.781982421875,4.45556640625,0.3509521484375
8.8499999,-9.567230224609375,0.33997663855552673,2.6168625354766846,-16.8609619140625,8.758544921875,0.4119873046875
8.8699999,-9.627084732055664,0.37828385829925537,2.650381326675415,-14.7552490234375,4.730224609375,0.6103515625
8.889999900000001,-9.674968719482422,0.31603461503982544,2.5450363159179688,-5.4168701171875,-1.9378662109375,0.244140625
8.9099999,-9.749189376831055,0.06224924325942993,2.2361843585968018,4.8828125,-4.608154296875,-0.8544921875
8.9299999,-9.797073364257812,-0.17717093229293823,2.0159177780151367,12.298583984375,-6.8817138671875,-2.288818359375
8.9499999,-9.742006301879883,-0.3016694188117981,1.8914192914962769,15.411376953125,-5.859375,-3.84521484375
8.969999900000001,-9.708487510681152,-0.30885201692581177,1.9943699836730957,14.984130859375,-3.9520263671875,-0.42724609375
8.9899999,-9.641449928283691,-0.14604631066322327,2.248155355453491,5.92041015625,-0.6866455078125,1.28173828125
9.0099999,-9.526528358459473,0.10773907601833344,2.628833532333374,-9.521484375,4.8065185546875,1.0986328125
9.0299999,-9.524134635925293,0.3232172429561615,2.9305028915405273,-21.3775634765625,11.627197265625,0.5645751953125
9.049999900000001,-9.57441234588623,0.42616790533065796,2.9712042808532715,-21.942138671875,9.4451904296875,-0.4730224609375
9.069999900000001,-9.639056205749512,0.3280056416988373,2.765302896499634,-12.664794921875,2.50244140625,0.8697509765625
9.0899999,-9.787496566772461,0.07900865375995636,2.360682964324951,1.739501953125,-1.7242431640625,-0.5645751953125
9.1099999,-9.832986831665039,-0.19393034279346466,1.9704279899597168,14.7247314453125,-6.103515625,-3.3721923828125
9.129999900000001,-9.840168952941895,-0.395043283700943,1.7405846118927002,20.9503173828125,-6.9732666015625,-4.1961669921875
9.149999900000001,-9.782708168029785,-0.42377370595932007,1.7812861204147339,19.83642578125,-4.2877197265625,-1.0833740234375
9.1699999,-9.718064308166504,-0.24420857429504395,2.056619167327881,10.8489990234375,-2.38037109375,0.9765625
9.1899999,-9.576807022094727,0.05746084079146385,2.4803929328918457,-5.523681640625,3.47900390625,0.06103515625
9.209999900000001,-9.576807022094727,0.3016694188117981,2.8203697204589844,-20.7977294921875,11.199951171875,-0.274658203125
9.229999900000001,-9.5624418258667,0.4572925269603729,2.964021682739258,-23.590087890625,10.6201171875,-0.2288818359375
9.2499999,-9.646238327026367,0.38307225704193115,2.806004285812378,-14.83154296875,3.173828125,1.0833740234375
9.2699999,-9.775525093078613,0.11013327538967133,2.425326347351074,-2.7008056640625,-1.46484375,0.1068115234375
9.2899999,-9.832986831665039,-0.1628057211637497,2.0446481704711914,10.2691650390625,-4.9896240234375,-1.373291015625
9.309999900000001,-9.847352027893066,-0.4189853072166443,1.7501614093780518,19.0887451171875,-8.453369140625,-2.0294189453125
9.3299999,-9.832986831665039,-0.4692635238170624,1.702277421951294,22.3236083984375,-5.859375,-1.800537109375
9.3499999,-9.710882186889648,-0.31124621629714966,1.8938134908676147,17.486572265625,-4.8828125,-0.4730224609375
9.3699999,-9.610325813293457,-0.009576806798577309,2.319981336593628,2.6397705078125,-0.1678466796875,0.3662109375
9.389999900000001,-9.560047149658203,0.3208230137825012,2.736572504043579,-14.312744140625,7.7972412109375,-0.457763671875
9.4099999,-9.502586364746094,0.5386953949928284,3.0382418632507324,-23.0712890625,11.3677978515625,-0.823974609375
9.4299999,-9.607931137084961,0.5003881454467773,2.9759926795959473,-19.805908203125,7.4005126953125,-0.1220703125
9.4499999,-9.708487510681152,0.2992752194404602,2.676717519760132,-8.514404296875,1.2664794921875,-0.9002685546875
9.469999900000001,-9.830592155456543,-0.031124621629714966,2.190694570541382,5.92041015625,-2.6092529296875,-1.77001953125
9.4899999,-9.854534149169922,-0.3687070608139038,1.8124107122421265,17.3797607421875,-6.9427490234375,-3.11279296875
9.5099999,-9.859322547912598,-0.4812345504760742,1.6184803247451782,22.3846435546875,-6.5765380859375,-3.8299560546875
9.5299999,-9.734824180603027,-0.4357447028160095,1.7142484188079834,20.660400390625,-5.767822265625,-0.885009765625
9.549999900000001,-9.667786598205566,-0.1628057211637497,2.094926595687866,9.2315673828125,-2.227783203125,1.0528564453125
9.569999900000001,-9.528923034667969,0.14844051003456116,2.535459518432617,-8.1634521484375,4.45556640625,-0.1983642578125
9.5899999,-9.497797966003418,0.40940847992897034,2.911349296569824,-20.1568603515625,10.3302001953125,-0.457763671875
9.6099999,-9.519346237182617,0.45250412821769714,3.0142998695373535,-18.890380859375,6.89697265625,-0.823974609375
9.629999900000001,-9.59596061706543,0.30885201692581177,2.846705913543701,-9.490966796875,0.7781982421875,-0.42724609375
9.649999900000001,-9.727641105651855,0.0454898327589035,2.494758129119873,2.777099609375,-1.678466796875,-1.556396484375
9.6699999,-9.813833236694336,-0.24181437492370605,2.1475989818573,13.36669921875,-5.279541015625,-3.35693359375
9.6899999,-9.797073364257812,-0.4189853072166443,1.8914192914962769,17.7154541015625,-5.2337646484375,-4.69970703125
9.709999900000001,-9.785101890563965,-0.4644751250743866,1.8483237028121948,17.6239013671875,-3.4942626953125,-1.7547607421875
9.729999900000001,-9.710882186889648,-0.3232172429561615,2.054224967956543,9.246826171875,-1.983642578125,0.5645751953125
9.7499999,-9.57201862335205,-0.08379705995321274,2.3942017555236816,-5.8441162109375,3.0364990234375,1.2359619140625
9.7699999,-9.57441234588623,0.1604115068912506,2.7102363109588623,-16.6473388671875,9.3231201171875,1.2969970703125
9.7899999,-9.543288230895996,0.304063618183136,2.911349296569824,-17.1356201171875,6.65283203125,0.0762939453125
9.809999900000001,-9.617507934570312,0.27054479718208313,2.782062292098999,-11.4898681640625,0.91552734375,0.91552734375
9.8299999,-9.725247383117676,0.08140286058187485,2.5115175247192383,-2.532958984375,-1.15966796875,0.2899169921875
9.8499999,-9.818621635437012,-0.14844051003456116,2.2218191623687744,8.209228515625,-4.1046142578125,-1.7547607421875
9.8699999,-9.801861763000488,-0.3495534360408783,1.9752163887023926,13.5650634765625,-4.8980712890625,-3.326416015625
9.889999900000001,-9.785101890563965,-0.40701428055763245,1.965639591217041,12.2528076171875,-1.2969970703125,-0.244140625
9.9099999,-9.710882186889648,-0.304063618183136,2.0805611610412598,6.4544677734375,-0.5340576171875,1.678466796875
9.9299999,-9.586383819580078,-0.06464344263076782,2.360682964324951,-3.35693359375,0.9765625,2.5177001953125
9.9499999,-9.603142738342285,0.18914192914962769,2.6024973392486572,-13.824462890625,7.87353515625,1.708984375
9.969999900000001,-9.607931137084961,0.35673606395721436,2.7222073078155518,-16.021728515625,6.5460205078125,0.0762939453125
9.9899999,-9.653421401977539,0.35913026332855225,2.695871114730835,-10.2691650390625,0.3204345703125,0.6103515625
10.0099999,-9.725247383117676,0.19871874153614044,2.5091233253479004,-2.7313232421875,-1.3580322265625,0.0762939453125
10.0299999,-9.77791976928711,-0.0454898327589035,2.2864625453948975,5.615234375,-2.9754638671875,-1.708984375
10.049999900000001,-9.694122314453125,-0.2777273952960968,2.1284453868865967,11.566162109375,-4.45556640625,-3.6163330078125
10.069999900000001,-9.734824180603027,-0.3711012601852417,2.0853497982025146,12.26806640625,-0.762939453125,-1.6021728515625
10.0899999,-9.615114212036133,-0.3280056416988373,2.169146776199341,8.4381103515625,-0.4425048828125,0.30517578125
10.1099999,-9.564835548400879,-0.11013327538967133,2.427720546722412,-1.5411376953125,1.678466796875,1.251220703125
10.129999900000001,-9.581595420837402,0.17956513166427612,2.655169725418091,-14.3280029296875,8.9874267578125,0.91552734375
10.149999900000001,-9.560047149658203,0.363918662071228,2.7676970958709717,-19.34814453125,10.498046875,0.1220703125
10.1699999,-9.66539192199707,0.40462008118629456,2.6862943172454834,-12.9547119140625,3.631591796875,0.0762939453125
10.1899999,-9.787496566772461,0.21547815203666687,2.367865562438965,-2.01416015625,-1.708984375,-1.2664794921875
10.209999900000001,-9.861717224121094,-0.0454898327589035,2.0638017654418945,8.514404296875,-4.7149658203125,-1.983642578125
10.229999900000001,-9.861717224121094,-0.3016694188117981,1.8938134908676147,14.6331787109375,-6.6680908203125,-3.265380859375
10.2499999,-9.835380554199219,-0.40701428055763245,1.8818424940109253,14.862060546875,-2.6092529296875,-3.4332275390625
10.2699999,-9.653421401977539,-0.33997663855552673,2.1308395862579346,10.986328125,-0.5645751953125,-0.1068115234375
10.2899999,-9.569623947143555,-0.1173158809542656,2.4660277366638184,-0.6866455078125,2.655029296875,0.823974609375
10.309999900000001,-9.500192642211914,0.12689268589019775,2.741360902786255,-15.3656005859375,9.307861328125,-0.152587890625
10.3299999,-9.521739959716797,0.3447650372982025,2.8802247047424316,-20.7366943359375,12.26806640625,-0.6866455078125
10.3499999,-9.624691009521484,0.3519476354122162,2.75812029838562,-14.09912109375,4.9591064453125,-1.129150390625
10.3699999,-9.737217903137207,0.21547815203666687,2.451662540435791,-3.7689208984375,-0.3204345703125,-2.349853515625
10.389999900000001,-9.825803756713867,-0.08140286058187485,2.0853497982025146,6.988525390625,-2.960205078125,-3.143310546875
10.4099999,-9.84495735168457,-0.3423708379268646,1.8411411046981812,15.899658203125,-6.9122314453125,-3.9215087890625
10.4299999,-9.782708168029785,-0.5027823448181152,1.778891921043396,17.8985595703125,-5.18798828125,-4.33349609375
10.4499999,-9.713275909423828,-0.47644615173339844,1.8842366933822632,13.61083984375,-3.143310546875,-1.3275146484375
10.469999900000001,-9.622296333312988,-0.28969839215278625,2.1954829692840576,4.8675537109375,-1.1749267578125,0.396728515625
10.4899999,-9.567230224609375,-0.014365210197865963,2.5282769203186035,-8.2550048828125,2.8839111328125,0.9765625
10.5099999,-9.552865028381348,0.20111294090747833,2.762908697128296,-18.6767578125,8.7127685546875,1.4190673828125
10.5299999,-9.622296333312988,0.2944868206977844,2.853888511657715,-17.669677734375,4.57763671875,0.06103515625
10.549999900000001,-9.701305389404297,0.16998831927776337,2.63362193107605,-9.1705322265625,-1.1749267578125,-0.274658203125
10.569999900000001,-9.797073364257812,-0.07422025501728058,2.346317768096924,1.7547607421875,-3.1280517578125,-1.068115234375
10.5899999,-9.813833236694336,-0.33758243918418884,2.0590133666992188,10.5743408203125,-6.378173828125,-2.01416015625
10.6099999,-9.775525093078613,-0.47884035110473633,1.9033904075622559,12.847900390625,-4.180908203125,-3.5400390625
10.629999900000001,-9.720458984375,-0.44771572947502136,1.9847931861877441,12.3291015625,-2.0599365234375,-1.03759765625
10.649999900000001,-9.653421401977539,-0.2513911724090576,2.2146365642547607,6.34765625,-1.1138916015625,0.8392333984375
10.6699999,-9.5624418258667,0.05027823522686958,2.612074136734009,-6.6986083984375,3.2501220703125,1.2664794921875
10.6899999,-9.557653427124023,0.2561795711517334,2.892195701599121,-19.0582275390625,11.2762451171875,0.3509521484375
10.709999900000001,-9.567230224609375,0.3926490843296051,3.0334534645080566,-21.78955078125,9.429931640625,-1.4495849609375
10.729999900000001,-9.619902610778809,0.272938996553421,2.892195701599121,-15.3961181640625,4.21142578125,-1.2054443359375
10.7499999,-9.737217903137207,0.011971008032560349,2.513911724090576,-3.9520263671875,1.5411376953125,-1.8463134765625
10.7699999,-9.761159896850586,-0.31124621629714966,2.1380221843719482,7.965087890625,-1.6021728515625,-2.8228759765625
10.7899999,-9.799467086791992,-0.5889736413955688,1.7597382068634033,15.5487060546875,-2.105712890625,-3.5400390625
10.809999900000001,-9.782708168029785,-0.6512228846549988,1.6831238269805908,17.51708984375,-2.8228759765625,-0.8544921875
10.8299999,-9.75637149810791,-0.5482721924781799,1.7908629179000854,11.5814208984375,-2.3956298828125,1.3885498046875
10.8499999,-9.62947940826416,-0.2346317619085312,2.1475989818573,-1.861572265625,1.03759765625,2.7008056640625
10.8699999,-9.622296333312988,0.047884032130241394,2.4636335372924805,-15.106201171875,8.392333984375,2.3040771484375
10.889999900000001,-9.603142738342285,0.23942017555236816,2.6791117191314697,-17.547607421875,6.0272216796875,-0.152587890625
10.9099999,-9.679757118225098,0.23702596127986908,2.671929121017456,-12.39013671875,0.6256103515625,0.335693359375
10.9299999,-9.758766174316406,0.031124621629714966,2.494758129119873,-5.0506591796875,0.5950927734375,0.213623046875
10.9499999,-9.787496566772461,-0.2777273952960968,2.3080103397369385,3.509521484375,-0.67138671875,-0.8697509765625
10.969999900000001,-9.718064308166504,-0.47644615173339844,2.2146365642547607,8.3160400390625,0.2899169921875,-1.46484375
10.9899999,-9.710882186889648,-0.5985504388809204,2.1715409755706787,6.011962890625,4.1656494140625,2.9144287109375
11.0099999,-9.660603523254395,-0.4692635238170624,2.293645143508911,-0.3814697265625,5.157470703125,5.3558349609375
11.0299999,-9.576807022094727,-0.22744916379451752,2.47560453414917,-8.7127685546875,6.7138671875,5.584716796875
11.049999900000001,-9.622296333312988,0.035913024097681046,2.52109432220459,-16.0064697265625,12.451171875,4.7149658203125
11.069999900000001,-9.634267807006836,0.2561795711517334,2.454056739807129,-13.5650634765625,9.185791015625,1.678466796875
11.0899999,-9.75397777557373,0.29209262132644653,2.190694570541382,-3.1280517578125,-1.0223388671875,0.6866455078125
11.1099999,-9.849745750427246,0.17238251864910126,1.8842366933822632,6.3323974609375,-4.669189453125,-2.3040771484375
11.129999900000001,-9.885659217834473,-0.014365210197865963,1.6759412288665771,13.85498046875,-5.950927734375,-4.7454833984375
11.149999900000001,-9.832986831665039,-0.181959331035614,1.680729627609253,19.0887451171875,-5.6304931640625,-7.0037841796875
11.1699999,-9.761159896850586,-0.22026655077934265,1.8746598958969116,17.4560546875,-2.2125244140625,-4.608154296875
11.1899999,-9.682151794433594,-0.15322890877723694,2.1739351749420166,8.4991455078125,-0.06103515625,-2.1820068359375
11.209999900000001,-9.619902610778809,0.002394201699644327,2.540247917175293,-3.875732421875,3.5247802734375,-1.15966796875
11.229999900000001,-9.603142738342285,0.05506663769483566,2.75812029838562,-14.2364501953125,9.6435546875,0.274658203125
11.2499999,-9.600749015808105,0.08858546614646912,2.7892448902130127,-16.937255859375,8.4228515625,0.6866455078125
11.2699999,-9.670180320739746,-0.0454898327589035,2.5498247146606445,-10.162353515625,1.03759765625,1.6021728515625
11.2899999,-9.787496566772461,-0.2322375625371933,2.1284453868865967,1.922607421875,-3.96728515625,-0.091552734375
11.309999900000001,-9.880870819091797,-0.4405331015586853,1.7764976024627686,13.2293701171875,-8.8348388671875,-0.9307861328125
11.3299999,-9.873687744140625,-0.5434837937355042,1.522712230682373,18.8446044921875,-10.5438232421875,-2.3956298828125
11.3499999,-9.84256362915039,-0.5027823448181152,1.5969325304031372,18.1884765625,-6.6375732421875,-0.823974609375
11.3699999,-9.734824180603027,-0.2801215946674347,1.944091796875,9.033203125,-4.45556640625,0.8544921875
11.389999900000001,-9.588777542114258,0.026336219161748886,2.4013843536376953,-8.4228515625,0.4119873046875,2.0599365234375
11.4099999,-9.588777542114258,0.2801215946674347,2.8203697204589844,-22.5677490234375,7.9498291015625,2.8533935546875
11.4299999,-9.545681953430176,0.38546648621559143,3.0166940689086914,-24.3377685546875,9.1552734375,0.8087158203125
11.4499999,-9.615114212036133,0.26815059781074524,2.889801502227783,-15.6097412109375,2.3956298828125,0.8392333984375
11.469999900000001,-9.68933391571045,-0.004788403399288654,2.52109432220459,-1.5869140625,-2.288818359375,0.457763671875
11.4899999,-9.768342971801758,-0.30885201692581177,2.10210919380188,13.6871337890625,-6.7596435546875,-1.068115234375
11.5099999,-9.746794700622559,-0.49320554733276367,1.8555063009262085,22.8729248046875,-9.1400146484375,-3.6773681640625
11.5299999,-9.746794700622559,-0.4812345504760742,1.8363527059555054,19.4854736328125,-3.631591796875,-2.6702880859375
11.549999900000001,-9.684545516967773,-0.2825157940387726,2.0590133666992188,8.3465576171875,-1.129150390625,-0.823974609375
11.569999900000001,-9.615114212036133,0.043095629662275314,2.494758129119873,-6.011962890625,3.0670166015625,0.0152587890625
11.5899999,-9.627084732055664,0.2585737705230713,2.8179752826690674,-19.95849609375,9.7198486328125,0.7781982421875
11.6099999,-9.627084732055664,0.35673606395721436,2.9520506858825684,-24.169921875,12.6495361328125,0.5340576171875
11.629999900000001,-9.715670585632324,0.21547815203666687,2.8131868839263916,-15.533447265625,5.06591796875,0.885009765625
11.649999900000001,-9.782708168029785,-0.05506663769483566,2.4157495498657227,-2.50244140625,-0.9765625,0.9613037109375
11.6699999,-9.849745750427246,-0.38307225704193115,1.965639591217041,9.857177734375,-5.0811767578125,0.3204345703125
11.6899999,-9.806650161743164,-0.5650315880775452,1.7286136150360107,16.571044921875,-7.8125,-0.9918212890625
11.709999900000001,-9.746794700622559,-0.5985504388809204,1.6735470294952393,14.9993896484375,-3.4637451171875,-1.4495849609375
11.729999900000001,-9.677363395690918,-0.4381389021873474,1.9153614044189453,8.60595703125,-1.312255859375,0.946044921875
11.7499999,-9.581595420837402,-0.15562310814857483,2.2864625453948975,-2.8839111328125,2.0599365234375,2.4871826171875
11.7699999,-9.57201862335205,0.14604631066322327,2.6024973392486572,-14.9383544921875,5.9356689453125,2.4566650390625
11.7899999,-9.586383819580078,0.3232172429561615,2.762908697128296,-19.2413330078125,9.1552734375,1.5716552734375
11.809999900000001,-9.639056205749512,0.30885201692581177,2.715024709701538,-13.0462646484375,3.3416748046875,0.4425048828125
11.8299999,-9.737217903137207,0.16998831927776337,2.494758129119873,-4.4097900390625,-1.617431640625,1.373291015625
11.8499999,-9.797073364257812,-0.10534487664699554,2.188300371170044,4.1961669921875,-2.7618408203125,0.457763671875
11.8699999,-9.77791976928711,-0.3064578175544739,2.0254945755004883,12.1002197265625,-4.913330078125,-1.7852783203125
11.889999900000001,-9.775525093078613,-0.3926490843296051,1.9177556037902832,13.6260986328125,-1.7852783203125,-2.8533935546875
11.9099999,-9.68933391571045,-0.3280056416988373,2.056619167327881,8.026123046875,1.15966796875,-0.3204345703125
11.9299999,-9.674968719482422,-0.11971008777618408,2.298433542251587,-1.9378662109375,3.2501220703125,1.2969970703125
11.9499999,-9.579200744628906,0.13168109953403473,2.5546131134033203,-13.5498046875,6.8817138671875,0.885009765625
11.969999900000001,-9.641449928283691,0.304063618183136,2.6431987285614014,-14.068603515625,6.072998046875,-0.8544921875
11.9899999,-9.739612579345703,0.13168109953403473,2.3774423599243164,-5.7220458984375,0.030517578125,0.091552734375
12.0099999,-9.823410034179688,-0.1149216815829277,2.0685901641845703,4.302978515625,-2.044677734375,-0.9002685546875
12.0299999,-9.871294021606445,-0.35913026332855225,1.824381709098816,14.22119140625,-6.3323974609375,-2.7008056640625
12.049999900000001,-9.849745750427246,-0.45250412821769714,1.6615760326385498,18.2037353515625,-6.927490234375,-4.180908203125
12.069999900000001,-9.813833236694336,-0.42377370595932007,1.7693150043487549,15.0604248046875,-3.11279296875,-1.89208984375
12.0899999,-9.749189376831055,-0.2585737705230713,2.0446481704711914,6.256103515625,-1.3427734375,0.54931640625
12.1099999,-9.646238327026367,0.011971008032560349,2.4181437492370605,-6.622314453125,2.74658203125,1.3885498046875
12.129999900000001,-9.59835433959961,0.18914192914962769,2.7748796939849854,-17.3187255859375,8.9263916015625,1.8768310546875
12.149999900000001,-9.586383819580078,0.31603461503982544,2.894589900970459,-20.0347900390625,9.3536376953125,0.1220703125
12.1699999,-9.615114212036133,0.2106897532939911,2.7509377002716064,-14.4195556640625,3.6468505859375,0.3662109375
12.1899999,-9.696516990661621,-0.028730420395731926,2.406172752380371,-3.204345703125,-0.274658203125,-0.8087158203125
12.209999900000001,-9.761159896850586,-0.2825157940387726,2.0398597717285156,9.0179443359375,-4.5928955078125,-1.953125
12.229999900000001,-9.725247383117676,-0.5363011956214905,1.7741034030914307,16.4337158203125,-5.462646484375,-2.9144287109375
12.2499999,-9.768342971801758,-0.5650315880775452,1.7549498081207275,18.1732177734375,-2.0294189453125,-1.434326171875
12.2699999,-9.674968719482422,-0.43095630407333374,1.9249382019042969,14.22119140625,-1.8157958984375,1.5106201171875
12.289999900000002,-9.670180320739746,-0.10295066982507706,2.2385785579681396,1.52587890625,1.068115234375,2.1514892578125
12.309999900000001,-9.655815124511719,0.2322375625371933,2.5522189140319824,-12.6495361328125,7.110595703125,0.9613037109375
12.3299999,-9.66539192199707,0.43095630407333374,2.7006595134735107,-18.035888671875,8.026123046875,-0.9918212890625
12.3499999,-9.701305389404297,0.4189853072166443,2.7126305103302,-13.5345458984375,2.13623046875,-1.15966796875
12.3699999,-9.751583099365234,0.14365209639072418,2.451662540435791,-4.6844482421875,-0.762939453125,-1.5106201171875
12.389999900000001,-9.797073364257812,-0.19153612852096558,2.161964178085327,6.072998046875,-3.387451171875,-1.46484375
12.4099999,-9.742006301879883,-0.4836287498474121,1.987187385559082,13.0157470703125,-5.401611328125,-1.739501953125
12.4299999,-9.725247383117676,-0.6057330369949341,1.8938134908676147,11.1541748046875,-0.274658203125,-0.9918212890625
12.4499999,-9.660603523254395,-0.47884035110473633,2.0422539710998535,6.072998046875,1.15966796875,2.2125244140625
12.469999900000001,-9.617507934570312,-0.22266076505184174,2.3080103397369385,-3.3416748046875,2.655029296875,2.8533935546875
12.4899999,-9.641449928283691,0.10295066982507706,2.5330653190612793,-15.5792236328125,7.8277587890625,1.983642578125
12.5099999,-9.682151794433594,0.3256114423274994,2.6599581241607666,-19.47021484375,9.5672607421875,1.220703125
12.5299999,-9.758766174316406,0.33279404044151306,2.5689783096313477,-11.77978515625,2.899169921875,-0.213623046875
12.549999900000001,-9.828198432922363,0.13407529890537262,2.2864625453948975,-0.48828125,-2.3193359375,-0.823974609375
12.569999900000001,-9.873687744140625,-0.13168109953403473,1.9776105880737305,10.6658935546875,-5.7373046875,-1.495361328125
12.5899999,-9.828198432922363,-0.37828385829925537,1.8291701078414917,17.1661376953125,-7.50732421875,-2.4566650390625
12.6099999,-9.773131370544434,-0.4572925269603729,1.821987509727478,15.0146484375,-2.6397705078125,-3.5858154296875
12.629999900000001,-9.68933391571045,-0.3902548849582672,2.0638017654418945,7.4005126953125,0.18310546875,-0.762939453125
12.649999900000001,-9.605537414550781,-0.181959331035614,2.4205379486083984,-3.84521484375,3.23486328125,2.0751953125
12.6699999,-9.581595420837402,0.035913024097681046,2.6791117191314697,-15.472412109375,7.75146484375,2.5482177734375
12.6899999,-9.617507934570312,0.20350714027881622,2.7724854946136475,-20.7672119140625,12.0849609375,1.89208984375
12.709999900000001,-9.672574996948242,0.2298433631658554,2.6408045291900635,-14.0533447265625,5.5999755859375,-0.4730224609375
12.729999900000001,-9.78989028930664,0.07900865375995636,2.250549554824829,-2.25830078125,-2.0599365234375,0.0152587890625
12.7499999,-9.854534149169922,-0.14844051003456116,1.8818424940109253,8.7890625,-4.94384765625,-0.7476806640625
12.7699999,-9.830592155456543,-0.36152446269989014,1.6831238269805908,17.974853515625,-8.7127685546875,-2.4871826171875
12.789999900000002,-9.797073364257812,-0.4572925269603729,1.6519991159439087,18.218994140625,-6.2408447265625,-3.7994384765625
12.809999900000001,-9.708487510681152,-0.3878606855869293,1.9129672050476074,10.8489990234375,-1.1444091796875,-1.4190673828125
12.8299999,-9.636661529541016,-0.2106897532939911,2.2577321529388428,-0.06103515625,1.7852783203125,1.1444091796875
12.8499999,-9.57201862335205,0.05267243832349777,2.6431987285614014,-12.6495361328125,5.18798828125,1.678466796875
12.8699999,-9.59596061706543,0.19632454216480255,2.827552318572998,-21.0723876953125,10.284423828125,1.52587890625
12.889999900000001,-9.63187313079834,0.30885201692581177,2.829946517944336,-18.3563232421875,6.927490234375,0.0762939453125
12.9099999,-9.706093788146973,0.13407529890537262,2.5306711196899414,-7.2021484375,-0.54931640625,0.1220703125
12.9299999,-9.794678688049316,-0.05985504388809204,2.1787235736846924,6.256103515625,-4.119873046875,-0.9613037109375
12.9499999,-9.80904483795166,-0.3280056416988373,1.8770540952682495,16.2506103515625,-7.537841796875,-1.739501953125
12.969999900000001,-9.749189376831055,-0.49559974670410156,1.7836803197860718,17.6239013671875,-7.0037841796875,-3.021240234375
12.9899999,-9.710882186889648,-0.45010992884635925,1.9081788063049316,12.75634765625,-0.9613037109375,-2.3040771484375
13.0099999,-9.627084732055664,-0.27054479718208313,2.2242133617401123,3.84521484375,1.9073486328125,0
13.0299999,-9.543288230895996,0.009576806798577309,2.5665841102600098,-9.674072265625,4.8980712890625,1.312255859375
13.049999900000001,-9.588777542114258,0.2298433631658554,2.782062292098999,-20.599365234375,10.406494140625,1.251220703125
13.069999900000001,-9.612719535827637,0.3064578175544739,2.7964274883270264,-19.71435546875,9.8114013671875,0.1068115234375
13.0899999,-9.725247383117676,0.17717093229293823,2.5450363159179688,-10.009765625,1.6326904296875,-0.946044921875
13.1099999,-9.852140426635742,-0.07182604819536209,2.118868589401245,2.0751953125,-3.082275390625,-0.9918212890625
13.129999900000001,-9.921571731567383,-0.31603461503982544,1.802833914756775,14.892578125,-7.1868896484375,-1.251220703125
13.149999900000001,-9.830592155456543,-0.4668693244457245,1.6543933153152466,20.843505859375,-9.3536376953125,-2.0751953125
13.1699999,-9.765948295593262,-0.45250412821769714,1.7573440074920654,14.2822265625,-2.6702880859375,-3.47900390625
13.1899999,-9.617507934570312,-0.31842881441116333,2.0422539710998535,4.1961669921875,0.0762939453125,-1.89208984375
13.209999900000001,-9.5408935546875,-0.0694318488240242,2.4444799423217773,-6.4849853515625,2.5787353515625,0.6866455078125
13.229999900000001,-9.526528358459473,0.17717093229293823,2.75812029838562,-19.4091796875,7.8582763671875,1.495361328125
13.2499999,-9.560047149658203,0.2849099934101105,2.875436305999756,-25.0091552734375,12.02392578125,1.1444091796875
13.2699999,-9.655815124511719,0.2753331959247589,2.75812029838562,-16.05224609375,4.8980712890625,-0.06103515625
13.289999900000002,-9.742006301879883,0.06464344263076782,2.410961151123047,-4.3487548828125,-1.678466796875,1.4495849609375
13.309999900000001,-9.86650562286377,-0.2298433631658554,1.8938134908676147,7.5225830078125,-5.584716796875,0.5340576171875
13.3299999,-9.895236015319824,-0.42856210470199585,1.6879122257232666,18.5089111328125,-10.3607177734375,-1.2664794921875
13.3499999,-9.832986831665039,-0.49320554733276367,1.6089035272598267,18.7530517578125,-8.514404296875,-2.044677734375
13.3699999,-9.773131370544434,-0.3663128614425659,1.8794482946395874,7.4920654296875,-1.6021728515625,-1.6632080078125
13.389999900000001,-9.646238327026367,-0.10534487664699554,2.3750481605529785,-6.683349609375,2.655029296875,-0.0152587890625
13.4099999,-9.521739959716797,0.1628057211637497,2.9233202934265137,-24.6734619140625,8.087158203125,2.5177001953125
13.4299999,-9.514557838439941,0.3423708379268646,3.251325845718384,-42.0379638671875,17.7001953125,4.1656494140625
13.4499999,-9.533711433410645,0.31124621629714966,3.251325845718384,-42.022705078125,19.4854736328125,4.1046142578125
13.469999900000001,-9.639056205749512,0.090979665517807,2.8131868839263916,-24.261474609375,8.6822509765625,3.5247802734375
13.4899999,-9.835380554199219,-0.26575639843940735,2.008735179901123,-2.349853515625,-0.335693359375,2.7923583984375
13.5099999,-9.947908401489258,-0.5746083855628967,1.256955862045288,20.3857421875,-9.2010498046875,1.251220703125
13.5299999,-10.002974510192871,-0.6967126727104187,0.8619126081466675,33.2183837890625,-16.6778564453125,-0.5950927734375
13.549999900000001,-9.940725326538086,-0.5650315880775452,0.9313444495201111,27.191162109375,-12.939453125,-2.410888671875
13.569999900000001,-9.835380554199219,-0.2346317619085312,1.4772224426269531,8.8348388671875,-5.340576171875,-2.8533935546875
13.5899999,-9.627084732055664,0.19393034279346466,2.3247697353363037,-13.7786865234375,2.4871826171875,-1.6326904296875
13.6099999,-9.445125579833984,0.5171475410461426,3.1531636714935303,-36.0565185546875,10.528564453125,0.54931640625
13.629999900000001,-9.404424667358398,0.5985504388809204,3.557783842086792,-51.0406494140625,20.0653076171875,0.54931640625
13.649999900000001,-9.411606788635254,0.38067805767059326,3.5051112174987793,-45.1202392578125,20.7366943359375,1.6937255859375
13.6699999,-9.593565940856934,-0.0933738648891449,2.9017724990844727,-19.3634033203125,8.3770751953125,3.021240234375
13.6899999,-9.787496566772461,-0.6272808313369751,1.9800047874450684,8.2244873046875,-2.62451171875,2.9754638671875
13.709999900000001,-9.959878921508789,-0.9433154463768005,1.1899182796478271,30.2886962890625,-10.528564453125,1.8463134765625
13.729999900000001,-10.005369186401367,-0.9648633003234863,0.8355764150619507,34.8052978515625,-16.3726806640625,1.068115234375
13.7499999,-9.93593692779541,-0.629675030708313,1.036689281463623,18.73779296875,-13.0615234375,0.732421875
13.7699999,-9.792284965515137,-0.1149216815829277,1.6639702320098877,-6.9732666015625,-2.166748046875,-1.922607421875
13.789999900000002,-9.57201862335205,0.3711012601852417,2.607285737991333,-31.8603515625,6.40869140625,-3.8299560546875
13.809999900000001,-9.425971984863281,0.6129156351089478,3.354276657104492,-51.7730712890625,17.4560546875,0.030517578125
13.8299999,-9.29189682006836,0.7158663272857666,4.003105163574219,-68.6187744140625,25.4058837890625,3.662109375
13.8499999,-9.23682975769043,0.5578489899635315,4.4077253341674805,-91.094970703125,35.2325439453125,7.1258544921875
13.8699999,-9.258378028869629,0.3974374830722809,4.5154643058776855,-127.0599365234375,51.0406494140625,11.5966796875
13.889999900000001,-9.47146224975586,-0.016759412363171577,3.780444383621216,-147.1099853515625,60.4095458984375,14.617919921875
13.9099999,-9.763554573059082,-0.4644751250743866,2.4684219360351562,-104.3548583984375,42.54150390625,15.0299072265625
13.9299999,-10.139444351196289,-0.9026140570640564,0.7230489253997803,-37.3077392578125,15.4876708984375,17.0135498046875
13.9499999,-10.24239444732666,-1.048660397529602,-0.6368576288223267,-10.589599609375,4.7607421875,18.5394287109375
13.969999900000001,-10.156203269958496,-1.0007762908935547,-1.3862427473068237,-11.3677978515625,-1.0223388671875,13.427734375
13.9899999,-9.59596061706543,-0.9217676520347595,-1.5514427423477173,15.7012939453125,-7.4310302734375,7.232666015625
14.0099999,-9.181763648986816,-0.9385270476341248,-1.2617442607879639,70.068359375,-30.792236328125,1.64794921875
14.0299999,-8.846575736999512,-0.8786720037460327,-0.6871358752250671,89.5233154296875,-36.43798828125,11.77978515625
14.049999900000001,-8.789113998413086,-0.6607996821403503,0.5027823448181152,68.8018798828125,-29.632568359375,11.53564453125
14.069999900000001,-8.939949035644531,0,2.166752576828003,16.2811279296875,-6.9580078125,10.2691650390625
14.0899999,-9.17697525024414,0.751779317855835,3.7469255924224854,-34.7747802734375,20.233154296875,9.6282958984375
14.1099999,-9.59596061706543,1.3431471586227417,4.527435302734375,-65.1092529296875,37.933349609375,3.7384033203125
14.129999900000001,-10.177751541137695,1.3910311460494995,4.036623954772949,-64.5751953125,35.1715087890625,-4.669189453125
14.149999900000001,-10.979808807373047,0.8475474119186401,2.367865562438965,-16.082763671875,10.101318359375,-1.739501953125
14.1699999,-11.456254959106445,0.038307227194309235,0.27054479718208313,50.7049560546875,-21.9879150390625,0.8392333984375
14.1899999,-11.748347282409668,-0.7158663272857666,-1.4389152526855469,92.254638671875,-45.7763671875,2.38037109375
14.209999900000001,-11.425130844116211,-0.8188169598579407,-1.7932571172714233,101.5625,-51.69677734375,-0.6103515625
14.229999900000001,-10.819397926330566,-0.40222588181495667,-0.8619126081466675,64.7125244140625,-44.586181640625,1.03759765625
14.2499999,-10.259154319763184,0.2777273952960968,0.7948749661445618,15.9912109375,-20.4315185546875,-1.9989013671875
14.2699999,-9.591172218322754,0.8164227604866028,2.5450363159179688,3.570556640625,-5.4168701171875,-11.199951171875
14.289999900000002,-9.248801231384277,0.8571242094039917,3.533841609954834,9.27734375,-5.126953125,-3.7994384765625
14.309999900000001,-8.990227699279785,0.5985504388809204,3.869029998779297,23.37646484375,-7.1258544921875,1.7852783203125
14.3299999,-8.853757858276367,0.17717093229293823,3.7158010005950928,31.43310546875,-4.0283203125,0.8087158203125
14.3499999,-8.81784439086914,-0.1149216815829277,3.375824451446533,19.53125,3.1890869140625,3.90625
14.3699999,-8.913613319396973,-0.11971008777618408,3.002328872680664,4.9896240234375,10.19287109375,5.218505859375
14.389999900000001,-9.153033256530762,0.05027823522686958,2.580949544906616,-0.1678466796875,9.918212890625,0.823974609375
14.4099999,-9.5624418258667,0.31124621629714966,2.1308395862579346,1.312255859375,4.2572021484375,-3.021240234375
14.4299999,-9.998186111450195,0.5099649429321289,1.764526605606079,4.9591064453125,-0.5950927734375,-4.119873046875
14.4499999,-10.302249908447266,0.5961562395095825,1.6089035272598267,5.7525634765625,-2.105712890625,-5.0201416015625
14.469999900000001,-10.395624160766602,0.569819986820221,1.721431016921997,1.2664794921875,0.4425048828125,-4.425048828125
14.4899999,-10.27591323852539,0.4596867263317108,1.9704279899597168,-4.3487548828125,4.82177734375,-2.5787353515625
14.5099999,-10.043676376342773,0.30885201692581177,2.233790159225464,-5.6610107421875,8.4228515625,-0.9613037109375
14.5299999,-9.861717224121094,0.14604631066322327,2.3558945655822754,-2.38037109375,9.0179443359375,-0.8392333984375
14.549999900000001,-9.770736694335938,0.0454898327589035,2.3295583724975586,2.838134765625,7.7362060546875,-1.495361328125
14.569999900000001,-9.746794700622559,0.040701430290937424,2.255337953567505,4.5928955078125,7.6751708984375,-2.3345947265625
14.5899999,-9.751583099365234,0.0933738648891449,2.1739351749420166,0.6561279296875,9.674072265625,-2.9449462890625
14.6099999,-9.715670585632324,0.16519992053508759,2.1092917919158936,-4.1046142578125,12.725830078125,-3.173828125
14.629999900000001,-9.660603523254395,0.15322890877723694,1.9800047874450684,-3.47900390625,12.8021240234375,-2.2735595703125
14.649999900000001,-9.66299819946289,0.13168109953403473,1.824381709098816,1.6632080078125,9.1705322265625,-0.30517578125
14.6699999,-9.730035781860352,0.07422025501728058,1.6424223184585571,5.340576171875,5.5999755859375,-0.1373291015625
14.6899999,-9.861717224121094,0.09816227108240128,1.5322890281677246,3.1585693359375,4.7607421875,-1.9073486328125
14.709999900000001,-9.950302124023438,0.23942017555236816,1.5634137392044067,-1.4495849609375,6.378173828125,-6.927490234375
14.729999900000001,-9.995792388916016,0.40940847992897034,1.6328455209732056,-3.2958984375,8.0108642578125,-9.2315673828125
14.7499999,-9.998186111450195,0.5027823448181152,1.7262194156646729,-2.3651123046875,6.256103515625,-6.8359375
14.7699999,-9.99339771270752,0.4572925269603729,1.7932571172714233,-1.495361328125,7.4920654296875,-5.615234375
14.789999900000002,-9.931148529052734,0.2753331959247589,1.824381709098816,-1.15966796875,8.8958740234375,-6.927490234375
14.809999900000001,-9.84495735168457,0.0071826050989329815,1.8076223134994507,0.79345703125,10.7421875,-5.43212890625
14.8299999,-9.639056205749512,-0.2849099934101105,1.7190368175506592,4.94384765625,10.7421875,-3.90625
14.8499999,-9.411606788635254,-0.4692635238170624,1.5682021379470825,9.5367431640625,8.8348388671875,-0.091552734375
14.8699999,-9.191340446472168,-0.6033388376235962,1.3982137441635132,13.3514404296875,7.293701171875,2.166748046875
14.889999900000001,-9.081207275390625,-0.5985504388809204,1.290474772453308,14.801025390625,7.0343017578125,4.150390625
14.9099999,-9.047688484191895,-0.5099649429321289,1.2737152576446533,14.129638671875,8.0413818359375,5.2947998046875
14.9299999,-9.181763648986816,-0.3232172429561615,1.2856862545013428,12.9852294921875,9.27734375,6.011962890625
14.9499999,-9.385271072387695,-0.08140286058187485,1.278503656387329,11.9476318359375,8.1787109375,0.9613037109375
14.969999900000001,-9.718064308166504,0.09576806426048279,1.2401964664459229,12.14599609375,4.7607421875,1.312255859375
14.9899999,-10.017339706420898,0.2968810200691223,1.2018892765045166,11.5509033203125,1.7852783203125,4.33349609375
15.0099999,-10.29746150970459,0.42377370595932007,1.1276689767837524,7.6751708984375,0.091552734375,3.0517578125
15.0299999,-10.493785858154297,0.4812345504760742,1.1492167711257935,3.082275390625,-2.197265625,0.579833984375
15.049999900000001,-10.615890502929688,0.5817909836769104,1.1635819673538208,1.52587890625,-3.662109375,-1.46484375
15.069999900000001,-10.651803016662598,0.6320692300796509,1.2521674633026123,-0.0457763671875,-4.6844482421875,-3.9215087890625
15.0899999,-10.594342231750488,0.5889736413955688,1.3431471586227417,-6.011962890625,-4.7454833984375,-5.645751953125
15.1099999,-10.412383079528809,0.42856210470199585,1.4437036514282227,-8.331298828125,-4.8828125,-2.13623046875
15.129999900000001,-10.168174743652344,0.19393034279346466,1.53707754611969,-3.2806396484375,-4.180908203125,3.2196044921875
15.149999900000001,-9.880870819091797,-0.05027823522686958,1.5682021379470825,1.5716552734375,-3.0670166015625,1.678466796875
15.1699999,-9.634267807006836,-0.1867477297782898,1.6663644313812256,3.23486328125,-1.5411376953125,0.9918212890625
15.1899999,-9.445125579833984,-0.17477671802043915,1.7142484188079834,-0.1678466796875,1.8157958984375,0.91552734375
15.209999900000001,-9.351752281188965,-0.05746084079146385,1.7501614093780518,-3.5552978515625,4.5928955078125,0.518798828125
15.229999900000001,-9.39245319366455,0.08140286058187485,1.6950948238372803,-1.8463134765625,4.4403076171875,-0.8697509765625
15.2499999,-9.593565940856934,0.2059013396501541,1.5322890281677246,2.593994140625,0.4730224609375,-2.532958984375
15.2699999,-9.847352027893066,0.272938996553421,1.3311761617660522,6.195068359375,-6.8206787109375,-3.509521484375
15.289999900000002,-10.137049674987793,0.3495534360408783,1.216254472732544,6.9122314453125,-6.683349609375,-3.0975341796875
15.309999900000001,-10.292673110961914,0.3280056416988373,1.259350061416626,2.3040771484375,-4.7149658203125,-4.45556640625
15.3299999,-10.335768699645996,0.26815059781074524,1.4508862495422363,-2.3193359375,-1.3427734375,-4.241943359375
15.3499999,-10.259154319763184,0.14604631066322327,1.7262194156646729,-2.44140625,1.7242431640625,-1.6326904296875
15.3699999,-10.096348762512207,0.011971008032560349,1.9321208000183105,-2.5177001953125,4.5623779296875,0.8392333984375
15.389999900000001,-9.926360130310059,-0.08379705995321274,1.987187385559082,-2.0904541015625,6.6070556640625,1.8310546875
15.4099999,-9.81143856048584,-0.21787235140800476,1.7142484188079834,3.7689208984375,5.5084228515625,0.6256103515625
15.4299999,-9.80904483795166,-0.23942017555236816,1.3551181554794312,22.3846435546875,-2.2735595703125,0.0457763671875
15.4499999,-10.000580787658691,-0.2106897532939911,0.9744400978088379,36.7584228515625,-11.1541748046875,-0.9765625
15.469999900000001,-10.098742485046387,-0.011971008032560349,0.8307880163192749,32.0281982421875,-10.498046875,-7.171630859375
15.4899999,-10.342951774597168,0.3758896589279175,1.115697979927063,15.960693359375,-5.06591796875,-5.950927734375
15.5099999,-10.465055465698242,0.7134721279144287,1.5729905366897583,-4.7607421875,1.3580322265625,-8.6822509765625
15.5299999,-10.548852920532227,0.9528923034667969,2.0661959648132324,-18.890380859375,7.0648193359375,-13.48876953125
15.549999900000001,-10.431536674499512,0.9026140570640564,2.3080103397369385,-19.34814453125,9.796142578125,-10.711669921875
15.569999900000001,-10.445901870727539,0.5650315880775452,2.123656988143921,-8.0718994140625,6.5155029296875,3.7384033203125
15.5899999,-10.029311180114746,0.0694318488240242,1.742978811264038,11.0931396484375,-4.7454833984375,-3.8604736328125
15.6099999,-9.823410034179688,-0.38307225704193115,1.280897855758667,26.6265869140625,-9.8419189453125,-9.4451904296875
15.629999900000001,-9.550470352172852,-0.5267243981361389,1.290474772453308,14.404296875,5.706787109375,-8.0413818359375
15.649999900000001,-9.600749015808105,-0.26336219906806946,1.7477672100067139,-5.6610107421875,-3.6163330078125,-8.392333984375
15.6699999,-9.916783332824707,0.038307227194309235,2.140416383743286,-16.78466796875,0.54931640625,-8.636474609375
15.6899999,-10.160991668701172,0.13407529890537262,2.3056161403656006,-17.9443359375,16.693115234375,-9.2620849609375
15.709999900000001,-10.251971244812012,0.12449848651885986,2.205059766769409,-11.90185546875,12.847900390625,-6.378173828125
15.729999900000001,-10.321403503417969,0,1.845929503440857,-3.936767578125,8.9569091796875,-4.058837890625
15.7499999,-10.292673110961914,-0.1412578970193863,1.37906014919281,3.631591796875,8.2550048828125,-9.5672607421875
15.7699999,-10.160991668701172,-0.22744916379451752,1.0462661981582642,8.8653564453125,0.1373291015625,-13.48876953125
15.789999900000002,-10.000580787658691,-0.30885201692581177,0.8810662031173706,9.82666015625,-3.021240234375,-9.368896484375
15.809999900000001,-9.763554573059082,-0.37828385829925537,0.8786720037460327,8.056640625,4.2266845703125,-3.692626953125
15.8299999,-9.466673851013184,-0.33758243918418884,1.1444283723831177,6.04248046875,10.9405517578125,-2.1209716796875
15.8499999,-9.265560150146484,-0.35434186458587646,1.280897855758667,-3.8299560546875,18.951416015625,-1.556396484375
15.869999900000002,-9.217676162719727,-0.31842881441116333,1.3934253454208374,-5.55419921875,24.749755859375,1.4495849609375
15.889999900000001,-9.399636268615723,-0.33758243918418884,1.256955862045288,5.4473876953125,17.608642578125,3.0670166015625
15.9099999,-9.701305389404297,-0.3998316824436188,1.0127472877502441,16.387939453125,-1.2359619140625,-3.1280517578125
15.9299999,-9.981427192687988,-0.49799394607543945,0.7709329724311829,23.0865478515625,-11.2762451171875,-11.810302734375
15.9499999,-10.053253173828125,-0.5985504388809204,0.7086837291717529,23.956298828125,-9.6893310546875,-9.796142578125
15.969999900000001,-9.885659217834473,-0.6751648783683777,0.8188169598579407,20.01953125,1.0833740234375,-1.7547607421875
15.9899999,-9.57441234588623,-0.6991068720817566,1.0127472877502441,13.763427734375,13.9312744140625,2.166748046875
16.0099999,-9.296685218811035,-0.6584054827690125,1.1899182796478271,7.1563720703125,19.1192626953125,1.3427734375
16.0299999,-9.148244857788086,-0.5386953949928284,1.290474772453308,0.5950927734375,16.4031982421875,-1.434326171875
16.0499999,-9.126696586608887,-0.4357447028160095,1.278503656387329,-4.913330078125,13.5955810546875,-6.8817138671875
16.0699999,-9.205705642700195,-0.3734954595565796,1.1803414821624756,-6.6070556640625,17.1356201171875,-8.4686279296875
16.089999900000002,-9.366117477416992,-0.35673606395721436,1.0223240852355957,-5.462646484375,18.06640625,-3.9215087890625
16.109999900000002,-9.59835433959961,-0.3758896589279175,0.828393816947937,-2.777099609375,15.3045654296875,0.3509521484375
16.1299999,-9.890447616577148,-0.38307225704193115,0.6416460275650024,1.5716552734375,11.5814208984375,-2.4566650390625
16.1499999,-10.139444351196289,-0.3758896589279175,0.5386953949928284,6.2255859375,4.852294921875,-8.5601806640625
16.1699999,-10.311826705932617,-0.3663128614425659,0.5147533416748047,10.1165771484375,4.730224609375,-9.1094970703125
16.1899999,-10.359710693359375,-0.35434186458587646,0.5817909836769104,12.4969482421875,8.3465576171875,-6.866455078125
16.2099999,-10.321403503417969,-0.35673606395721436,0.6775590777397156,12.603759765625,7.5225830078125,-7.9193115234375
16.2299999,-10.216058731079102,-0.35673606395721436,0.7326257228851318,12.298583984375,1.0528564453125,-7.843017578125
16.249999900000002,-9.995792388916016,-0.3519476354122162,1.0414776802062988,12.1917724609375,7.7667236328125,-4.669189453125
16.269999900000002,-9.964667320251465,-0.37828385829925537,1.0462661981582642,13.12255859375,37.7655029296875,-8.7432861328125
16.2899999,-9.911994934082031,-0.37828385829925537,1.2665326595306396,10.9710693359375,22.0184326171875,-19.866943359375
16.3099999,-9.938331604003906,-0.4596867263317108,1.3048399686813354,3.4027099609375,-10.68115234375,-21.66748046875
16.3299999,-9.967061996459961,-0.5291185975074768,1.3311761617660522,-1.3275146484375,-13.2293701171875,-9.09423828125
16.3499999,-9.849745750427246,-0.646434485912323,1.4173674583435059,-3.90625,-3.082275390625,-2.3040771484375
16.3699999,-9.6989107131958,-0.7469909191131592,1.525106430053711,-7.8125,-1.3427734375,-0.885009765625
16.3899999,-9.641449928283691,-0.8044517636299133,1.556231141090393,-12.5732421875,-0.3662109375,-2.0751953125
16.4099999,-9.651026725769043,-0.8643068075180054,1.482010841369629,-14.373779296875,0,-7.3089599609375
16.429999900000002,-9.713275909423828,-0.9097966551780701,1.2952631711959839,-10.8184814453125,0.1678466796875,-8.1634521484375
16.4499999,-9.765948295593262,-0.9576807022094727,1.0127472877502441,-3.875732421875,2.86865234375,-4.9285888671875
16.4699999,-9.787496566772461,-0.9864110946655273,0.730231523513794,2.38037109375,3.7994384765625,-2.4871826171875
16.4899999,-9.84495735168457,-0.950498104095459,0.4668693244457245,7.6141357421875,6.7596435546875,0.5340576171875
16.5099999,-9.99339771270752,-0.828393816947937,0.31364041566848755,11.8408203125,1.3885498046875,3.662109375
16.5299999,-10.266336441040039,-0.6272808313369751,0.26815059781074524,12.5274658203125,-12.6190185546875,2.5634765625
16.5499999,-10.520122528076172,-0.3902548849582672,0.3687070608139038,9.70458984375,-26.641845703125,-3.6773681640625
16.5699999,-10.613495826721191,-0.19632454216480255,0.5889736413955688,5.126953125,-27.6031494140625,-10.6353759765625
16.589999900000002,-10.445901870727539,-0.10055647045373917,0.871489405632019,0.946044921875,-12.298583984375,-13.24462890625
16.609999900000002,-10.036493301391602,-0.1604115068912506,1.1085153818130493,-3.173828125,4.913330078125,-10.955810546875
16.6299999,-9.543288230895996,-0.36152446269989014,1.216254472732544,-8.2244873046875,7.14111328125,-4.1351318359375
16.6499999,-9.126696586608887,-0.6129156351089478,1.194706678390503,-12.115478515625,-6.9427490234375,5.767822265625
16.6699999,-8.848969459533691,-0.8619126081466675,1.1061211824417114,-13.0767822265625,-19.5465087890625,14.4500732421875
16.6899999,-8.757989883422852,-1.0127472877502441,1.0438719987869263,-11.5814208984375,-19.2413330078125,18.2647705078125
16.7099999,-8.813055992126465,-1.0582371950149536,1.0582371950149536,-9.09423828125,-13.12255859375,18.096923828125
16.7299999,-8.995016098022461,-1.0055646896362305,1.1300631761550903,-8.11767578125,-13.7939453125,17.547607421875
16.749999900000002,-9.229647636413574,-0.8571242094039917,1.2449848651885986,-8.7432861328125,-17.3492431640625,15.777587890625
16.769999900000002,-9.433155059814453,-0.6943184733390808,1.335964560508728,-9.6893310546875,-11.4898681640625,11.932373046875
16.7899999,-9.576807022094727,-0.5410895943641663,1.4077905416488647,-10.711669921875,-5.9356689453125,12.7410888671875
16.8099999,-9.6989107131958,-0.40701428055763245,1.4317326545715332,-12.3748779296875,-4.2877197265625,16.29638671875
16.8299999,-9.801861763000488,-0.3519476354122162,1.37906014919281,-12.6190185546875,-0.7476806640625,12.8631591796875
16.8499999,-9.928754806518555,-0.3711012601852417,1.2713210582733154,-9.918212890625,2.0294189453125,7.4005126953125
16.8699999,-10.103530883789062,-0.42616790533065796,1.113303780555725,-5.9814453125,-1.7852783203125,9.2926025390625
16.8899999,-10.251971244812012,-0.49320554733276367,0.9864110946655273,-1.9073486328125,-11.3525390625,12.1612548828125
16.9099999,-10.35252857208252,-0.5410895943641663,0.9217676520347595,1.5716552734375,-12.5274658203125,9.7503662109375
16.929999900000002,-10.333374977111816,-0.5386953949928284,0.9385270476341248,3.9520263671875,-6.744384765625,9.735107421875
16.9499999,-10.211270332336426,-0.45250412821769714,1.048660397529602,4.180908203125,-4.1351318359375,16.937255859375
16.9699999,-10.034099578857422,-0.3016694188117981,1.1851298809051514,1.129150390625,0.823974609375,20.4315185546875
16.9899999,-9.849745750427246,-0.13168109953403473,1.3024457693099976,-2.899169921875,7.0648193359375,17.0745849609375
17.0099999,-9.708487510681152,0.047884032130241394,1.400607943534851,-5.9967041015625,7.354736328125,20.99609375
17.0299999,-9.813833236694336,0.22026655077934265,1.4389152526855469,-10.1165771484375,9.3231201171875,29.052734375
17.0499999,-10.32858657836914,0.24899697303771973,1.4317326545715332,-13.85498046875,12.6495361328125,16.3116455078125
17.0699999,-10.536881446838379,0.2585737705230713,1.3718775510787964,-13.885498046875,-2.532958984375,-17.5018310546875
17.089999900000002,-11.14500904083252,0.12689268589019775,1.2952631711959839,-7.7667236328125,-0.1678466796875,3.23486328125
17.109999900000002,-10.884040832519531,0.06703764945268631,1.1994950771331787,-2.5177001953125,-1.6937255859375,6.195068359375
17.1299999,-10.682928085327148,0.033518824726343155,1.1204863786697388,2.8533935546875,-3.23486328125,2.99072265625
17.1499999,-10.160991668701172,0.05267243832349777,1.091755986213684,7.8887939453125,-5.9814453125,-3.23486328125
17.1699999,-9.849745750427246,0.17238251864910126,1.091755986213684,7.8277587890625,-5.767822265625,-3.570556640625
17.1899999,-9.672574996948242,0.2322375625371933,1.1252747774124146,4.6234130859375,-5.9051513671875,-2.86865234375
17.2099999,-9.658209800720215,0.24420857429504395,1.1683704853057861,2.227783203125,-6.9122314453125,-3.23486328125
17.2299999,-9.739612579345703,0.17477671802043915,1.1563993692398071,2.9754638671875,-8.6212158203125,-2.899169921875
17.249999900000002,-9.847352027893066,0.11013327538967133,1.1635819673538208,8.1024169921875,-11.53564453125,-2.3040771484375
17.269999900000002,-9.909601211547852,0.05506663769483566,1.3431471586227417,12.5579833984375,-12.5274658203125,-2.8076171875
17.2899999,-9.907206535339355,0.06464344263076782,1.6400281190872192,6.9580078125,-6.89697265625,-3.3721923828125
17.3099999,-9.856928825378418,0.14365209639072418,1.9967641830444336,-2.50244140625,1.1749267578125,-3.4332275390625
17.3299999,-9.775525093078613,0.17717093229293823,2.2433669567108154,-7.26318359375,3.5552978515625,-3.5858154296875
17.3499999,-9.744400978088379,0.15801730751991272,2.2649147510528564,-7.4310302734375,3.143310546875,-3.570556640625
17.3699999,-9.782708168029785,0.0933738648891449,2.1332337856292725,-8.636474609375,3.1280517578125,-2.62451171875
17.3899999,-9.852140426635742,0.028730420395731926,1.9273324012756348,-15.625,3.6468505859375,-0.1983642578125
17.409999900000003,-9.938331604003906,-0.035913024097681046,1.8148049116134644,-22.52197265625,4.180908203125,-0.1220703125
17.429999900000002,-9.86650562286377,-0.035913024097681046,1.7166426181793213,-22.4761962890625,5.67626953125,-1.953125
17.4499999,-9.847352027893066,-0.05985504388809204,1.6687586307525635,-19.1192626953125,9.7808837890625,-5.0048828125
17.4699999,-9.787496566772461,-0.1149216815829277,1.381454348564148,-10.4217529296875,10.0555419921875,-6.622314453125
17.4899999,-9.823410034179688,-0.14844051003456116,1.1324573755264282,3.814697265625,4.39453125,-3.23486328125
17.5099999,-9.983820915222168,-0.12928688526153564,0.7924807667732239,12.2833251953125,-3.692626953125,-0.885009765625
17.5299999,-10.192116737365723,-0.12210428714752197,0.5171475410461426,12.420654296875,-10.284423828125,0.2593994140625
17.5499999,-10.244789123535156,-0.0694318488240242,0.4596867263317108,14.0380859375,-20.3857421875,-3.9520263671875
17.5699999,-10.254365921020508,-0.05746084079146385,0.5841852426528931,19.7906494140625,-23.223876953125,-8.544921875
17.589999900000002,-9.979032516479492,-0.033518824726343155,1.0103530883789062,18.2952880859375,-17.8985595703125,-10.3759765625
17.609999900000002,-9.801861763000488,-0.06703764945268631,1.4437036514282227,10.1318359375,-6.16455078125,-10.2081298828125
17.6299999,-9.634267807006836,-0.07422025501728058,1.9752163887023926,4.39453125,-2.9144287109375,-3.8604736328125
17.6499999,-9.672574996948242,-0.043095629662275314,2.322375535964966,5.1116943359375,-5.79833984375,2.9449462890625
17.6699999,-9.684545516967773,-0.08379705995321274,2.564189910888672,2.9754638671875,-8.1024169921875,0.1220703125
17.6899999,-9.682151794433594,-0.0071826050989329815,2.6431987285614014,-5.126953125,-1.5411376953125,-8.6669921875
17.7099999,-9.646238327026367,-0.11252748221158981,2.52109432220459,-5.8441162109375,3.936767578125,-10.406494140625
17.7299999,-9.667786598205566,-0.19393034279346466,2.252943754196167,1.3275146484375,5.828857421875,-8.9569091796875
17.749999900000002,-9.732429504394531,-0.3256114423274994,1.8363527059555054,6.6070556640625,3.6468505859375,-0.8697509765625
17.769999900000002,-9.981427192687988,-0.4213795065879822,1.4173674583435059,6.53076171875,-1.373291015625,3.204345703125
17.7899999,-10.050858497619629,-0.45489832758903503,1.1420341730117798,9.2315673828125,-12.451171875,0.4730224609375
17.8099999,-10.113107681274414,-0.42856210470199585,0.9911994934082031,16.7999267578125,-17.7154541015625,-5.06591796875
17.8299999,-9.988609313964844,-0.5219359993934631,1.015141487121582,22.003173828125,-16.7083740234375,-5.37109375
17.8499999,-9.840168952941895,-0.47405192255973816,1.2425906658172607,20.6298828125,-11.53564453125,-4.3182373046875
17.8699999,-9.732429504394531,-0.3998316824436188,1.5969325304031372,15.7012939453125,-9.185791015625,3.3111572265625
17.8899999,-9.737217903137207,-0.2082955539226532,2.0685901641845703,5.859375,-10.345458984375,7.049560546875
17.909999900000003,-9.701305389404297,0.026336219161748886,2.557007312774658,-7.659912109375,-10.92529296875,3.5400390625
17.929999900000002,-9.691728591918945,0.14844051003456116,2.808398485183716,-15.869140625,-4.638671875,-4.2724609375
17.9499999,-9.612719535827637,0.07422025501728058,2.9688100814819336,-12.359619140625,1.64794921875,-3.9215087890625
17.9699999,-9.533711433410645,-0.07182604819536209,2.829946517944336,-6.3018798828125,5.3558349609375,-2.044677734375
17.9899999,-9.59596061706543,-0.2849099934101105,2.4899697303771973,-4.791259765625,6.5155029296875,5.279541015625
18.0099999,-9.684545516967773,-0.38307225704193115,2.140416383743286,-3.021240234375,2.349853515625,7.781982421875
18.0299999,-9.84495735168457,-0.35913026332855225,1.824381709098816,2.8839111328125,-7.8277587890625,5.4931640625
18.0499999,-9.864110946655273,-0.304063618183136,1.7118542194366455,5.3253173828125,-10.1470947265625,-1.52587890625
18.0699999,-9.847352027893066,-0.12210428714752197,1.8267759084701538,2.01416015625,-2.655029296875,-3.1890869140625
18.089999900000002,-9.715670585632324,0.002394201699644327,2.0470423698425293,-3.6468505859375,4.913330078125,-7.232666015625
18.109999900000002,-9.684545516967773,0.06703764945268631,2.298433542251587,-6.34765625,8.30078125,-2.8533935546875
18.1299999,-9.694122314453125,0.09576806426048279,2.4229321479797363,-7.7667236328125,5.5694580078125,2.8533935546875
18.1499999,-9.787496566772461,-0.06703764945268631,2.3726539611816406,-8.270263671875,1.068115234375,5.096435546875
18.1699999,-9.785101890563965,-0.22505496442317963,2.2242133617401123,-3.4332275390625,-1.983642578125,-3.326416015625
18.1899999,-9.825803756713867,-0.42616790533065796,2.0039467811584473,6.1798095703125,-1.46484375,-3.23486328125
18.2099999,-9.763554573059082,-0.4812345504760742,1.843535304069519,9.6893310546875,0.3509521484375,-2.5634765625
18.2299999,-9.758766174316406,-0.4189853072166443,1.7741034030914307,5.0048828125,3.2501220703125,1.2359619140625
18.249999900000002,-9.799467086791992,-0.23702596127986908,1.7357962131500244,-0.2593994140625,0.42724609375,3.082275390625
18.269999900000002,-9.84256362915039,-0.040701430290937424,1.8746598958969116,-2.8533935546875,-6.16455078125,2.960205078125
18.2899999,-9.806650161743164,0.05267243832349777,1.9512743949890137,-6.4239501953125,-7.8887939453125,-5.06591796875
18.3099999,-9.80904483795166,-0.06464344263076782,2.0853497982025146,-6.011962890625,-1.922607421875,-4.7607421875
18.3299999,-9.684545516967773,-0.272938996553421,2.1547815799713135,-0.1068115234375,1.0528564453125,-3.753662109375
18.3499999,-9.694122314453125,-0.5434837937355042,2.1739351749420166,4.364013671875,2.44140625,3.9215087890625
18.3699999,-9.643844604492188,-0.5770025849342346,2.097320795059204,3.4942626953125,-0.0762939453125,10.406494140625
18.3899999,-9.816226959228516,-0.5410895943641663,2.049436569213867,1.5411376953125,-5.4779052734375,10.9710693359375
18.409999900000003,-9.77791976928711,-0.23942017555236816,2.0925323963165283,0.6103515625,-9.46044921875,-1.4495849609375
18.429999900000002,-9.84256362915039,0.028730420395731926,2.1930887699127197,-1.3885498046875,-3.4637451171875,-3.4027099609375
18.4499999,-9.713275909423828,0.22505496442317963,2.38462495803833,-6.011962890625,2.349853515625,-4.39453125
18.4699999,-9.66539192199707,0.29209262132644653,2.4875755310058594,-10.6353759765625,8.36181640625,-2.532958984375
18.4899999,-9.624691009521484,0.19153612852096558,2.4636335372924805,-10.711669921875,6.561279296875,1.2054443359375
18.5099999,-9.732429504394531,0.031124621629714966,2.322375535964966,-5.4168701171875,-0.1220703125,4.547119140625
18.5299999,-9.751583099365234,-0.2106897532939911,2.1116859912872314,2.4871826171875,-7.3089599609375,-2.8228759765625
18.5499999,-9.837775230407715,-0.3687070608139038,1.9369091987609863,11.8865966796875,-4.638671875,-4.608154296875
18.5699999,-9.782708168029785,-0.5051765441894531,1.886630892753601,17.39501953125,-2.4566650390625,-3.90625
18.589999900000002,-9.730035781860352,-0.3902548849582672,1.9560627937316895,10.19287109375,1.953125,0.091552734375
18.609999900000002,-9.68694019317627,-0.2322375625371933,2.049436569213867,-4.364013671875,3.0975341796875,3.0059814453125
18.6299999,-9.761159896850586,0.011971008032560349,2.190694570541382,-11.3067626953125,0.9307861328125,3.0517578125
18.6499999,-9.751583099365234,0.10055647045373917,2.2385785579681396,-7.5225830078125,-6.8511962890625,-4.69970703125
18.6699999,-9.775525093078613,0.002394201699644327,2.2409727573394775,-1.1138916015625,-4.1046142578125,-4.8370361328125
18.6899999,-9.732429504394531,-0.21308395266532898,2.1547815799713135,4.1046142578125,-1.8157958984375,-3.0364990234375
18.7099999,-9.684545516967773,-0.3926490843296051,2.188300371170044,3.8299560546875,1.220703125,-0.762939453125
18.7299999,-9.643844604492188,-0.47884035110473633,2.2026655673980713,-2.9449462890625,1.8768310546875,4.486083984375
18.749999900000002,-9.770736694335938,-0.3663128614425659,2.296039342880249,-10.406494140625,1.0986328125,8.819580078125
18.769999900000002,-9.725247383117676,-0.30885201692581177,2.3247697353363037,-9.429931640625,-5.55419921875,3.5858154296875
18.7899999,-9.770736694335938,-0.1843535304069519,2.363077163696289,-2.2125244140625,-4.5013427734375,-2.410888671875
18.8099999,-9.682151794433594,-0.23702596127986908,2.293645143508911,4.486083984375,-1.983642578125,-1.8310546875
18.8299999,-9.639056205749512,-0.12689268589019775,2.360682964324951,3.1585693359375,2.960205078125,0.030517578125
18.8499999,-9.622296333312988,-0.14844051003456116,2.3511061668395996,-3.631591796875,6.16455078125,3.387451171875
18.8699999,-9.725247383117676,0.05027823522686958,2.406172752380371,-8.087158203125,5.55419921875,4.5013427734375
18.8899999,-9.75397777557373,0.05985504388809204,2.387019157409668,-6.6375732421875,-2.593994140625,2.1514892578125
18.909999900000003,-9.804255485534668,0.1173158809542656,2.2697031497955322,-2.4261474609375,-2.8228759765625,-4.730224609375
18.929999900000002,-9.775525093078613,-0.035913024097681046,2.183511972427368,5.0201416015625,-0.4425048828125,-5.828857421875
18.9499999,-9.68933391571045,-0.13407529890537262,2.142810583114624,7.598876953125,1.495361328125,-5.4168701171875
18.9699999,-9.66299819946289,-0.2753331959247589,2.145204782485962,2.2735595703125,5.1422119140625,1.0528564453125
18.9899999,-9.718064308166504,-0.2777273952960968,2.1978771686553955,-3.84521484375,4.669189453125,4.638671875
19.0099999,-9.737217903137207,-0.26575639843940735,2.2673089504241943,-4.1046142578125,-2.471923828125,4.638671875
19.0299999,-9.770736694335938,-0.26096799969673157,2.1595699787139893,-2.6702880859375,-4.57763671875,-3.2196044921875
19.0499999,-9.758766174316406,-0.21787235140800476,2.10210919380188,1.556396484375,-1.15966796875,-3.5858154296875
19.0699999,-9.691728591918945,-0.2753331959247589,1.9991583824157715,6.5155029296875,-1.251220703125,-4.4097900390625
19.089999900000002,-9.6989107131958,-0.18914192914962769,2.051830768585205,3.3721923828125,1.708984375,0.640869140625
19.109999900000002,-9.725247383117676,-0.15801730751991272,2.1116859912872314,-5.279541015625,1.7547607421875,4.150390625
19.1299999,-9.840168952941895,-0.07422025501728058,2.1978771686553955,-6.77490234375,-2.7313232421875,5.2337646484375
19.1499999,-9.780313491821289,-0.07422025501728058,2.2625205516815186,-0.9918212890625,-9.063720703125,-3.72314453125
19.1699999,-9.813833236694336,-0.13407529890537262,2.207453966140747,5.06591796875,-5.8746337890625,-4.1351318359375
19.1899999,-9.6989107131958,-0.17717093229293823,2.319981336593628,6.3018798828125,-2.5177001953125,-3.5400390625
19.2099999,-9.653421401977539,-0.2106897532939911,2.3989901542663574,1.3275146484375,3.2196044921875,-0.42724609375
19.2299999,-9.581595420837402,-0.12928688526153564,2.580949544906616,-7.415771484375,5.1116943359375,3.2501220703125
19.249999900000002,-9.703699111938477,-0.10295066982507706,2.693476915359497,-13.3056640625,5.523681640625,6.53076171875
19.269999900000002,-9.634267807006836,-0.026336219161748886,2.6192567348480225,-12.14599609375,-0.7476806640625,-1.3427734375
19.2899999,-9.694122314453125,-0.1412578970193863,2.451662540435791,-3.4637451171875,0.5035400390625,-5.2947998046875
19.3099999,-9.691728591918945,-0.21547815203666687,2.2457611560821533,6.927490234375,0.457763671875,-4.82177734375
19.3299999,-9.648633003234863,-0.26336219906806946,2.1284453868865967,7.3394775390625,3.23486328125,-2.3345947265625
19.3499999,-9.641449928283691,-0.2753331959247589,2.121262788772583,-1.8157958984375,5.7373046875,1.7242431640625
19.3699999,-9.765948295593262,-0.17956513166427612,2.142810583114624,-6.0272216796875,4.150390625,3.143310546875
19.3899999,-9.806650161743164,-0.22266076505184174,2.0685901641845703,4.852294921875,-7.01904296875,-4.45556640625
19.409999900000003,-9.775525093078613,-0.26815059781074524,2.123656988143921,8.72802734375,-3.631591796875,-3.2501220703125
19.429999900000002,-9.703699111938477,-0.363918662071228,2.229001760482788,6.378173828125,0.1220703125,-2.716064453125
19.4499999,-9.622296333312988,-0.3016694188117981,2.4827871322631836,-4.638671875,5.7220458984375,3.2196044921875
19.4699999,-9.643844604492188,-0.22026655077934265,2.6599581241607666,-15.777587890625,8.1329345703125,7.0037841796875
19.4899999,-9.634267807006836,-0.1149216815829277,2.6886885166168213,-16.571044921875,2.4566650390625,6.1492919921875
19.5099999,-9.674968719482422,-0.06703764945268631,2.5474305152893066,-10.07080078125,-1.2664794921875,-3.021240234375
19.5299999,-9.751583099365234,-0.13407529890537262,2.2888567447662354,-0.9765625,0.4730224609375,-2.471923828125
19.5499999,-9.730035781860352,-0.1843535304069519,2.1068975925445557,5.1727294921875,-0.0152587890625,-2.50244140625
19.5699999,-9.739612579345703,-0.23942017555236816,2.051830768585205,2.5634765625,4.486083984375,0.579833984375
19.589999900000002,-9.725247383117676,-0.22266076505184174,2.0398597717285156,-4.150390625,4.39453125,2.01416015625
19.609999900000002,-9.792284965515137,-0.15322890877723694,2.0925323963165283,-3.662109375,-0.732421875,4.39453125
19.6299999,-9.737217903137207,-0.13168109953403473,2.1356279850006104,1.678466796875,-7.9345703125,-4.1351318359375
19.6499999,-9.797073364257812,-0.15801730751991272,2.166752576828003,5.889892578125,-3.143310546875,-5.1422119140625
19.6699999,-9.66539192199707,-0.1604115068912506,2.276885747909546,6.195068359375,-0.274658203125,-4.9285888671875
19.6899999,-9.636661529541016,-0.21547815203666687,2.456450939178467,-0.18310546875,6.16455078125,-2.899169921875
19.7099999,-9.514557838439941,-0.19871874153614044,2.499546527862549,-8.392333984375,8.392333984375,0.6561279296875
19.7299999,-9.730035781860352,-0.19393034279346466,2.5043349266052246,-9.3841552734375,5.2947998046875,4.669189453125
19.749999900000002,-9.667786598205566,-0.2537853717803955,2.3726539611816406,-2.0294189453125,-5.92041015625,-0.640869140625
19.769999900000002,-9.825803756713867,-0.30885201692581177,2.209848165512085,5.6304931640625,-4.2572021484375,-3.72314453125
19.7899999,-9.768342971801758,-0.3734954595565796,2.1523873805999756,8.23974609375,-1.495361328125,-2.471923828125
19.8099999,-9.718064308166504,-0.43095630407333374,2.166752576828003,2.593994140625,2.471923828125,-2.4871826171875
19.8299999,-9.643844604492188,-0.33518823981285095,2.2649147510528564,-7.2021484375,5.4473876953125,2.13623046875
19.8499999,-9.734824180603027,-0.2513911724090576,2.3056161403656006,-14.5263671875,5.035400390625,5.37109375
19.8699999,-9.720458984375,-0.17956513166427612,2.3104045391082764,-11.77978515625,-2.6702880859375,4.9285888671875
19.8899999,-9.78989028930664,-0.20111294090747833,2.140416383743286,-1.4190673828125,-6.2408447265625,-2.716064453125
19.909999900000003,-9.780313491821289,-0.3016694188117981,2.0638017654418945,11.5509033203125,-6.1187744140625,-2.4261474609375
19.929999900000002,-9.6989107131958,-0.3471592366695404,1.9943699836730957,14.5721435546875,-4.7149658203125,-1.6021728515625
19.9499999,-9.682151794433594,-0.31124621629714966,2.1499931812286377,5.279541015625,2.1514892578125,1.52587890625
19.9699999,-9.619902610778809,-0.2106897532939911,2.3127987384796143,-6.0882568359375,2.01416015625,1.678466796875
19.9899999,-9.72285270690918,-0.07422025501728058,2.5043349266052246,-10.7574462890625,-0.5035400390625,5.157470703125
20.0099999,-9.643844604492188,-0.009576806798577309,2.5929205417633057,-8.6212158203125,-4.08935546875,-2.3193359375
20.0299999,-9.749189376831055,-0.06703764945268631,2.559401512145996,-2.410888671875,0.48828125,-4.547119140625
20.0499999,-9.653421401977539,-0.1364694982767105,2.5043349266052246,1.983642578125,1.6021728515625,-4.3182373046875
20.0699999,-9.696516990661621,-0.181959331035614,2.451662540435791,-0.8392333984375,7.568359375,-0.5645751953125
20.089999900000002,-9.677363395690918,-0.2992752194404602,2.300827741622925,-5.06591796875,5.3863525390625,1.3427734375
20.109999900000002,-9.804255485534668,-0.3064578175544739,2.1739351749420166,-4.4097900390625,0.8392333984375,4.8065185546875
