# Time (seconds),Accel_X,Accel_Y,Accel_Z,Gyro_X,Gyro_Y,Gyro_Z
0.0099999,0.7972691655158997,-9.86650562286377,0.9361328482627869,-1.2664794921875,1.5869140625,0.06103515625
0.029999900000000003,0.7733271718025208,-9.86650562286377,0.9528923034667969,-1.52587890625,2.1209716796875,-0.1678466796875
0.0499999,0.7326257228851318,-9.861717224121094,0.9528923034667969,-0.5340576171875,1.0223388671875,-0.67138671875
0.0699999,0.7086837291717529,-9.854534149169922,0.9528923034667969,-0.0152587890625,-0.0152587890625,-1.434326171875
0.08999990000000001,0.7182605266571045,-9.84256362915039,0.9624691009521484,1.1749267578125,-0.5035400390625,-1.2054443359375
0.10999990000000001,0.7422025203704834,-9.84495735168457,0.9624691009521484,0.8697509765625,-0.457763671875,0.335693359375
0.1299999,0.7733271718025208,-9.849745750427246,0.9576807022094727,-0.1373291015625,0.701904296875,0.6561279296875
0.14999990000000002,0.7805097699165344,-9.859322547912598,0.9481038451194763,-1.5106201171875,2.13623046875,-0.091552734375
0.1699999,0.7637503147125244,-9.86889934539795,0.9313444495201111,-1.8310546875,2.0751953125,-0.396728515625
0.1899999,0.7398083209991455,-9.861717224121094,0.9409212470054626,-0.1983642578125,0.8087158203125,-0.640869140625
0.20999990000000002,0.7230489253997803,-9.852140426635742,0.950498104095459,0.8087158203125,-0.5035400390625,-0.9765625
0.2299999,0.727837324142456,-9.849745750427246,0.9576807022094727,0.8087158203125,-0.7781982421875,-0.762939453125
0.2499999,0.7469909191131592,-9.849745750427246,0.9672574996948242,0.640869140625,0.1220703125,-0.1678466796875
0.2699999,0.768538773059845,-9.859322547912598,0.9481038451194763,-0.7781982421875,1.2969970703125,0.0152587890625
0.28999990000000003,0.7781155705451965,-9.871294021606445,0.9313444495201111,-1.708984375,1.983642578125,-0.18310546875
0.3099999,0.7733271718025208,-9.86889934539795,0.9361328482627869,-0.8544921875,1.678466796875,-0.06103515625
0.3299999,0.7852981686592102,-9.856928825378418,0.9552865028381348,0.4119873046875,0.1983642578125,0.152587890625
0.34999990000000003,0.8020575642585754,-9.859322547912598,0.9552865028381348,0.701904296875,-0.54931640625,0.8087158203125
0.3699999,0.7972691655158997,-9.852140426635742,0.9672574996948242,0.5950927734375,0.42724609375,1.983642578125
0.3899999,0.751779317855835,-9.856928825378418,0.9552865028381348,-0.18310546875,1.52587890625,1.2664794921875
0.40999990000000003,0.646434485912323,-9.861717224121094,0.9241618514060974,-2.105712890625,1.678466796875,-1.1444091796875
0.4299999,0.5674257874488831,-9.840168952941895,0.9528923034667969,-1.46484375,1.7547607421875,-4.0435791015625
0.4499999,0.5722141861915588,-9.832986831665039,0.9648633003234863,0.4425048828125,-0.4119873046875,-3.6773681640625
0.4699999,0.6967126727104187,-9.835380554199219,0.9600749015808105,1.1444091796875,-2.105712890625,-0.30517578125
0.4899999,0.871489405632019,-9.849745750427246,0.9720458984375,2.6092529296875,-0.3662109375,2.74658203125
0.5099999,0.9361328482627869,-9.876082420349121,0.933738648891449,0.0457763671875,1.89208984375,4.7149658203125
0.5299999,0.811634361743927,-9.871294021606445,0.9169792532920837,-3.662109375,3.2501220703125,2.25830078125
0.5499999,0.629675030708313,-9.859322547912598,0.9528923034667969,-2.74658203125,3.0059814453125,-4.7760009765625
0.5699999,0.4884171485900879,-9.830592155456543,0.9768342971801758,-1.28173828125,0.213623046875,-7.26318359375
0.5899998999999999,0.5219359993934631,-9.823410034179688,0.9816226959228516,1.2664794921875,-2.8076171875,-2.8533935546875
0.6099998999999999,0.7038952708244324,-9.835380554199219,0.9768342971801758,4.852294921875,-2.8533935546875,1.617431640625
0.6299999,0.8523358106613159,-9.856928825378418,0.9457096457481384,2.349853515625,0.2593994140625,2.5787353515625
0.6499999,0.8690952062606812,-9.880870819091797,0.9002198576927185,-3.143310546875,2.685546875,0.701904296875
0.6699999,0.7781155705451965,-9.876082420349121,0.9385270476341248,-3.7689208984375,3.7841796875,-2.3193359375
0.6899999,0.6823474764823914,-9.856928825378418,0.9720458984375,-2.410888671875,1.953125,-3.90625
0.7099999,0.6631938815116882,-9.859322547912598,0.9457096457481384,-0.457763671875,-1.40380859375,-2.4871826171875
0.7299998999999999,0.6775590777397156,-9.86650562286377,0.9193734526634216,4.08935546875,-5.615234375,1.678466796875
0.7499998999999999,0.6272808313369751,-9.9000244140625,0.8236053586006165,2.899169921875,-12.87841796875,5.218505859375
0.7699999,0.5003881454467773,-9.921571731567383,0.7541735172271729,-2.044677734375,-22.0794677734375,3.41796875
0.7899999,0.38307225704193115,-9.90241813659668,0.7996633648872375,-0.6866455078125,-26.6876220703125,-0.9918212890625
0.8099999,0.4165911078453064,-9.873687744140625,0.8643068075180054,0.9307861328125,-27.374267578125,0.030517578125
0.8299999,0.5770025849342346,-9.849745750427246,0.9241618514060974,2.899169921875,-22.94921875,3.173828125
0.8499998999999999,0.7493851184844971,-9.840168952941895,0.9289502501487732,3.5858154296875,-16.4947509765625,3.0364990234375
0.8699998999999999,0.7374141216278076,-9.892841339111328,0.7398083209991455,-0.4119873046875,-23.406982421875,3.5858154296875
0.8899999,0.4836287498474121,-9.947908401489258,0.49320554733276367,-2.1514892578125,-41.015625,4.5166015625
0.9099999,0.1412578970193863,-9.96945571899414,0.3663128614425659,1.2969970703125,-61.6607666015625,3.6468505859375
0.9299999,-0.05027823522686958,-10.046070098876953,0.4189853072166443,10.223388671875,-71.4874267578125,-2.0294189453125
0.9499999,-0.035913024097681046,-10.153809547424316,0.49799394607543945,20.1568603515625,-57.43408203125,-8.8043212890625
0.9699998999999999,0.1843535304069519,-10.251971244812012,0.6871358752250671,23.162841796875,-48.5992431640625,-7.9498291015625
0.9899998999999999,0.47165772318840027,-10.395624160766602,0.6392518281936646,32.5469970703125,-58.074951171875,-6.3018798828125
1.0099999,0.7086837291717529,-10.445901870727539,0.5291185975074768,40.95458984375,-56.7474365234375,-9.8876953125
1.0299999,0.9409212470054626,-10.3549222946167,0.4381389021873474,52.5360107421875,-34.576416015625,-23.74267578125
1.0499999,1.048660397529602,-10.156203269958496,0.667982280254364,54.3670654296875,-27.9083251953125,-31.06689453125
1.0699999,1.2210428714752197,-9.835380554199219,1.1037269830703735,53.64990234375,-20.233154296875,-35.675048828125
1.0899999,1.4867992401123047,-9.394847869873047,1.7525556087493896,44.6624755859375,-7.6141357421875,-33.538818359375
1.1099999,1.8411411046981812,-8.923190116882324,2.4612393379211426,28.2745361328125,-1.6937255859375,-24.9481201171875
1.1299999,2.2361843585968018,-8.516175270080566,3.1220390796661377,11.0015869140625,-6.3018798828125,-14.4500732421875
1.1499999,2.516305923461914,-8.29830265045166,3.5003228187561035,-2.3040771484375,-9.368896484375,-1.5716552734375
1.1699998999999999,2.6886885166168213,-8.322244644165039,3.5960910320281982,-11.0015869140625,-12.4969482421875,13.0767822265625
1.1899998999999999,2.693476915359497,-8.528146743774414,3.399766445159912,-11.7950439453125,-18.5089111328125,24.84130859375
1.2099999,2.5306711196899414,-8.889671325683594,2.9448680877685547,-7.32421875,-22.1405029296875,32.7911376953125
1.2299999,2.2242133617401123,-9.318233489990234,2.3726539611816406,-2.3345947265625,-24.0325927734375,39.1998291015625
1.2499999,1.8363527059555054,-9.672574996948242,1.8148049116134644,2.7618408203125,-27.2979736328125,43.5333251953125
1.2699999,1.4484920501708984,-9.93593692779541,1.3958195447921753,10.19287109375,-24.47509765625,42.3583984375
1.2899999,1.1204863786697388,-10.077195167541504,1.192312479019165,16.17431640625,-13.2293701171875,39.154052734375
1.3099999,0.7661445140838623,-10.338163375854492,1.2641384601593018,16.3726806640625,-1.9073486328125,37.5823974609375
1.3299999,0.5099649429321289,-10.33098030090332,1.4484920501708984,7.62939453125,-3.0364990234375,22.03369140625
1.3499999,0.21547815203666687,-10.45547866821289,1.6687586307525635,6.89697265625,-5.889892578125,4.69970703125
1.3699999,0.05267243832349777,-10.350133895874023,1.8746598958969116,12.786865234375,-7.2174072265625,-1.0528564453125
1.3899999,0.07422025501728058,-10.187328338623047,2.056619167327881,14.2974853515625,-14.007568359375,-7.0953369140625
1.4099999,0.2322375625371933,-10.077195167541504,2.27209734916687,9.5672607421875,-15.777587890625,-12.0391845703125
1.4299998999999999,0.45250412821769714,-10.02452278137207,2.499546527862549,1.6937255859375,-17.578125,-17.486572265625
1.4499999,0.6799532771110535,-10.070012092590332,2.695871114730835,-5.8746337890625,-28.2745361328125,-26.275634765625
1.4699999,0.9792284965515137,-10.180145263671875,2.9041666984558105,-11.749267578125,-42.5262451171875,-36.865234375
1.4899999,1.400607943534851,-10.35252857208252,3.141192674636841,-16.90673828125,-46.5240478515625,-46.9207763671875
1.5099999,2.011129379272461,-10.625467300415039,3.4165258407592773,-28.3203125,-39.642333984375,-50.018310546875
1.5299999,2.626439332962036,-10.967838287353516,3.5745432376861572,-48.2025146484375,-27.4505615234375,-44.647216796875
1.5499999,3.0885202884674072,-11.341333389282227,3.5027170181274414,-65.1702880859375,-18.3258056640625,-39.24560546875
1.5699999,3.227383852005005,-11.714828491210938,3.064578056335449,-67.32177734375,-11.3983154296875,-39.031982421875
1.5899999,3.0382418632507324,-11.961431503295898,2.3511061668395996,-61.4166259765625,-4.3487548828125,-42.9229736328125
1.6099999,2.628833532333374,-12.009315490722656,1.5275006294250488,-52.1392822265625,0.030517578125,-50.140380859375
1.6299999,2.1332337856292725,-11.769895553588867,0.8355764150619507,-44.097900390625,6.4544677734375,-60.2874755859375
1.6499999,1.6855180263519287,-11.257535934448242,0.40701428055763245,-41.7022705078125,17.730712890625,-70.73974609375
1.6699999,1.4053963422775269,-10.556035041809082,0.28730419278144836,-46.20361328125,26.2908935546875,-80.535888671875
1.6899998999999999,1.359906554222107,-9.813833236694336,0.40222588181495667,-52.947998046875,21.78955078125,-86.8682861328125
1.7099999,1.5969325304031372,-9.174580574035645,0.6416460275650024,-59.844970703125,6.805419921875,-86.2274169921875
1.7299999,2.078166961669922,-8.645462036132812,0.9361328482627869,-72.1588134765625,-6.7291259765625,-79.2694091796875
1.7499999,2.7509377002716064,-8.243236541748047,1.1899182796478271,-88.2415771484375,-8.392333984375,-69.854736328125
1.7699999,3.450044631958008,-7.943961143493652,1.3072341680526733,-105.4534912109375,-1.861572265625,-59.326171875
1.7899999,4.041412353515625,-7.766790390014648,1.158793568611145,-121.2615966796875,4.4403076171875,-46.8292236328125
1.8099999,4.412513732910156,-7.718906402587891,0.667982280254364,-131.0577392578125,10.4827880859375,-35.6597900390625
1.8299999,4.551377296447754,-7.845798969268799,-0.12928688526153564,-130.5084228515625,11.5814208984375,-29.0985107421875
1.8499999,4.541800498962402,-8.090007781982422,-1.1037269830703735,-121.76513671875,5.584716796875,-22.5067138671875
1.8699999,4.503493309020996,-8.422801971435547,-2.070984363555908,-109.0545654296875,0.946044921875,-11.7034912109375
1.8899999,4.481945514678955,-8.772355079650879,-2.8993782997131348,-94.3603515625,5.9661865234375,1.77001953125
1.9099999,4.508281707763672,-9.047688484191895,-3.5170822143554688,-79.4677734375,13.519287109375,12.7716064453125
1.9299998999999999,4.563348293304443,-9.160215377807617,-3.864241600036621,-63.96484375,14.95361328125,17.6849365234375
1.9499999,4.6471452713012695,-9.133879661560059,-3.9863457679748535,-48.187255859375,16.7694091796875,19.8211669921875
1.9699999,4.754884719848633,-9.023746490478516,-3.9456443786621094,-36.3006591796875,26.092529296875,23.9715576171875
1.9899999,4.886565685272217,-8.882488250732422,-3.7852327823638916,-28.9154052734375,36.224365234375,28.3203125
2.0099999,4.9799394607543945,-8.741230010986328,-3.5960910320281982,-23.86474609375,44.0216064453125,27.9541015625
2.0299999,5.006275653839111,-8.633491516113281,-3.4356794357299805,-18.1427001953125,50.1556396484375,25.5126953125
2.0499999,4.970362663269043,-8.525752067565918,-3.292027235031128,-13.153076171875,54.01611328125,23.895263671875
2.0699999,4.881777286529541,-8.425195693969727,-3.1747114658355713,-9.3231201171875,57.7850341796875,21.66748046875
2.0899999,4.7620673179626465,-8.341399192810059,-3.093308687210083,-5.31005859375,63.8275146484375,17.8375244140625
2.1099999,4.613626480102539,-8.281543731689453,-3.0621838569641113,-0.1678466796875,66.8792724609375,14.16015625
2.1299999,4.474762916564941,-8.238448143005371,-3.047818660736084,6.16455078125,61.0198974609375,11.3067626953125
2.1499999,4.359841346740723,-8.224082946777344,-3.045424461364746,13.3514404296875,55.11474609375,8.056640625
2.1699999,4.304774761199951,-8.216899871826172,-2.9903578758239746,17.63916015625,54.4281005859375,4.3487548828125
2.1899999,4.304774761199951,-8.200140953063965,-2.875436305999756,17.974853515625,55.17578125,0.9918212890625
2.2099999,4.314351558685303,-8.164227485656738,-2.7246015071868896,15.9912109375,52.001953125,-2.13623046875
2.2299999,4.323928356170654,-8.10437297821045,-2.5546131134033203,14.58740234375,44.49462890625,-6.89697265625
2.2499999,4.314351558685303,-8.044517517089844,-2.3965959548950195,16.2353515625,37.994384765625,-13.2598876953125
2.2699999,4.3191399574279785,-8.006210327148438,-2.2601263523101807,18.2342529296875,33.294677734375,-18.8446044921875
2.2899999,4.369418144226074,-8.018181800842285,-2.1475989818573,18.9666748046875,28.778076171875,-22.125244140625
2.3099999,4.4723687171936035,-8.097189903259277,-2.078166961669922,18.7835693359375,23.7579345703125,-23.3001708984375
2.3299999,4.608838081359863,-8.202534675598145,-2.051830768585205,17.4102783203125,19.3939208984375,-23.590087890625
2.3499999,4.747702121734619,-8.269572257995605,-2.051830768585205,15.80810546875,18.9361572265625,-24.7955322265625
2.3699999,4.829104900360107,-8.245630264282227,-2.0590133666992188,14.801025390625,21.514892578125,-27.0538330078125
2.3899999,4.850652694702148,-8.075642585754395,-2.0422539710998535,13.24462890625,24.932861328125,-29.6630859375
2.4099999,4.817133903503418,-7.781155586242676,-1.9632453918457031,11.8255615234375,29.7088623046875,-33.416748046875
2.4299999,4.7620673179626465,-7.4316020011901855,-1.8171991109848022,11.2457275390625,34.5001220703125,-36.6668701171875
2.4499999,4.699818134307861,-7.084442615509033,-1.623268723487854,6.9580078125,36.6363525390625,-36.773681640625
2.4699999,4.663905143737793,-6.830657482147217,-1.403002142906189,0.30517578125,37.04833984375,-34.942626953125
2.4899999,4.656722068786621,-6.71334171295166,-1.213860273361206,-3.0975341796875,40.2984619140625,-33.7066650390625
2.5099999,4.697423934936523,-6.71334171295166,-1.0606313943862915,-4.5166015625,44.37255859375,-32.2113037109375
2.5299999,4.797980308532715,-6.821080684661865,-0.9481038451194763,-5.4931640625,44.2352294921875,-29.60205078125
2.5499999,4.975151062011719,-6.9910688400268555,-0.8571242094039917,-4.6234130859375,40.0238037109375,-27.0538330078125
2.5699999,5.224148273468018,-7.180211067199707,-0.751779317855835,-2.25830078125,36.31591796875,-25.146484375
2.5899999,5.542576789855957,-7.376535415649414,-0.6248866319656372,-0.8087158203125,33.4930419921875,-23.3306884765625
2.6099999,5.918466567993164,-7.546523571014404,-0.45489832758903503,-1.5716552734375,28.3355712890625,-21.2554931640625
2.6299999,6.279991149902344,-7.690176010131836,-0.2849099934101105,-2.9144287109375,24.169921875,-19.6075439453125
2.6499999,6.572083473205566,-7.7883381843566895,-0.14604631066322327,-3.4332275390625,23.8800048828125,-21.6522216796875
2.6699999,6.777985095977783,-7.836222171783447,-0.05746084079146385,-1.983642578125,27.008056640625,-28.9459228515625
2.6899999,6.892906665802002,-7.850587368011475,-0.016759412363171577,0.6256103515625,34.5306396484375,-37.7044677734375
2.7099999,6.936002254486084,-7.812280178070068,-0.016759412363171577,1.3885498046875,39.9932861328125,-42.1600341796875
2.7299999,6.962338447570801,-7.73087739944458,-0.014365210197865963,1.495361328125,39.9322509765625,-43.212890625
2.7499999,6.964732646942139,-7.613561630249023,-0.019153613597154617,3.2806396484375,42.5262451171875,-44.6014404296875
2.7699999,6.950367450714111,-7.462726593017578,-0.0071826050989329815,4.82177734375,46.20361328125,-44.9981689453125
2.7899999,6.926425457000732,-7.311892032623291,0.016759412363171577,6.28662109375,43.9300537109375,-44.25048828125
2.8099999,6.8809356689453125,-7.177816867828369,0.047884032130241394,7.904052734375,38.330078125,-44.25048828125
2.8299999,6.833051681518555,-7.036558628082275,0.09816227108240128,7.99560546875,33.9202880859375,-46.051025390625
2.8499999,6.794744491577148,-6.9024834632873535,0.16519992053508759,9.27734375,33.7066650390625,-50.3692626953125
2.8699999,6.782773494720459,-6.75883150100708,0.2513911724090576,10.8184814453125,32.2265625,-54.2144775390625
2.8899999,6.794744491577148,-6.586448669433594,0.38546648621559143,10.55908203125,25.4058837890625,-56.5032958984375
2.9099999,6.861782073974609,-6.3733649253845215,0.5841852426528931,10.6964111328125,20.1263427734375,-59.9212646484375
2.9299999,6.967126846313477,-6.098031520843506,0.8331822156906128,11.5203857421875,22.979736328125,-65.12451171875
2.9499999,7.117961883544922,-5.789179801940918,1.113303780555725,10.284423828125,26.1993408203125,-68.450927734375
2.9699999,7.266402244567871,-5.430049419403076,1.381454348564148,6.3323974609375,21.636962890625,-67.32177734375
2.9899999,7.38132381439209,-5.061342239379883,1.5897499322891235,4.2266845703125,19.9127197265625,-66.22314453125
3.0099999,7.467514991760254,-4.704606533050537,1.7405846118927002,4.730224609375,23.712158203125,-67.3675537109375
3.0299999,7.539340972900391,-4.355052947998047,1.8531121015548706,5.9356689453125,28.533935546875,-66.802978515625
3.0499999,7.680599212646484,-4.046200752258301,1.9943699836730957,8.8043212890625,31.2042236328125,-64.4683837890625
3.0699999,7.886500358581543,-3.8738183975219727,2.1332337856292725,13.0157470703125,36.5753173828125,-61.798095703125
3.0899999,8.159439086914062,-3.758896589279175,2.315192937850952,11.3677978515625,33.1268310546875,-55.6182861328125
3.1099999,8.429984092712402,-3.732560396194458,2.4875755310058594,6.072998046875,22.064208984375,-47.454833984375
3.1299999,8.62630844116211,-3.7397429943084717,2.5737667083740234,1.77001953125,18.1732177734375,-41.107177734375
3.1499999,8.705317497253418,-3.691859006881714,2.580949544906616,-1.434326171875,18.035888671875,-38.0401611328125
3.1699999,8.667010307312012,-3.584120035171509,2.497152328491211,-0.885009765625,19.561767578125,-39.9017333984375
3.1899999,8.561665534973145,-3.445256233215332,2.3343467712402344,1.3275146484375,25.20751953125,-44.49462890625
3.2099999,8.463502883911133,-3.270479440689087,2.169146776199341,1.6021728515625,25.45166015625,-46.8292236328125
3.2299999,8.453926086425781,-3.1292216777801514,2.0398597717285156,2.9449462890625,19.683837890625,-49.2095947265625
3.2499999,8.542511940002441,-3.021482467651367,1.9752163887023926,2.410888671875,17.6239013671875,-51.4678955078125
3.2699999,8.712499618530273,-2.9472622871398926,1.9919757843017578,-3.9215087890625,18.1732177734375,-50.5828857421875
3.2899999,8.918401718139648,-2.892195701599121,2.0661959648132324,-11.932373046875,16.876220703125,-48.15673828125
3.3099999,9.117119789123535,-2.8658595085144043,2.1523873805999756,-17.4102783203125,16.448974609375,-48.1109619140625
3.3299999000000002,9.32541561126709,-2.8443117141723633,2.250549554824829,-20.965576171875,18.218994140625,-48.9044189453125
3.3499999,9.53849983215332,-2.868253707885742,2.3056161403656006,-24.627685546875,20.660400390625,-45.8984375
3.3699999,9.763554573059082,-2.8802247047424316,2.346317768096924,-31.0211181640625,16.8304443359375,-38.0859375
3.3899999,9.952696800231934,-2.9041666984558105,2.31758713722229,-35.8428955078125,8.1024169921875,-30.120849609375
3.4099999,10.079588890075684,-2.8826189041137695,2.229001760482788,-36.8804931640625,3.3416748046875,-24.6429443359375
3.4299999,10.134655952453613,-2.786850690841675,2.10210919380188,-36.376953125,-0.4119873046875,-17.8680419921875
3.4499999,10.077195167541504,-2.6647465229034424,1.8842366933822632,-34.11865234375,1.0986328125,-9.063720703125
3.4699999,9.914389610290527,-2.5043349266052246,1.6184803247451782,-31.3568115234375,0.8087158203125,-0.3204345703125
3.4899999,9.655815124511719,-2.3798365592956543,1.3024457693099976,-27.03857421875,-5.6610107421875,4.8675537109375
3.5099999,9.363722801208496,-2.2816741466522217,1.0223240852355957,-21.8963623046875,-9.9945068359375,6.65283203125
3.5299999,9.095572471618652,-2.229001760482788,0.8164227604866028,-19.3634033203125,-3.692626953125,7.781982421875
3.5499999,8.93037223815918,-2.1954829692840576,0.7445967197418213,-21.3623046875,5.523681640625,9.46044921875
3.5699999,8.858546257019043,-2.1954829692840576,0.7781155705451965,-25.7720947265625,13.8702392578125,11.627197265625
3.5899999,8.822632789611816,-2.2146365642547607,0.8595184087753296,-32.4249267578125,27.2064208984375,14.129638671875
3.6099999,8.75080680847168,-2.229001760482788,0.9481038451194763,-39.825439453125,35.8734130859375,17.02880859375
3.6299999,8.607154846191406,-2.2146365642547607,1.0271124839782715,-46.56982421875,34.6221923828125,20.3094482421875
3.6499999,8.403648376464844,-2.1787235736846924,1.1037269830703735,-50.933837890625,32.135009765625,21.6064453125
3.6699999,8.188169479370117,-2.1523873805999756,1.2090718746185303,-57.0220947265625,35.1104736328125,22.5677490234375
3.6899999,8.015787124633789,-2.185906171798706,1.3646949529647827,-68.05419921875,38.177490234375,26.3824462890625
3.7099999,7.85537576675415,-2.343923568725586,1.5418659448623657,-81.1309814453125,39.5050048828125,28.9764404296875
3.7299999,7.680599212646484,-2.6384103298187256,1.702277421951294,-93.3074951171875,40.802001953125,26.397705078125
3.7499999,7.457938194274902,-3.064578056335449,1.8076223134994507,-100.76904296875,40.5731201171875,17.9443359375
3.7699999,7.208941459655762,-3.579331636428833,1.8626888990402222,-104.0496826171875,41.4276123046875,5.6915283203125
3.7899999,6.964732646942139,-4.122815132141113,1.86508309841156,-107.147216796875,44.8150634765625,-8.4381103515625
3.8099999,6.7923502922058105,-4.661510944366455,1.845929503440857,-110.443115234375,45.623779296875,-23.345947265625
3.8299999000000002,6.766014099121094,-5.147533416748047,1.8411411046981812,-114.0899658203125,40.5120849609375,-36.865234375
3.8499999,6.943184852600098,-5.5760955810546875,1.86508309841156,-118.408203125,37.933349609375,-47.66845703125
3.8699999,7.33583402633667,-5.95677375793457,1.920149803161621,-123.9776611328125,43.76220703125,-54.290771484375
3.8899999,7.898471355438232,-6.244078159332275,2.0183119773864746,-129.669189453125,52.7801513671875,-56.6558837890625
3.9099999,8.542511940002441,-6.466738700866699,2.1332337856292725,-130.55419921875,60.8062744140625,-57.2967529296875
3.9299999,9.10993766784668,-6.603208065032959,2.2170307636260986,-126.4801025390625,67.32177734375,-56.94580078125
3.9499999,9.552865028381348,-6.636727333068848,2.2864625453948975,-117.1875,65.5517578125,-54.9163818359375
3.9699999,9.816226959228516,-6.567295074462891,2.3319525718688965,-102.7374267578125,65.2923583984375,-53.6346435546875
3.9899999,9.883264541625977,-6.368576526641846,2.3487119674682617,-85.44921875,71.3653564453125,-53.4515380859375
4.0099999,9.832986831665039,-6.052541732788086,2.389413356781006,-65.97900390625,73.6541748046875,-54.3975830078125
4.029999900000001,9.703699111938477,-5.633556365966797,2.473210334777832,-46.2493896484375,72.021484375,-56.45751953125
4.0499999,9.514557838439941,-5.140350818634033,2.5905263423919678,-29.7698974609375,69.1070556640625,-57.18994140625
4.069999900000001,9.311050415039062,-4.58968448638916,2.779668092727661,-17.608642578125,60.211181640625,-55.5267333984375
4.0899999000000005,9.093177795410156,-4.003105163574219,3.0358476638793945,-9.1094970703125,50.10986328125,-54.443359375
4.1099999,8.853757858276367,-3.423708438873291,3.3518824577331543,-3.8299560546875,47.5311279296875,-54.6875
4.1299999000000005,8.592789649963379,-2.892195701599121,3.689464807510376,-0.640869140625,48.492431640625,-53.4210205078125
4.1499999,8.271966934204102,-2.4372973442077637,3.976768970489502,1.3427734375,42.236328125,-49.774169921875
4.1699999000000005,7.908048152923584,-2.0422539710998535,4.199429988861084,2.3040771484375,25.81787109375,-47.332763671875
4.1899999,7.548917770385742,-1.6974890232086182,4.355052947998047,2.86865234375,10.31494140625,-47.882080078125
4.209999900000001,7.2783732414245605,-1.3766659498214722,4.479551315307617,1.4495849609375,4.364013671875,-48.88916015625
4.2299999,7.1490864753723145,-1.0797849893569946,4.613626480102539,-3.9825439453125,3.9520263671875,-48.9959716796875
4.249999900000001,7.163451671600342,-0.828393816947937,4.750096321105957,-10.43701171875,6.805419921875,-49.9267578125
4.2699999,7.252037048339844,-0.5985504388809204,4.841075897216797,-14.434814453125,10.009765625,-52.3223876953125
4.289999900000001,7.359776020050049,-0.38546648621559143,4.876988887786865,-15.93017578125,7.26318359375,-55.023193359375
4.3099999,7.462726593017578,-0.16998831927776337,4.843470096588135,-17.181396484375,-0.9765625,-57.098388671875
4.329999900000001,7.5968017578125,0.05985504388809204,4.795586109161377,-18.2952880859375,-7.9498291015625,-59.63134765625
4.3499999,7.766790390014648,0.28969839215278625,4.73573112487793,-19.3328857421875,-4.8675537109375,-63.0950927734375
4.369999900000001,7.999027729034424,0.5339069962501526,4.67827033996582,-21.4996337890625,3.082275390625,-65.2008056640625
4.3899999,8.257601737976074,0.768538773059845,4.606443881988525,-25.177001953125,6.8206787109375,-66.2078857421875
4.409999900000001,8.497021675109863,1.0031704902648926,4.484339714050293,-29.632568359375,7.7362060546875,-67.2760009765625
4.4299999,8.698134422302246,1.2234370708465576,4.333505153656006,-32.8826904296875,9.033203125,-68.78662109375
4.449999900000001,8.856152534484863,1.3958195447921753,4.182670593261719,-32.4554443359375,10.223388671875,-69.1680908203125
4.4699999,8.968679428100586,1.4939818382263184,4.0533833503723145,-30.4718017578125,10.4827880859375,-67.047119140625
4.489999900000001,9.023746490478516,1.4939818382263184,3.931279182434082,-27.0538330078125,6.4544677734375,-61.981201171875
4.5099999,9.023746490478516,1.4245500564575195,3.8067808151245117,-21.270751953125,-5.3863525390625,-55.3436279296875
4.529999900000001,8.98543930053711,1.3192051649093628,3.6798880100250244,-13.8092041015625,-21.148681640625,-49.560546875
4.5499999,8.951920509338379,1.2186486721038818,3.5721490383148193,-10.0860595703125,-34.1339111328125,-42.0684814453125
4.569999900000001,8.927978515625,1.1516109704971313,3.5027170181274414,-11.993408203125,-37.445068359375,-30.2886962890625
4.5899999000000005,8.89445972442627,1.1348515748977661,3.471592426300049,-16.4642333984375,-32.28759765625,-17.2271728515625
4.609999900000001,8.810662269592285,1.1827356815338135,3.469198226928711,-19.95849609375,-26.397705078125,-7.50732421875
4.6299999000000005,8.4108304977417,1.4844050407409668,3.5434184074401855,-21.54541015625,-17.6849365234375,2.288818359375
4.6499999,8.164227485656738,1.6759412288665771,3.6798880100250244,-21.820068359375,-14.892578125,6.9122314453125
4.6699999000000005,7.955932140350342,1.8315643072128296,3.912125587463379,-21.697998046875,-11.5966796875,12.4664306640625
4.6899999,7.8098859786987305,1.9297266006469727,4.211400985717773,-20.2484130859375,-6.2713623046875,19.2413330078125
4.709999900000001,7.733271598815918,1.9249382019042969,4.529829502105713,-16.9525146484375,-5.1422119140625,26.4892578125
4.7299999,7.692570209503174,1.8602946996688843,4.788403511047363,-13.458251953125,-17.059326171875,34.515380859375
4.749999900000001,7.6997528076171875,1.764526605606079,4.955997467041016,-10.7574462890625,-39.4287109375,42.449951171875
4.7699999,7.750030994415283,1.6543933153152466,4.999093055725098,-9.70458984375,-63.262939453125,48.7060546875
4.789999900000001,7.872135162353516,1.580173134803772,4.95120906829834,-12.3748779296875,-83.526611328125,54.0771484375
4.8099999,8.073247909545898,1.5059528350830078,4.8267107009887695,-18.9971923828125,-95.184326171875,59.4482421875
4.829999900000001,8.317456245422363,1.400607943534851,4.596867084503174,-29.022216796875,-96.4813232421875,65.3228759765625
4.8499999,8.53293514251709,1.2473790645599365,4.235342979431152,-41.8243408203125,-95.611572265625,71.380615234375
4.869999900000001,8.707711219787598,1.039083480834961,3.756502389907837,-55.1605224609375,-89.3402099609375,75.6072998046875
4.8899999,8.803479194641113,0.7852981686592102,3.160346269607544,-66.009521484375,-69.915771484375,75.714111328125
4.909999900000001,8.822632789611816,0.49799394607543945,2.47560453414917,-72.6470947265625,-45.34912109375,71.7620849609375
4.9299999,8.796297073364258,0.1604115068912506,1.7812861204147339,-73.1658935546875,-30.426025390625,65.5364990234375
4.949999900000001,8.686163902282715,-0.2585737705230713,1.05105459690094,-69.1070556640625,-23.8037109375,60.5621337890625
4.9699999,8.552088737487793,-0.7182605266571045,0.3687070608139038,-61.553955078125,-22.1405029296875,59.051513671875
4.989999900000001,8.439560890197754,-1.1994950771331787,-0.22744916379451752,-51.025390625,-24.2156982421875,58.2427978515625
5.0099999,8.40843677520752,-1.6639702320098877,-0.6775590777397156,-41.44287109375,-26.18408203125,57.830810546875
5.029999900000001,8.485051155090332,-2.078166961669922,-0.9600749015808105,-35.5072021484375,-25.4058837890625,60.8673095703125
5.0499999,8.640673637390137,-2.454056739807129,-1.0797849893569946,-32.3486328125,-24.1546630859375,67.1234130859375
5.069999900000001,8.808267593383789,-2.7916390895843506,-1.0773907899856567,-30.5023193359375,-24.4140625,75.3021240234375
5.0899999000000005,8.89685344696045,-3.1316158771514893,-1.072602391242981,-30.364990234375,-27.2979736328125,86.2579345703125
5.109999900000001,8.892065048217773,-3.4811692237854004,-1.1180921792984009,-31.2347412109375,-40.5426025390625,99.761962890625
5.1299999000000005,8.827422142028809,-3.907337188720703,-1.2066776752471924,-30.8990478515625,-59.4482421875,112.396240234375
5.1499999,8.719682693481445,-4.405331134796143,-1.3335703611373901,-29.6478271484375,-65.5364990234375,121.612548828125
5.1699999000000005,8.585607528686523,-4.941632270812988,-1.4173674583435059,-27.0843505859375,-60.4705810546875,126.861572265625
5.1899999,8.38688850402832,-5.530605792999268,-1.4915876388549805,-20.6451416015625,-51.81884765625,127.4261474609375
5.209999900000001,8.04691219329834,-6.157886981964111,-1.6136919260025024,-11.23046875,-49.591064453125,124.8779296875
5.2299999,7.587224960327148,-6.797138690948486,-1.7908629179000854,-2.2430419921875,-56.57958984375,119.93408203125
5.249999900000001,7.050923824310303,-7.405265808105469,-2.011129379272461,6.927490234375,-60.48583984375,110.2447509765625
5.2699999,6.495469093322754,-7.9176249504089355,-2.2361843585968018,17.1051025390625,-55.0079345703125,94.635009765625
5.289999900000001,6.011840343475342,-8.24084186553955,-2.3774423599243164,25.6805419921875,-48.6907958984375,76.263427734375
5.3099999,5.6455278396606445,-8.403648376464844,-2.4372973442077637,30.029296875,-44.0673828125,58.04443359375
5.329999900000001,5.4444146156311035,-8.391676902770996,-2.3582887649536133,27.9083251953125,-41.778564453125,43.609619140625
5.3499999,5.434837818145752,-8.26239013671875,-2.1284453868865967,19.95849609375,-39.3829345703125,33.7371826171875
5.369999900000001,5.540182590484619,-8.075642585754395,-1.8483237028121948,9.8419189453125,-32.9132080078125,26.4434814453125
5.3899999,5.7125654220581055,-7.848193168640137,-1.5729905366897583,-1.7547607421875,-30.70068359375,20.0958251953125
5.409999900000001,5.870582580566406,-7.63989782333374,-1.4053963422775269,-10.92529296875,-30.6396484375,12.420654296875
5.4299999,5.9735331535339355,-7.501033782958984,-1.4101848602294922,-15.869140625,-27.7252197265625,4.638671875
5.449999900000001,6.042964935302734,-7.445967197418213,-1.5658079385757446,-19.5770263671875,-31.8603515625,0.1373291015625
5.4699999,6.119579315185547,-7.47230339050293,-1.8291701078414917,-23.040771484375,-43.3807373046875,-1.2969970703125
5.489999900000001,6.210559368133545,-7.560888767242432,-2.161964178085327,-24.749755859375,-46.8292236328125,-2.99072265625
5.5099999,6.315904140472412,-7.649474620819092,-2.52109432220459,-25.7415771484375,-40.95458984375,-5.2947998046875
5.529999900000001,6.411672115325928,-7.716512203216553,-2.8658595085144043,-24.932861328125,-37.139892578125,-7.14111328125
5.5499999,6.461950302124023,-7.7428483963012695,-3.1962592601776123,-21.05712890625,-38.2080078125,-8.6669921875
5.569999900000001,6.473921298980713,-7.716512203216553,-3.464409828186035,-14.95361328125,-39.0777587890625,-9.857177734375
5.5899999000000005,6.461950302124023,-7.63989782333374,-3.646369218826294,-8.9874267578125,-35.7818603515625,-10.8795166015625
5.609999900000001,6.423643112182617,-7.529764175415039,-3.7469255924224854,-3.173828125,-30.8380126953125,-10.0250244140625
5.6299999000000005,6.356605529785156,-7.402871608734131,-3.7900211811065674,3.5552978515625,-30.33447265625,-7.0037841796875
5.6499999,6.268020153045654,-7.264008045196533,-3.804386615753174,10.8795166015625,-35.552978515625,-3.692626953125
5.6699999000000005,6.1985883712768555,-7.117961883544922,-3.77565598487854,15.9149169921875,-39.703369140625,-0.8544921875
5.6899999,6.1770405769348145,-6.959944248199463,-3.7158010005950928,16.387939453125,-37.0025634765625,2.532958984375
5.709999900000001,6.217741966247559,-6.811503887176514,-3.6296098232269287,12.3291015625,-34.637451171875,7.8887939453125
5.7299999,6.287173748016357,-6.696582317352295,-3.5745432376861572,5.218505859375,-38.0401611328125,14.2974853515625
5.749999900000001,6.347028732299805,-6.627150535583496,-3.5960910320281982,-1.52587890625,-41.80908203125,19.2108154296875
5.7699999,6.368576526641846,-6.5912370681762695,-3.713406801223755,-5.1727294921875,-41.8548583984375,21.3165283203125
5.789999900000001,6.354211330413818,-6.581660270690918,-3.9217023849487305,-7.3699951171875,-39.215087890625,20.6298828125
5.8099999,6.337451934814453,-6.5912370681762695,-4.163516521453857,-10.3759765625,-37.0330810546875,18.7530517578125
5.829999900000001,6.3302693367004395,-6.641515731811523,-4.417302131652832,-12.420654296875,-30.548095703125,18.5089111328125
5.8499999,6.325480937957764,-6.722918510437012,-4.668693542480469,-13.4124755859375,-15.899658203125,20.5535888671875
5.869999900000001,6.308721542358398,-6.84981107711792,-4.912901878356934,-13.1072998046875,-4.82177734375,23.1475830078125
5.8899999,6.229712963104248,-6.998251438140869,-5.166687488555908,-11.6119384765625,-5.126953125,26.9012451171875
5.909999900000001,6.100425720214844,-7.12035608291626,-5.396530628204346,-7.2174072265625,-9.246826171875,32.196044921875
5.9299999,5.949591159820557,-7.184999465942383,-5.547365188598633,-0.4425048828125,-7.26318359375,36.6058349609375
5.949999900000001,5.815515995025635,-7.144298076629639,-5.552153587341309,3.6773681640625,-0.823974609375,39.8406982421875
5.9699999,5.705382823944092,-6.998251438140869,-5.398924827575684,3.662109375,-2.62451171875,45.928955078125
5.989999900000001,5.52821159362793,-6.806715488433838,-5.185841083526611,0.8087158203125,-17.5628662109375,57.8460693359375
6.0099999,5.329493045806885,-6.607996463775635,-4.896142482757568,-1.6632080078125,-34.8663330078125,72.998046875
6.029999900000001,5.056553840637207,-6.476315498352051,-4.623203277587891,-3.2958984375,-35.82763671875,86.9598388671875
6.0499999,4.6950297355651855,-6.440402507781982,-4.412513732910156,-7.2174072265625,-21.42333984375,99.0447998046875
6.069999900000001,4.24970817565918,-6.519411087036133,-4.292803764343262,-10.31494140625,-7.01904296875,109.6038818359375
6.0899999000000005,3.7253777980804443,-6.66785192489624,-4.259284973144531,-10.498046875,1.3885498046875,116.607666015625
6.109999900000001,3.093308687210083,-6.871358871459961,-4.352658748626709,-7.75146484375,3.0975341796875,120.819091796875
6.1299999000000005,2.4444799423217773,-7.062894821166992,-4.469974517822266,-5.43212890625,-6.4544677734375,126.3580322265625
6.149999900000001,1.8626888990402222,-7.237671852111816,-4.553771495819092,-2.7618408203125,-20.904541015625,133.11767578125
6.1699999000000005,1.3311761617660522,-7.378929615020752,-4.616020679473877,0.0152587890625,-26.9622802734375,139.09912109375
6.1899999,0.950498104095459,-7.457938194274902,-4.570530891418457,0.579833984375,-24.23095703125,144.195556640625
6.209999900000001,0.6009446382522583,-7.522581577301025,-4.508281707763672,-1.1138916015625,-21.484375,151.1993408203125
6.2299999,0.17956513166427612,-7.568071365356445,-4.508281707763672,-5.3863525390625,-27.5115966796875,161.62109375
6.249999900000001,-0.2968810200691223,-7.6351094245910645,-4.563348293304443,-6.8359375,-37.78076171875,170.4559326171875
6.2699999,-0.9026140570640564,-7.714118003845215,-4.709394931793213,-2.5482177734375,-39.0777587890625,173.2940673828125
6.289999900000001,-1.558625340461731,-7.773972988128662,-4.884171485900879,3.7841796875,-36.4227294921875,171.844482421875
6.3099999,-2.2409727573394775,-7.800309181213379,-5.008669853210449,9.0179443359375,-41.5802001953125,168.853759765625
6.329999900000001,-3.0095114707946777,-7.8314337730407715,-5.140350818634033,14.0228271484375,-47.8363037109375,164.581298828125
6.3499999,-3.8355112075805664,-7.793126583099365,-5.1810526847839355,20.3399658203125,-50.323486328125,157.0281982421875
6.369999900000001,-4.594472885131836,-7.723694801330566,-5.0469770431518555,30.303955078125,-45.22705078125,143.4173583984375
6.3899999,-5.228936672210693,-7.60637903213501,-4.726154327392578,38.299560546875,-25.5584716796875,125.732421875
6.409999900000001,-5.6910176277160645,-7.436390399932861,-4.218583583831787,36.8804931640625,-8.026123046875,109.039306640625
6.4299999,-5.961562156677246,-7.299921035766602,-3.6391866207122803,30.0445556640625,-6.4544677734375,94.9859619140625
6.449999900000001,-6.090848922729492,-7.19936466217041,-3.093308687210083,22.2015380859375,-10.345458984375,83.526611328125
6.4699999,-6.057330131530762,-7.127538681030273,-2.5929205417633057,13.48876953125,-10.650634765625,76.568603515625
6.489999900000001,-5.896918773651123,-7.062894821166992,-2.1308395862579346,2.50244140625,-7.8887939453125,75.4241943359375
6.5099999,-5.724536418914795,-7.000645637512207,-1.7621324062347412,-11.04736328125,-7.4310302734375,78.7353515625
6.529999900000001,-5.6455278396606445,-6.904877662658691,-1.525106430053711,-25.1312255859375,-14.5416259765625,85.052490234375
6.5499999,-5.722142219543457,-6.761225700378418,-1.4484920501708984,-37.6129150390625,-24.5819091796875,91.461181640625
6.569999900000001,-5.92325496673584,-6.550535678863525,-1.50355863571167,-47.943115234375,-29.8919677734375,95.8709716796875
6.5899999000000005,-6.205770969390869,-6.315904140472412,-1.6496049165725708,-57.1136474609375,-28.4271240234375,97.9766845703125
6.609999900000001,-6.564900875091553,-6.090848922729492,-1.8626888990402222,-66.6656494140625,-25.1922607421875,98.9837646484375
6.6299999000000005,-6.964732646942139,-5.896918773651123,-2.164358377456665,-72.4029541015625,-30.5023193359375,97.47314453125
6.649999900000001,-7.38132381439209,-5.726930618286133,-2.516305923461914,-71.1517333984375,-35.6292724609375,91.36962890625
6.6699999000000005,-7.814674377441406,-5.578489780426025,-2.9161376953125,-66.5740966796875,-31.7535400390625,81.207275390625
6.6899999,-8.24084186553955,-5.446808815002441,-3.3423056602478027,-61.370849609375,-25.9857177734375,69.6868896484375
6.709999900000001,-8.65743350982666,-5.343858242034912,-3.7469255924224854,-54.6112060546875,-26.7791748046875,59.7686767578125
6.7299999,-8.966285705566406,-5.252878665924072,-4.082113742828369,-44.61669921875,-32.073974609375,52.9937744140625
6.749999900000001,-9.150638580322266,-5.147533416748047,-4.364629745483398,-29.8614501953125,-39.55078125,52.886962890625
6.7699999,-9.131484985351562,-5.0014872550964355,-4.508281707763672,-15.80810546875,-38.4674072265625,56.9915771484375
6.789999900000001,-8.973467826843262,-4.850652694702148,-4.599261283874512,0.9765625,-38.3148193359375,57.06787109375
6.8099999,-8.808267593383789,-4.685452938079834,-4.639962673187256,13.0767822265625,-38.57421875,51.9866943359375
6.829999900000001,-8.676587104797363,-4.503493309020996,-4.656722068786621,22.186279296875,-43.3502197265625,45.9136962890625
6.8499999,-8.60236644744873,-4.309563159942627,-4.6040496826171875,32.7301025390625,-52.215576171875,42.327880859375
6.869999900000001,-8.573636054992676,-4.106055736541748,-4.448426723480225,38.3758544921875,-51.45263671875,43.212890625
6.8899999,-8.611943244934082,-3.952826976776123,-4.185064792633057,35.5224609375,-42.0074462890625,50.4608154296875
6.909999900000001,-8.7484130859375,-3.885789394378662,-3.8594532012939453,27.984619140625,-32.3638916015625,62.43896484375
6.9299999,-9.01895809173584,-3.890577793121338,-3.5266590118408203,15.56396484375,-23.49853515625,71.35009765625
6.949999900000001,-9.437943458557129,-3.9264907836914062,-3.265691041946411,5.67626953125,-19.47021484375,74.615478515625
6.9699999,-9.928754806518555,-3.9384617805480957,-3.1028854846954346,-1.4190673828125,-18.7835693359375,73.760986328125
6.989999900000001,-10.390835762023926,-3.8977603912353516,-3.0573954582214355,-11.0626220703125,-16.448974609375,67.6116943359375
7.0099999,-10.733205795288086,-3.77565598487854,-3.093308687210083,-19.561767578125,-17.2119140625,56.94580078125
7.029999900000001,-10.860098838806152,-3.5721490383148193,-3.1675288677215576,-24.566650390625,-17.4407958984375,43.51806640625
7.0499999,-10.718840599060059,-3.31118106842041,-3.2130186557769775,-25.543212890625,-11.6729736328125,28.8848876953125
7.069999900000001,-10.333374977111816,-3.0358476638793945,-3.181894063949585,-22.0794677734375,-1.3580322265625,16.0064697265625
7.0899999000000005,-9.871294021606445,-2.806004285812378,-3.1244332790374756,-16.0369873046875,9.918212890625,5.6610107421875
7.109999900000001,-9.567230224609375,-2.7126305103302,-3.1268274784088135,-10.7421875,19.8211669921875,-4.730224609375
7.1299999000000005,-9.459490776062012,-2.7222073078155518,-3.1890766620635986,-4.5928955078125,19.4854736328125,-15.411376953125
7.149999900000001,-9.57201862335205,-2.8586769104003906,-3.2585084438323975,2.62451171875,10.4217529296875,-23.4832763671875
7.1699999000000005,-9.768342971801758,-3.0310592651367188,-3.3039982318878174,9.429931640625,8.4381103515625,-24.261474609375
7.1899999,-9.864110946655273,-3.220201253890991,-3.222595453262329,14.7552490234375,12.908935546875,-19.256591796875
7.209999900000001,-9.856928825378418,-3.375824451446533,-3.0765492916107178,17.1051025390625,18.707275390625,-8.514404296875
7.2299999,-9.792284965515137,-3.488351821899414,-2.9472622871398926,17.5018310546875,21.8505859375,6.4239501953125
7.249999900000001,-9.691728591918945,-3.5027170181274414,-2.8658595085144043,17.8985595703125,14.4500732421875,22.4609375
7.2699999,-9.57441234588623,-3.397372245788574,-2.82515811920166,17.5323486328125,-1.6937255859375,36.5753173828125
7.289999900000001,-9.48343276977539,-3.1459810733795166,-2.801215887069702,12.0849609375,-6.8206787109375,45.7763671875
7.3099999,-9.435548782348633,-2.75812029838562,-2.75812029838562,1.2359619140625,0.4425048828125,50.0640869140625
7.329999900000001,-9.421183586120605,-2.2840683460235596,-2.715024709701538,-9.8419189453125,2.1209716796875,53.802490234375
7.3499999,-9.478644371032715,-1.7884687185287476,-2.6815059185028076,-21.66748046875,-0.3204345703125,54.9774169921875
7.369999900000001,-9.567230224609375,-1.3503297567367554,-2.676717519760132,-31.6009521484375,-2.1514892578125,54.6417236328125
7.3899999,-9.646238327026367,-0.9768342971801758,-2.6815059185028076,-36.6668701171875,-0.5950927734375,53.3447265625
7.409999900000001,-9.727641105651855,-0.7182605266571045,-2.7102363109588623,-34.60693359375,2.8533935546875,48.64501953125
7.4299999,-9.825803756713867,-0.5386953949928284,-2.786850690841675,-28.4271240234375,5.1116943359375,38.1622314453125
7.449999900000001,-9.950302124023438,-0.42616790533065796,-2.913743495941162,-21.3775634765625,3.570556640625,24.4293212890625
7.4699999,-10.074800491333008,-0.3711012601852417,-3.071760892868042,-13.6871337890625,-0.0457763671875,10.3302001953125
7.489999900000001,-10.189722061157227,-0.33279404044151306,-3.201047658920288,-7.7362060546875,-1.3427734375,-1.861572265625
7.5099999,-10.235212326049805,-0.3016694188117981,-3.2752678394317627,-4.2724609375,-1.0528564453125,-11.0931396484375
7.529999900000001,-10.20648193359375,-0.2801215946674347,-3.2752678394317627,-2.655029296875,-1.8463134765625,-17.6849365234375
7.5499999,-10.113107681274414,-0.26815059781074524,-3.2345664501190186,-2.62451171875,-5.67626953125,-20.5535888671875
7.569999900000001,-9.926360130310059,-0.29209262132644653,-3.160346269607544,-3.509521484375,-10.5133056640625,-19.4549560546875
7.5899999000000005,-9.674968719482422,-0.3519476354122162,-3.066972494125366,-5.0201416015625,-13.0157470703125,-15.7470703125
7.609999900000001,-9.394847869873047,-0.4357447028160095,-2.9735984802246094,-7.26318359375,-10.162353515625,-10.8795166015625
7.6299999000000005,-9.133879661560059,-0.5339069962501526,-2.8993782997131348,-8.7432861328125,-5.06591796875,-6.2255859375
7.649999900000001,-8.954314231872559,-0.6177040338516235,-2.8658595085144043,-8.9111328125,0,-2.7008056640625
7.6699999000000005,-8.889671325683594,-0.6751648783683777,-2.873042106628418,-8.3465576171875,3.9520263671875,0.06103515625
7.6899999,-8.927978515625,-0.6967126727104187,-2.9089550971984863,-7.99560546875,6.134033203125,2.7618408203125
7.709999900000001,-9.05247688293457,-0.689530074596405,-2.959233283996582,-7.6904296875,6.8359375,4.4403076171875
7.7299999,-9.229647636413574,-0.6512228846549988,-3.004723072052002,-7.62939453125,6.6070556640625,5.1116943359375
7.749999900000001,-9.411606788635254,-0.6033388376235962,-3.050212860107422,-7.2479248046875,6.622314453125,4.7149658203125
7.7699999,-9.579200744628906,-0.5602431893348694,-3.098097085952759,-5.9661865234375,7.0953369140625,3.4027099609375
7.789999900000001,-9.694122314453125,-0.5386953949928284,-3.138798475265503,-4.3182373046875,6.9732666015625,2.0294189453125
7.8099999,-9.75397777557373,-0.5434837937355042,-3.1675288677215576,-2.7313232421875,6.0272216796875,0.9002685546875
7.829999900000001,-9.761159896850586,-0.5674257874488831,-3.1914708614349365,-1.6632080078125,4.8370361328125,0.0762939453125
7.8499999,-9.725247383117676,-0.5961562395095825,-3.1890766620635986,-1.007080078125,3.35693359375,-0.67138671875
7.869999900000001,-9.667786598205566,-0.6248866319656372,-3.1723172664642334,-0.518798828125,3.0517578125,-1.1444091796875
7.8899999,-9.612719535827637,-0.646434485912323,-3.1507694721221924,-0.732421875,4.241943359375,-0.9918212890625
7.909999900000001,-9.57201862335205,-0.667982280254364,-3.1435868740081787,-1.617431640625,5.401611328125,-0.9002685546875
7.9299999,-9.548076629638672,-0.6943184733390808,-3.160346269607544,-2.166748046875,5.79833984375,-1.678466796875
7.949999900000001,-9.543288230895996,-0.7206547260284424,-3.19865345954895,-1.1444091796875,6.8206787109375,-2.777099609375
7.9699999,-9.550470352172852,-0.7733271718025208,-3.2632968425750732,0.48828125,9.429931640625,-3.5552978515625
7.989999900000001,-9.617507934570312,-0.8786720037460327,-3.375824451446533,1.3580322265625,11.3372802734375,-3.96728515625
8.0099999,-9.734824180603027,-1.0223240852355957,-3.533841609954834,2.38037109375,11.505126953125,-5.523681640625
8.0299999,-9.923966407775879,-1.2330138683319092,-3.7469255924224854,7.293701171875,11.7645263671875,-10.4827880859375
8.049999900000001,-10.163386344909668,-1.5298948287963867,-4.015076160430908,15.0146484375,16.05224609375,-17.4713134765625
8.069999900000001,-10.445901870727539,-1.9033904075622559,-4.32871675491333,23.3306884765625,18.98193359375,-23.4832763671875
8.0899999,-10.737994194030762,-2.3558945655822754,-4.666299343109131,34.332275390625,13.4735107421875,-31.7230224609375
8.1099999,-11.018115997314453,-2.8443117141723633,-4.967968463897705,47.8973388671875,6.0577392578125,-44.2962646484375
8.129999900000001,-11.219228744506836,-3.292027235031128,-5.173870086669922,59.9517822265625,4.302978515625,-57.9833984375
8.149999900000001,-11.295844078063965,-3.665522813796997,-5.2049946784973145,70.3582763671875,4.5928955078125,-69.82421875
8.1699999,-11.219228744506836,-3.909731388092041,-5.061342239379883,77.2247314453125,5.706787109375,-79.376220703125
8.1899999,-11.051634788513184,-4.098873138427734,-4.800374507904053,85.44921875,6.622314453125,-86.3037109375
8.2099999,-10.833763122558594,-4.218583583831787,-4.460397720336914,89.3707275390625,11.0015869140625,-92.926025390625
8.229999900000001,-10.663774490356445,-4.28322696685791,-4.077325344085693,85.693359375,20.1263427734375,-101.3336181640625
8.2499999,-10.551246643066406,-4.343081951141357,-3.7181951999664307,89.2333984375,23.681640625,-110.015869140625
8.2699999,-10.508151054382324,-4.381389141082764,-3.3925838470458984,91.9189453125,19.83642578125,-118.10302734375
8.2899999,-10.484209060668945,-4.489128112792969,-3.1531636714935303,91.2322998046875,13.0157470703125,-122.5738525390625
8.309999900000001,-10.359710693359375,-4.754884719848633,-2.7940332889556885,85.02197265625,4.0435791015625,-126.129150390625
8.3299999,-10.216058731079102,-4.891354084014893,-2.604891538619995,79.8492431640625,5.126953125,-128.47900390625
8.3499999,-9.998186111450195,-5.044582843780518,-2.3989901542663574,73.79150390625,7.049560546875,-130.4473876953125
8.3699999,-9.72285270690918,-5.2265424728393555,-2.1811177730560303,68.5882568359375,7.8125,-131.5155029296875
8.389999900000001,-9.409213066101074,-5.449203014373779,-1.9800047874450684,61.920166015625,7.476806640625,-131.40869140625
8.4099999,-9.069235801696777,-5.688623428344727,-1.8100165128707886,54.01611328125,5.4931640625,-132.1258544921875
8.4299999,-8.729259490966797,-5.975927352905273,-1.680729627609253,47.882080078125,1.4495849609375,-134.2620849609375
8.4499999,-8.382100105285645,-6.275202751159668,-1.5897499322891235,42.327880859375,-2.01416015625,-134.735107421875
8.469999900000001,-8.066065788269043,-6.605602264404297,-1.5179238319396973,36.651611328125,-3.326416015625,-134.3536376953125
8.4899999,-7.7883381843566895,-6.926425457000732,-1.45806884765625,31.92138671875,-2.25830078125,-137.237548828125
8.5099999,-7.524975776672363,-7.196970462799072,-1.41257905960083,29.0069580078125,-1.89208984375,-145.99609375
8.5299999,-7.237671852111816,-7.407660007476807,-1.3527239561080933,26.8402099609375,-7.2479248046875,-155.975341796875
8.549999900000001,-6.821080684661865,-7.558494567871094,-1.2617442607879639,23.5748291015625,-15.1214599609375,-160.33935546875
8.569999900000001,-6.217741966247559,-7.702147006988525,-1.1420341730117798,19.5159912109375,-19.287109375,-160.125732421875
8.5899999,-5.47075080871582,-7.85537576675415,-0.9911994934082031,11.871337890625,-20.4925537109375,-157.9132080078125
8.6099999,-4.632780075073242,-8.003816604614258,-0.8547300100326538,3.8299560546875,-21.942138671875,-153.6865234375
8.629999900000001,-3.780444383621216,-8.157045364379883,-0.751779317855835,-1.5716552734375,-23.7579345703125,-149.6734619140625
8.649999900000001,-2.9951462745666504,-8.303091049194336,-0.7086837291717529,-5.950927734375,-22.2320556640625,-145.69091796875
8.6699999,-2.298433542251587,-8.439560890197754,-0.7230489253997803,-10.7879638671875,-17.9290771484375,-139.5263671875
8.6899999,-1.723825216293335,-8.552088737487793,-0.7996633648872375,-13.2904052734375,-14.9078369140625,-133.8653564453125
8.709999900000001,-1.2617442607879639,-8.614337921142578,-0.933738648891449,-12.8326416015625,-13.2293701171875,-132.3089599609375
8.729999900000001,-0.8786720037460327,-8.647856712341309,-1.094150185585022,-9.8419189453125,-12.87841796875,-134.09423828125
8.7499999,-0.5003881454467773,-8.65982723236084,-1.235408067703247,-7.8887939453125,-11.505126953125,-133.544921875
8.7699999,-0.090979665517807,-8.683769226074219,-1.3287819623947144,-7.568359375,-8.453369140625,-128.6468505859375
8.7899999,0.35673606395721436,-8.746018409729004,-1.3694833517074585,-8.6212158203125,-5.9661865234375,-121.7193603515625
8.809999900000001,0.7972691655158997,-8.801085472106934,-1.3862427473068237,-10.284423828125,-6.317138671875,-114.3798828125
8.8299999,1.2234370708465576,-8.822632789611816,-1.3982137441635132,-10.5743408203125,-7.8582763671875,-109.0087890625
8.8499999,1.6304513216018677,-8.803479194641113,-1.4197616577148438,-8.60595703125,-4.8980712890625,-107.5592041015625
8.8699999,2.0231003761291504,-8.75080680847168,-1.45806884765625,-5.523681640625,1.8157958984375,-107.60498046875
8.889999900000001,2.4157495498657227,-8.671798706054688,-1.4987702369689941,-2.960205078125,5.9661865234375,-106.4453125
8.9099999,2.7892448902130127,-8.607154846191406,-1.5682021379470825,0.5645751953125,6.1492919921875,-105.95703125
8.9299999,3.1723172664642334,-8.556877136230469,-1.644816517829895,5.2337646484375,5.2490234375,-106.353759765625
8.9499999,3.550601005554199,-8.516175270080566,-1.7166426181793213,10.07080078125,8.0718994140625,-104.8431396484375
8.969999900000001,3.914519786834717,-8.497021675109863,-1.778891921043396,14.7552490234375,11.4593505859375,-100.4638671875
8.9899999,4.225766181945801,-8.492233276367188,-1.8315643072128296,19.4091796875,9.6435546875,-96.0693359375
9.0099999,4.503493309020996,-8.427590370178223,-1.8483237028121948,23.956298828125,5.8441162109375,-93.7652587890625
9.0299999,4.754884719848633,-8.312667846679688,-1.8195933103561401,28.86962890625,9.002685546875,-94.1619873046875
9.049999900000001,5.015852451324463,-8.101978302001953,-1.7262194156646729,32.28759765625,16.2353515625,-93.536376953125
9.069999900000001,5.286397457122803,-7.826645374298096,-1.5825673341751099,33.3099365234375,18.5394287109375,-91.1865234375
9.0899999,5.56173038482666,-7.534552574157715,-1.4101848602294922,32.6080322265625,15.80810546875,-88.5467529296875
9.1099999,5.832275390625,-7.228095054626465,-1.2258312702178955,29.937744140625,15.594482421875,-85.5712890625
9.129999900000001,6.095637321472168,-6.921637058258057,-1.0342950820922852,25.970458984375,21.240234375,-82.4127197265625
9.149999900000001,6.342240333557129,-6.6127848625183105,-0.8475474119186401,21.697998046875,27.6947021484375,-79.0863037109375
9.1699999,6.531382083892822,-6.291962146759033,-0.6751648783683777,17.0440673828125,30.6549072265625,-75.469970703125
9.1899999,6.658275127410889,-5.992686748504639,-0.5386953949928284,12.0391845703125,31.280517578125,-72.2503662109375
9.209999900000001,6.732495307922363,-5.729324817657471,-0.4405331015586853,7.7362060546875,31.7840576171875,-70.037841796875
9.229999900000001,6.806715488433838,-5.499481201171875,-0.3471592366695404,4.69970703125,34.0576171875,-68.7103271484375
9.2499999,6.89530086517334,-5.3127336502075195,-0.2537853717803955,2.62451171875,37.6739501953125,-67.87109375
9.2699999,6.981492042541504,-5.1595048904418945,-0.15801730751991272,-0.701904296875,37.6129150390625,-65.5670166015625
9.2899999,7.108384609222412,-5.0254292488098145,-0.038307227194309235,-4.730224609375,32.71484375,-62.7288818359375
9.309999900000001,7.271190643310547,-4.953603267669678,0.0933738648891449,-8.0108642578125,32.0587158203125,-61.0504150390625
9.3299999,7.467514991760254,-4.90571928024292,0.2322375625371933,-12.2528076171875,36.9873046875,-57.6629638671875
9.3499999,7.702147006988525,-4.884171485900879,0.3878606855869293,-17.5323486328125,38.848876953125,-52.30712890625
9.3699999,7.881711959838867,-4.876988887786865,0.5123591423034668,-22.0184326171875,35.3851318359375,-47.149658203125
9.389999900000001,7.9846625328063965,-4.843470096588135,0.5817909836769104,-24.932861328125,29.23583984375,-44.0521240234375
9.4099999,8.039729118347168,-4.7836151123046875,0.6392518281936646,-25.57373046875,29.1595458984375,-45.9136962890625
9.4299999,8.075642585754395,-4.72376012802124,0.6799532771110535,-25.4058837890625,40.0238037109375,-52.3681640625
9.4499999,8.111555099487305,-4.680664539337158,0.7254431247711182,-27.7099609375,45.8984375,-56.15234375
9.469999900000001,8.149862289428711,-4.649539470672607,0.7733271718025208,-32.04345703125,37.2314453125,-53.619384765625
9.4899999,8.190564155578613,-4.599261283874512,0.8403648138046265,-35.064697265625,25.5889892578125,-50.537109375
9.5099999,8.224082946777344,-4.520252704620361,0.9097966551780701,-35.7818603515625,22.5982666015625,-51.300048828125
9.5299999,8.269572257995605,-4.402936935424805,1.0103530883789062,-36.1480712890625,23.3154296875,-52.91748046875
9.549999900000001,8.339004516601562,-4.247313976287842,1.113303780555725,-38.6199951171875,21.9268798828125,-52.8717041015625
9.569999900000001,8.398859977722168,-4.10366153717041,1.1803414821624756,-41.6412353515625,19.6533203125,-52.91748046875
9.5899999,8.437167167663574,-3.9600095748901367,1.1683704853057861,-44.9371337890625,15.350341796875,-52.8564453125
9.6099999,8.47547435760498,-3.8139634132385254,1.0821791887283325,-47.7752685546875,8.0108642578125,-52.1240234375
9.629999900000001,8.51138687133789,-3.6822822093963623,0.9289502501487732,-48.858642578125,2.3956298828125,-52.79541015625
9.649999900000001,8.576030731201172,-3.5649664402008057,0.7565677165985107,-47.3785400390625,3.7078857421875,-55.60302734375
9.6699999,8.664615631103516,-3.471592426300049,0.586579442024231,-43.6859130859375,10.3607177734375,-59.0057373046875
9.6899999,8.791508674621582,-3.404554843902588,0.45489832758903503,-38.4063720703125,15.3961181640625,-61.1724853515625
9.709999900000001,8.918401718139648,-3.3446998596191406,0.3663128614425659,-32.1807861328125,17.669677734375,-61.58447265625
9.729999900000001,9.066842079162598,-3.2609026432037354,0.33518823981285095,-24.871826171875,18.5394287109375,-60.333251953125
9.7499999,9.138668060302734,-3.1459810733795166,0.33997663855552673,-16.90673828125,17.8375244140625,-56.8084716796875
9.7699999,9.222464561462402,-2.956839084625244,0.40462008118629456,-10.2386474609375,12.4053955078125,-52.8717041015625
9.7899999,9.244012832641602,-2.7126305103302,0.4884171485900879,-5.06591796875,8.5906982421875,-49.224853515625
9.809999900000001,9.263166427612305,-2.4013843536376953,0.6105214357376099,-0.7171630859375,8.331298828125,-45.7611083984375
9.8299999,9.289502143859863,-2.032677173614502,0.7781155705451965,2.105712890625,11.4593505859375,-42.999267578125
9.8499999,9.308655738830566,-1.6615760326385498,0.9648633003234863,3.5247802734375,17.4560546875,-41.1834716796875
9.8699999,9.313444137573242,-1.3335703611373901,1.137245774269104,3.692626953125,18.9971923828125,-38.4521484375
9.889999900000001,9.327810287475586,-1.0797849893569946,1.2832920551300049,3.11279296875,12.5274658203125,-33.6456298828125
9.9099999,9.361329078674316,-0.9050082564353943,1.3862427473068237,2.25830078125,5.9356689453125,-28.1982421875
9.9299999,9.402029991149902,-0.7876923680305481,1.4508862495422363,0.9765625,4.5318603515625,-23.6053466796875
9.9499999,9.461885452270508,-0.6799532771110535,1.5107412338256836,-0.1678466796875,3.509521484375,-19.3939208984375
9.969999900000001,9.500192642211914,-0.5889736413955688,1.534683346748352,-1.0833740234375,1.03759765625,-15.31982421875
9.9899999,9.512163162231445,-0.5051765441894531,1.5275006294250488,-2.44140625,-4.6844482421875,-11.7034912109375
10.0099999,9.502586364746094,-0.42856210470199585,1.5059528350830078,-4.6234130859375,-11.627197265625,-9.4757080078125
10.0299999,9.48343276977539,-0.3663128614425659,1.4891934394836426,-6.6070556640625,-12.8936767578125,-9.5977783203125
10.049999900000001,9.457097053527832,-0.3208230137825012,1.4963760375976562,-7.7056884765625,-9.7808837890625,-11.65771484375
10.069999900000001,9.428366661071777,-0.2968810200691223,1.5275006294250488,-9.063720703125,-11.3983154296875,-13.73291015625
10.0899999,9.421183586120605,-0.28969839215278625,1.599326729774475,-11.627197265625,-19.22607421875,-15.13671875
10.1099999,9.437943458557129,-0.2992752194404602,1.6903064250946045,-15.411376953125,-24.1546630859375,-16.1590576171875
10.129999900000001,9.464279174804688,-0.304063618183136,1.7812861204147339,-19.6990966796875,-25.421142578125,-17.1966552734375
10.149999900000001,9.502586364746094,-0.28969839215278625,1.8507179021835327,-22.7813720703125,-28.8238525390625,-20.20263671875
10.1699999,9.516951560974121,-0.2753331959247589,1.8363527059555054,-23.8494873046875,-31.7535400390625,-25.93994140625
10.1899999,9.528923034667969,-0.27054479718208313,1.742978811264038,-23.681640625,-34.5306396484375,-31.2652587890625
10.209999900000001,9.564835548400879,-0.3016694188117981,1.5945383310317993,-22.7813720703125,-39.2303466796875,-33.3251953125
10.229999900000001,9.607931137084961,-0.363918662071228,1.3766659498214722,-22.1710205078125,-46.356201171875,-31.6619873046875
10.2499999,9.674968719482422,-0.42616790533065796,1.1276689767837524,-21.820068359375,-57.31201171875,-28.3355712890625
10.2699999,9.751583099365234,-0.4429273009300232,0.8547300100326538,-21.8048095703125,-63.6749267578125,-25.7720947265625
10.2899999,9.818621635437012,-0.4213795065879822,0.5530605912208557,-21.66748046875,-58.0902099609375,-24.71923828125
10.309999900000001,9.847352027893066,-0.3687070608139038,0.22026655077934265,-20.81298828125,-52.734375,-23.162841796875
10.3299999,9.847352027893066,-0.31603461503982544,-0.13168109953403473,-18.951416015625,-54.2449951171875,-19.95849609375
10.3499999,9.797073364257812,-0.2777273952960968,-0.4836287498474121,-16.1285400390625,-52.7191162109375,-17.39501953125
10.3699999,9.694122314453125,-0.2561795711517334,-0.8259995579719543,-12.1307373046875,-41.9158935546875,-17.15087890625
10.389999900000001,9.543288230895996,-0.2513911724090576,-1.1635819673538208,-5.950927734375,-34.3017578125,-18.06640625
10.4099999,9.344569206237793,-0.2513911724090576,-1.4700398445129395,0.9918212890625,-39.794921875,-18.157958984375
10.4299999,9.138668060302734,-0.2513911724090576,-1.7693150043487549,7.4310302734375,-42.938232421875,-19.2413330078125
10.4499999,8.959102630615234,-0.272938996553421,-2.0614075660705566,12.4969482421875,-36.4532470703125,-22.27783203125
10.469999900000001,8.863334655761719,-0.2944868206977844,-2.3104045391082764,15.6097412109375,-35.736083984375,-22.796630859375
10.4899999,8.820239067077637,-0.3280056416988373,-2.559401512145996,16.5557861328125,-42.4652099609375,-19.4854736328125
10.5099999,8.825027465820312,-0.33518823981285095,-2.782062292098999,16.7236328125,-43.0145263671875,-17.486572265625
10.5299999,8.848969459533691,-0.3016694188117981,-2.9520506858825684,18.06640625,-32.5775146484375,-20.965576171875
10.549999900000001,8.863334655761719,-0.2059013396501541,-3.0573954582214355,19.805908203125,-17.6849365234375,-27.496337890625
10.569999900000001,8.851364135742188,-0.06224924325942993,-3.0837318897247314,21.1334228515625,-11.7340087890625,-31.402587890625
10.5899999,8.829815864562988,0.12210428714752197,-3.0406360626220703,21.7437744140625,-12.054443359375,-32.77587890625
10.6099999,8.815450668334961,0.33997663855552673,-2.940079689025879,20.99609375,-8.9569091796875,-34.1644287109375
10.629999900000001,8.832210540771484,0.569819986820221,-2.7988216876983643,18.49365234375,-1.983642578125,-33.7371826171875
10.649999900000001,8.882488250732422,0.7924807667732239,-2.6408045291900635,15.7470703125,0.5950927734375,-29.4647216796875
10.6699999,8.947132110595703,0.9959878921508789,-2.5043349266052246,14.58740234375,-3.4332275390625,-23.2696533203125
10.6899999,8.99740982055664,1.1851298809051514,-2.410961151123047,14.5416259765625,-7.8277587890625,-18.9056396484375
10.709999900000001,9.033323287963867,1.3838485479354858,-2.382230758666992,14.7247314453125,-9.8114013671875,-16.143798828125
10.729999900000001,9.078812599182129,1.5921441316604614,-2.4013843536376953,14.4500732421875,-14.16015625,-13.275146484375
10.7499999,9.14345645904541,1.7980455160140991,-2.4612393379211426,13.1683349609375,-18.341064453125,-9.063720703125
10.7699999,9.224859237670898,1.9800047874450684,-2.5474305152893066,12.115478515625,-19.2108154296875,-4.1961669921875
10.7899999,9.29189682006836,2.142810583114624,-2.6575639247894287,11.29150390625,-20.44677734375,0.8544921875
10.809999900000001,9.320627212524414,2.298433542251587,-2.8179752826690674,9.94873046875,-25.482177734375,5.92041015625
10.8299999,9.32541561126709,2.4588451385498047,-3.026270866394043,7.5531005859375,-32.04345703125,11.138916015625
10.8499999,9.349357604980469,2.6024973392486572,-3.2537200450897217,5.035400390625,-31.463623046875,17.0745849609375
10.8699999,9.404424667358398,2.698265314102173,-3.485957622528076,2.7313232421875,-20.5078125,26.4739990234375
10.889999900000001,9.48343276977539,2.717418909072876,-3.6774938106536865,1.220703125,-8.1634521484375,40.34423828125
10.9099999,9.514557838439941,2.6384103298187256,-3.8379054069519043,1.220703125,1.129150390625,56.3201904296875
10.9299999,9.464279174804688,2.477998733520508,-3.9480385780334473,2.777099609375,4.8675537109375,72.265625
10.9499999,9.311050415039062,2.2601263523101807,-3.995922565460205,5.645751953125,3.7689208984375,86.1968994140625
10.969999900000001,9.081207275390625,2.0039467811584473,-3.974374771118164,9.1552734375,4.9591064453125,97.564697265625
10.9899999,8.801085472106934,1.7286136150360107,-3.892971992492676,12.51220703125,7.0953369140625,107.9254150390625
11.0099999,8.504204750061035,1.4460978507995605,-3.7708675861358643,14.984130859375,5.1422119140625,117.00439453125
11.0299999,8.219294548034668,1.158793568611145,-3.6320040225982666,16.0369873046875,1.6632080078125,124.237060546875
11.049999900000001,7.972691535949707,0.8643068075180054,-3.485957622528076,14.5416259765625,0.7476806640625,131.04248046875
11.069999900000001,7.769184589385986,0.5530605912208557,-3.35667085647583,10.31494140625,2.593994140625,136.627197265625
11.0899999,7.599195957183838,0.2106897532939911,-3.2632968425750732,5.2337646484375,2.3040771484375,139.9078369140625
11.1099999,7.47230339050293,-0.17717093229293823,-3.203441858291626,0.2899169921875,-0.54931640625,142.2271728515625
11.129999900000001,7.350199222564697,-0.629675030708313,-3.220201253890991,-4.2877197265625,1.0528564453125,143.157958984375
11.149999900000001,7.24485445022583,-1.1300631761550903,-3.2752678394317627,-8.392333984375,3.448486328125,142.2576904296875
11.1699999,7.144298076629639,-1.6831238269805908,-3.359065055847168,-11.29150390625,1.922607421875,140.56396484375
11.1899999,7.046135425567627,-2.2457611560821533,-3.423708438873291,-13.7176513671875,0.0762939453125,139.1143798828125
11.209999900000001,6.943184852600098,-2.8107926845550537,-3.4524388313293457,-16.8304443359375,2.899169921875,137.51220703125
11.229999900000001,6.821080684661865,-3.3423056602478027,-3.4380736351013184,-20.7061767578125,2.8839111328125,137.451171875
11.2499999,6.63433313369751,-3.840299606323242,-3.4189200401306152,-23.6663818359375,-3.570556640625,138.8397216796875
11.2699999,6.399701118469238,-4.311957359313965,-3.4165258407592773,-24.932861328125,-11.3067626953125,138.36669921875
11.2899999,6.138733386993408,-4.771644115447998,-3.4308910369873047,-26.580810546875,-15.80810546875,135.7879638671875
11.309999900000001,5.889736175537109,-5.20978307723999,-3.4572272300720215,-29.5562744140625,-16.2506103515625,133.48388671875
11.3299999,5.652710437774658,-5.647922039031982,-3.5170822143554688,-30.8074951171875,-13.2904052734375,130.0506591796875
11.3499999,5.418078422546387,-6.086060523986816,-3.622427225112915,-29.327392578125,-12.176513671875,125.06103515625
11.3699999,5.185841083526611,-6.490680694580078,-3.7469255924224854,-28.9154052734375,-15.4266357421875,121.3531494140625
11.389999900000001,4.948814868927002,-6.847416877746582,-3.869029998779297,-30.76171875,-14.16015625,118.2861328125
11.4099999,4.69024133682251,-7.168240070343018,-3.971980571746826,-32.2723388671875,-6.439208984375,113.677978515625
11.4299999,4.400542736053467,-7.42681360244751,-4.043806552886963,-32.470703125,-2.62451171875,108.978271484375
11.4499999,4.0749311447143555,-7.6566572189331055,-4.098873138427734,-32.8216552734375,-2.288818359375,105.4840087890625
11.469999900000001,3.6774938106536865,-7.915230751037598,-4.197035789489746,-33.63037109375,1.64794921875,103.759765625
11.4899999,3.2585084438323975,-8.180987358093262,-4.304774761199951,-33.203125,-1.373291015625,106.3690185546875
11.5099999,2.8227639198303223,-8.456320762634277,-4.441244125366211,-30.0750732421875,-8.3465576171875,109.100341796875
11.5299999,2.3774423599243164,-8.688557624816895,-4.580107688903809,-25.1312255859375,-9.46044921875,108.3984375
11.549999900000001,1.946485996246338,-8.83939266204834,-4.699818134307861,-18.6309814453125,-5.18798828125,104.583740234375
11.569999900000001,1.5682021379470825,-8.920795440673828,-4.793191909790039,-11.2457275390625,-2.2735595703125,99.090576171875
11.5899999,1.278503656387329,-8.9064302444458,-4.812345504760742,-5.645751953125,-4.2877197265625,96.282958984375
11.6099999,1.0773907899856567,-8.844181060791016,-4.778826713562012,-3.0975341796875,-3.72314453125,97.7325439453125
11.629999900000001,0.950498104095459,-8.736441612243652,-4.687847137451172,-2.5787353515625,-1.800537109375,100.2044677734375
11.649999900000001,0.8906430602073669,-8.542511940002441,-4.513070106506348,-2.716064453125,-4.791259765625,102.630615234375
11.6699999,0.8236053586006165,-8.35097599029541,-4.367023944854736,-2.9754638671875,-4.8370361328125,104.55322265625
11.6899999,0.7086837291717529,-8.236053466796875,-4.268861770629883,-4.730224609375,-8.5296630859375,111.9384765625
11.709999900000001,0.5363011956214905,-8.20732307434082,-4.240131378173828,-9.6588134765625,-18.7225341796875,125.7171630859375
11.729999900000001,0.22026655077934265,-8.327033042907715,-4.355052947998047,-12.63427734375,-16.754150390625,135.101318359375
11.7499999,-0.27054479718208313,-8.573636054992676,-4.618414878845215,-9.5977783203125,-5.5999755859375,137.176513671875
11.7699999,-0.9002198576927185,-8.865729331970215,-4.9799394607543945,-0.823974609375,-2.4261474609375,135.2996826171875
11.7899999,-1.5849615335464478,-9.160215377807617,-5.365406036376953,10.3912353515625,-2.5177001953125,129.669189453125
11.809999900000001,-2.209848165512085,-9.418789863586426,-5.669469833374023,20.3857421875,3.509521484375,121.7193603515625
11.8299999,-2.671929121017456,-9.619902610778809,-5.791574001312256,26.30615234375,7.0037841796875,118.011474609375
11.8499999,-2.937685489654541,-9.746794700622559,-5.7125654220581055,26.55029296875,4.669189453125,118.22509765625
11.8699999,-3.07415509223938,-9.832986831665039,-5.504269599914551,25.0244140625,7.87353515625,116.6534423828125
11.889999900000001,-3.2537200450897217,-9.782708168029785,-4.967968463897705,28.3355712890625,14.4195556640625,103.0426025390625
11.9099999,-3.3662476539611816,-9.694122314453125,-4.716577529907227,30.059814453125,12.14599609375,95.0927734375
11.9299999,-3.49314022064209,-9.567230224609375,-4.455609321594238,26.336669921875,12.5732421875,91.6748046875
11.9499999,-3.6367924213409424,-9.425971984863281,-4.197035789489746,18.035888671875,19.2718505859375,87.921142578125
11.969999900000001,-3.8067808151245117,-9.241618156433105,-3.976768970489502,9.5672607421875,25.81787109375,81.573486328125
11.9899999,-4.022258758544922,-9.02135181427002,-3.8570590019226074,3.7994384765625,26.5960693359375,75.25634765625
12.0099999,-4.2544965744018555,-8.791508674621582,-3.8546648025512695,1.7852783203125,23.8189697265625,70.2056884765625
12.0299999,-4.486733913421631,-8.576030731201172,-3.9240965843200684,1.3427734375,22.9644775390625,67.138671875
12.049999900000001,-4.709394931793213,-8.391676902770996,-4.015076160430908,-1.129150390625,25.146484375,66.5740966796875
12.069999900000001,-4.920084476470947,-8.245630264282227,-4.094084739685059,-6.072998046875,25.93994140625,67.0013427734375
12.0899999,-5.128379821777344,-8.14028549194336,-4.158728122711182,-11.1236572265625,27.252197265625,67.93212890625
12.1099999,-5.319916248321533,-8.090007781982422,-4.235342979431152,-14.0380859375,31.06689453125,69.5037841796875
12.129999900000001,-5.489904403686523,-8.08282470703125,-4.355052947998047,-14.7247314453125,34.1644287109375,73.6846923828125
12.149999900000001,-5.664681434631348,-8.085219383239746,-4.548983097076416,-12.2833251953125,37.2314453125,78.2012939453125
12.1699999,-5.87776517868042,-8.078036308288574,-4.819528102874756,-3.35693359375,37.0941162109375,76.202392578125
12.1899999,-6.114790916442871,-8.037335395812988,-5.102043628692627,10.31494140625,29.6173095703125,69.3206787109375
12.209999900000001,-6.339846134185791,-7.95832633972168,-5.331887245178223,22.3388671875,20.0347900390625,63.4765625
12.229999900000001,-6.464344501495361,-7.850587368011475,-5.396530628204346,29.6478271484375,15.7928466796875,59.2803955078125
12.2499999,-6.45476770401001,-7.7213006019592285,-5.281609058380127,31.7535400390625,19.7906494140625,54.6417236328125
12.2699999,-6.356605529785156,-7.587224960327148,-5.04218864440918,30.33447265625,24.3072509765625,51.483154296875
12.289999900000002,-6.2416839599609375,-7.450755596160889,-4.757278919219971,27.89306640625,21.6522216796875,50.750732421875
12.309999900000001,-6.18182897567749,-7.328651428222656,-4.5154643058776855,26.55029296875,15.380859375,48.797607421875
12.3299999,-6.224924564361572,-7.223306655883789,-4.364629745483398,27.3590087890625,11.4898681640625,44.6624755859375
12.3499999,-6.354211330413818,-7.134721279144287,-4.302380561828613,29.11376953125,8.7432861328125,40.5120849609375
12.3699999,-6.5481414794921875,-7.062894821166992,-4.302380561828613,30.731201171875,5.8135986328125,36.102294921875
12.389999900000001,-6.761225700378418,-6.993463039398193,-4.323928356170654,32.3333740234375,4.486083984375,29.998779296875
12.4099999,-6.9455790519714355,-6.909666061401367,-4.32871675491333,33.416748046875,5.584716796875,22.4761962890625
12.4299999,-7.067683219909668,-6.799532890319824,-4.290409564971924,33.5693359375,6.34765625,15.7318115234375
12.4499999,-7.105990409851074,-6.658275127410889,-4.189853191375732,32.3486328125,4.6539306640625,10.955810546875
12.469999900000001,-7.072471618652344,-6.502651691436768,-4.043806552886963,29.2816162109375,2.50244140625,7.354736328125
12.4899999,-6.983886241912842,-6.342240333557129,-3.864241600036621,24.078369140625,0.518798828125,4.8675537109375
12.5099999,-6.876147270202637,-6.191405773162842,-3.689464807510376,17.059326171875,-0.457763671875,3.631591796875
12.5299999,-6.782773494720459,-6.0621185302734375,-3.5434184074401855,9.5977783203125,0.9918212890625,2.349853515625
12.549999900000001,-6.730101108551025,-5.96874475479126,-3.450044631958008,2.9144287109375,2.410888671875,0.396728515625
12.569999900000001,-6.710947513580322,-5.916072368621826,-3.4117374420166016,-2.3956298828125,1.2359619140625,-1.6326904296875
12.5899999,-6.72531270980835,-5.920860767364502,-3.426102638244629,-6.6986083984375,-2.2125244140625,-2.838134765625
12.6099999,-6.744466304779053,-5.96874475479126,-3.4739866256713867,-9.5977783203125,-5.7830810546875,-3.3721923828125
12.629999900000001,-6.761225700378418,-6.057330131530762,-3.536235809326172,-11.260986328125,-8.0413818359375,-4.0130615234375
12.649999900000001,-6.7708024978637695,-6.155492782592773,-3.600879430770874,-12.6190185546875,-9.6893310546875,-4.4708251953125
12.6699999,-6.7708024978637695,-6.256049156188965,-3.6559460163116455,-14.007568359375,-11.4288330078125,-4.7607421875
12.6899999,-6.766014099121094,-6.344634532928467,-3.6966474056243896,-14.892578125,-11.7340087890625,-5.523681640625
12.709999900000001,-6.751648902893066,-6.423643112182617,-3.7277719974517822,-15.56396484375,-11.566162109375,-6.04248046875
12.729999900000001,-6.737283706665039,-6.497863292694092,-3.7469255924224854,-16.11328125,-11.53564453125,-6.8359375
12.7499999,-6.720524311065674,-6.567295074462891,-3.758896589279175,-16.7388916015625,-11.4898681640625,-7.904052734375
12.7699999,-6.7061591148376465,-6.63433313369751,-3.7660791873931885,-17.4560546875,-10.9710693359375,-8.11767578125
12.789999900000002,-6.701370716094971,-6.701370716094971,-3.780444383621216,-17.9290771484375,-10.7421875,-7.5836181640625
12.809999900000001,-6.703764915466309,-6.756437301635742,-3.794809579849243,-17.88330078125,-11.962890625,-7.415771484375
12.8299999,-6.710947513580322,-6.811503887176514,-3.821146011352539,-17.303466796875,-11.871337890625,-8.941650390625
12.8499999,-6.72531270980835,-6.852205276489258,-3.8546648025512695,-16.204833984375,-9.8114013671875,-10.772705078125
12.8699999,-6.744466304779053,-6.885724067687988,-3.8953661918640137,-14.5721435546875,-9.2315673828125,-12.359619140625
12.889999900000001,-6.775590896606445,-6.912060260772705,-3.9408559799194336,-12.603759765625,-11.505126953125,-13.3514404296875
12.9099999,-6.823474884033203,-6.967126846313477,-3.9815573692321777,-10.467529296875,-14.4195556640625,-14.22119140625
12.9299999,-6.89530086517334,-7.041347026824951,-4.010287761688232,-8.3465576171875,-15.7012939453125,-15.045166015625
12.9499999,-7.000645637512207,-7.12035608291626,-4.0294413566589355,-5.67626953125,-16.6778564453125,-18.73779296875
12.969999900000001,-7.110779285430908,-7.175422668457031,-4.0294413566589355,-2.3040771484375,-22.27783203125,-26.5045166015625
12.9899999,-7.182605266571045,-7.168240070343018,-3.998316764831543,-0.244140625,-31.2957763671875,-33.8287353515625
13.0099999,-7.16584587097168,-7.101202011108398,-3.9240965843200684,-0.8392333984375,-38.5284423828125,-37.9486083984375
13.0299999,-7.041347026824951,-6.995857238769531,-3.797203779220581,-3.8909912109375,-41.8243408203125,-39.48974609375
13.049999900000001,-6.835445880889893,-6.88332986831665,-3.6367924213409424,-8.514404296875,-41.5802001953125,-39.12353515625
13.069999900000001,-6.607996463775635,-6.773196697235107,-3.485957622528076,-13.8092041015625,-38.6810302734375,-37.59765625
13.0899999,-6.406883716583252,-6.672640323638916,-3.3734302520751953,-18.3563232421875,-35.2020263671875,-35.5682373046875
13.1099999,-6.27280855178833,-6.572083473205566,-3.3231520652770996,-21.7742919921875,-32.6080322265625,-33.69140625
13.129999900000001,-6.236895561218262,-6.502651691436768,-3.335123062133789,-24.0631103515625,-30.3802490234375,-32.53173828125
13.149999900000001,-6.361393928527832,-6.512228488922119,-3.4189200401306152,-24.7802734375,-27.83203125,-32.4249267578125
13.1699999,-6.67982292175293,-6.636727333068848,-3.581725835800171,-22.0947265625,-26.55029296875,-36.651611328125
13.1899999,-7.220912456512451,-6.9024834632873535,-3.8379054069519043,-12.1002197265625,-29.2816162109375,-51.544189453125
13.209999900000001,-7.848193168640137,-7.254431247711182,-4.084507942199707,4.730224609375,-41.2445068359375,-74.737548828125
13.229999900000001,-8.334216117858887,-7.663839817047119,-4.201824188232422,20.1263427734375,-56.57958984375,-98.2208251953125
13.2499999,-8.40843677520752,-8.066065788269043,-4.036623954772949,24.4903564453125,-70.1904296875,-111.87744140625
13.2699999,-7.922413349151611,-8.413225173950195,-3.529053211212158,16.357421875,-77.667236328125,-112.579345703125
13.289999900000002,-6.9695210456848145,-8.686163902282715,-2.7509377002716064,0.274658203125,-75.7293701171875,-105.0567626953125
13.309999900000001,-5.832275390625,-8.848969459533691,-1.9345149993896484,-21.392822265625,-67.962646484375,-96.0693359375
13.3299999,-4.819528102874756,-8.944737434387207,-1.2880805730819702,-43.212890625,-62.8814697265625,-94.085693359375
13.3499999,-4.153939723968506,-9.045293807983398,-0.9864110946655273,-58.380126953125,-56.9305419921875,-100.311279296875
13.3699999,-3.890577793121338,-9.246406555175781,-1.0773907899856567,-63.5986328125,-44.7540283203125,-108.673095703125
13.389999900000001,-3.9432501792907715,-9.569623947143555,-1.5155296325683594,-61.126708984375,-34.1339111328125,-115.6768798828125
13.4099999,-4.165910720825195,-10.002974510192871,-2.1595699787139893,-51.7120361328125,-34.9273681640625,-121.4752197265625
13.4299999,-4.434061527252197,-10.51054573059082,-2.8802247047424316,-36.376953125,-40.9698486328125,-124.7100830078125
13.4499999,-4.654327869415283,-10.986991882324219,-3.5458126068115234,-18.2037353515625,-47.3175048828125,-124.114990234375
13.469999900000001,-4.778826713562012,-11.331756591796875,-4.041412353515625,0.213623046875,-54.107666015625,-124.3438720703125
13.4899999,-4.757278919219971,-11.496956825256348,-4.3191399574279785,17.27294921875,-60.11962890625,-130.43212890625
13.5099999,-4.596867084503174,-11.453861236572266,-4.364629745483398,29.876708984375,-59.1278076171875,-137.9547119140625
13.5299999,-4.285621166229248,-11.250353813171387,-4.220977783203125,35.94970703125,-52.18505859375,-141.8304443359375
13.549999900000001,-3.8594532012939453,-10.967838287353516,-3.9408559799194336,38.2232666015625,-46.5545654296875,-144.1192626953125
13.569999900000001,-3.3734302520751953,-10.651803016662598,-3.627215623855591,37.872314453125,-39.794921875,-147.2625732421875
13.5899999,-2.8850131034851074,-10.326191902160645,-3.3710360527038574,36.9415283203125,-33.599853515625,-149.23095703125
13.6099999,-2.4013843536376953,-10.036493301391602,-3.2154128551483154,38.57421875,-38.299560546875,-147.9644775390625
13.629999900000001,-1.9153614044189453,-9.773131370544434,-3.1651346683502197,40.557861328125,-54.0618896484375,-142.2119140625
13.649999900000001,-1.41257905960083,-9.57201862335205,-3.1890766620635986,41.3665771484375,-68.4661865234375,-132.9193115234375
13.6699999,-0.8930372595787048,-9.423578262329102,-3.2321722507476807,41.900634765625,-75.25634765625,-121.6583251953125
13.6899999,-0.38546648621559143,-9.30386734008789,-3.28963303565979,42.41943359375,-79.010009765625,-109.1461181640625
13.709999900000001,0.0933738648891449,-9.155426979064941,-3.339911460876465,42.1295166015625,-85.2508544921875,-96.649169921875
13.729999900000001,0.4812345504760742,-9.002198219299316,-3.3949780464172363,42.6025390625,-90.9271240234375,-86.1663818359375
13.7499999,0.768538773059845,-8.791508674621582,-3.442862033843994,41.2445068359375,-88.775634765625,-78.6285400390625
13.7699999,0.993593692779541,-8.578424453735352,-3.471592426300049,39.85595703125,-75.958251953125,-78.7506103515625
13.789999900000002,1.1228805780410767,-8.4108304977417,-3.509899616241455,41.9464111328125,-63.690185546875,-84.53369140625
13.809999900000001,1.278503656387329,-8.305485725402832,-3.5003228187561035,47.027587890625,-66.375732421875,-84.4879150390625
13.8299999,1.4508862495422363,-8.269572257995605,-3.4763808250427246,52.6580810546875,-62.31689453125,-80.6732177734375
13.8499999,1.6855180263519287,-8.24084186553955,-3.3877954483032227,56.4727783203125,-52.1392822265625,-77.8350830078125
13.8699999,1.968033790588379,-8.200140953063965,-3.251325845718384,61.798095703125,-45.196533203125,-78.18603515625
13.889999900000001,2.2601263523101807,-8.121131896972656,-3.0789434909820557,69.1375732421875,-41.107177734375,-80.0628662109375
13.9099999,2.5665841102600098,-8.037335395812988,-2.8802247047424316,76.84326171875,-34.8358154296875,-80.3985595703125
13.9299999,2.8395233154296875,-7.94635534286499,-2.691082715988159,84.53369140625,-26.5350341796875,-79.7119140625
13.9499999,3.093308687210083,-7.8529815673828125,-2.5067291259765625,93.353271484375,-25.8026123046875,-80.2764892578125
13.969999900000001,3.3255462646484375,-7.714118003845215,-2.3247697353363037,103.7750244140625,-35.736083984375,-80.6427001953125
13.9899999,3.5649664402008057,-7.496245384216309,-2.1116859912872314,111.5875244140625,-49.041748046875,-79.2388916015625
14.0099999,3.8714241981506348,-7.194576263427734,-1.7741034030914307,113.250732421875,-58.074951171875,-78.277587890625
14.0299999,4.261679172515869,-6.8809356689453125,-1.3263877630233765,109.466552734375,-56.9610595703125,-78.55224609375
14.049999900000001,4.73573112487793,-6.567295074462891,-0.7661445140838623,101.2725830078125,-48.5382080078125,-77.545166015625
14.069999900000001,5.228936672210693,-6.253654956817627,-0.181959331035614,89.508056640625,-39.3829345703125,-74.6002197265625
14.0899999,5.719748020172119,-5.980715751647949,0.33997663855552673,77.4383544921875,-35.6597900390625,-72.3419189453125
14.1099999,6.169857978820801,-5.669469833374023,0.7733271718025208,64.056396484375,-39.0167236328125,-70.0225830078125
14.129999900000001,6.593631267547607,-5.394136428833008,1.1324573755264282,47.9583740234375,-43.609619140625,-65.5364990234375
14.149999900000001,6.998251438140869,-5.183446884155273,1.4437036514282227,30.8074951171875,-39.7796630859375,-56.732177734375
14.1699999,7.364564418792725,-5.0685248374938965,1.7118542194366455,12.0697021484375,-27.28271484375,-42.5872802734375
14.1899999,7.620744228363037,-5.049371242523193,1.946485996246338,-11.16943359375,-13.9007568359375,-24.749755859375
14.209999900000001,7.694964408874512,-5.1116204261779785,2.1068975925445557,-34.60693359375,2.13623046875,-6.1798095703125
14.229999900000001,7.532158374786377,-5.207388877868652,2.1045033931732178,-51.6357421875,26.8096923828125,8.9263916015625
14.2499999,7.218518257141113,-5.396530628204346,1.8938134908676147,-60.394287109375,44.769287109375,19.04296875
14.2699999,6.84981107711792,-5.681440830230713,1.4269442558288574,-60.4705810546875,32.135009765625,28.594970703125
14.289999900000002,6.45476770401001,-5.995080947875977,0.8547300100326538,-57.281494140625,-10.162353515625,40.46630859375
14.309999900000001,6.143521785736084,-6.279991149902344,0.3016694188117981,-50.628662109375,-44.98291015625,47.9736328125
14.3299999,5.853823184967041,-6.430825710296631,-0.035913024097681046,-43.3502197265625,-52.5360107421875,47.3480224609375
14.3499999,5.647922039031982,-6.461950302124023,-0.15801730751991272,-39.73388671875,-46.44775390625,41.1224365234375
14.3699999,5.513846397399902,-6.473921298980713,-0.10295066982507706,-39.9932861328125,-32.5775146484375,32.8369140625
14.389999900000001,5.442020416259766,-6.576871871948242,-0.05746084079146385,-43.1365966796875,-9.3231201171875,22.8118896484375
14.4099999,5.432443618774414,-6.7708024978637695,-0.07422025501728058,-46.44775390625,14.5721435546875,11.0015869140625
14.4299999,5.336675643920898,-7.096413612365723,-0.33758243918418884,-46.0968017578125,21.1334228515625,-3.326416015625
14.4499999,5.276820659637451,-7.4316020011901855,-0.7086837291717529,-41.2139892578125,-2.288818359375,-15.3961181640625
14.469999900000001,5.329493045806885,-7.735665798187256,-1.1540051698684692,-33.660888671875,-23.193359375,-23.2391357421875
14.4899999,5.564124584197998,-7.931990146636963,-1.5131354331970215,-28.1524658203125,-25.8331298828125,-25.1007080078125
14.5099999,6.035782337188721,-8.032546997070312,-1.7262194156646729,-23.681640625,-23.0712890625,-19.683837890625
14.5299999,6.643909931182861,-8.044517517089844,-1.8363527059555054,-18.4478759765625,-22.5830078125,-8.7127685546875
14.549999900000001,7.208941459655762,-8.01339340209961,-1.8914192914962769,-13.1072998046875,-25.787353515625,4.0130615234375
14.569999900000001,7.627926826477051,-7.965508937835693,-1.8986018896102905,-8.3770751953125,-25.238037109375,14.923095703125
14.5899999,7.8098859786987305,-7.90086555480957,-1.8842366933822632,-6.439208984375,-14.9993896484375,23.5595703125
14.6099999,7.692570209503174,-7.800309181213379,-1.8794482946395874,-6.317138671875,-2.5634765625,28.50341796875
14.629999900000001,7.292738437652588,-7.682993412017822,-1.8770540952682495,-3.7689208984375,-4.2724609375,26.18408203125
14.649999900000001,6.710947513580322,-7.577648162841797,-1.8770540952682495,-0.06103515625,-8.697509765625,17.8070068359375
14.6699999,6.112396717071533,-7.5201873779296875,-1.8531121015548706,1.373291015625,0.946044921875,8.8653564453125
14.6899999,5.616796970367432,-7.534552574157715,-1.7884687185287476,1.0223388671875,15.4266357421875,2.3651123046875
14.709999900000001,5.281609058380127,-7.6111674308776855,-1.7190368175506592,1.6937255859375,18.49365234375,-0.6866455078125
14.729999900000001,5.195417881011963,-7.649474620819092,-1.5538369417190552,2.197265625,10.9710693359375,-0.457763671875
14.7499999,5.161899089813232,-7.704541206359863,-1.479616641998291,-2.5634765625,18.5699462890625,-1.617431640625
14.7699999,5.315127849578857,-7.666234016418457,-1.2832920551300049,-7.6751708984375,18.1732177734375,-2.166748046875
14.789999900000002,5.542576789855957,-7.625532627105713,-1.1204863786697388,-13.214111328125,15.350341796875,0.18310546875
14.809999900000001,5.796362400054932,-7.582436561584473,-0.9481038451194763,-21.0418701171875,21.942138671875,5.3253173828125
14.8299999,6.007051944732666,-7.5632829666137695,-0.7996633648872375,-30.5633544921875,29.4189453125,11.932373046875
14.8499999,6.1267619132995605,-7.565677165985107,-0.7086837291717529,-37.4603271484375,29.5867919921875,16.4794921875
14.8699999,6.121973514556885,-7.601590633392334,-0.6823474764823914,-40.6341552734375,27.6031494140625,17.27294921875
14.889999900000001,6.035782337188721,-7.65186882019043,-0.7206547260284424,-41.19873046875,29.296875,17.76123046875
14.9099999,5.925649166107178,-7.709329605102539,-0.8259995579719543,-40.252685546875,34.332275390625,17.63916015625
14.9299999,5.791574001312256,-7.785943984985352,-0.9768342971801758,-39.2608642578125,36.1328125,13.48876953125
14.9499999,5.655104637145996,-7.90086555480957,-1.194706678390503,-36.865234375,34.3017578125,4.852294921875
14.969999900000001,5.504269599914551,-8.044517517089844,-1.436521053314209,-32.5775146484375,30.33447265625,-6.1492919921875
14.9899999,5.4013190269470215,-8.190564155578613,-1.6496049165725708,-27.313232421875,26.214599609375,-18.341064453125
15.0099999,5.394136428833008,-8.288725852966309,-1.7908629179000854,-21.697998046875,28.076171875,-31.8145751953125
15.0299999,5.51624059677124,-8.317456245422363,-1.845929503440857,-17.486572265625,36.1480712890625,-45.1202392578125
15.049999900000001,5.784391403198242,-8.259995460510254,-1.8148049116134644,-16.4794921875,42.9229736328125,-55.5267333984375
15.069999900000001,6.162675380706787,-8.121131896972656,-1.723825216293335,-16.0980224609375,46.0968017578125,-61.34033203125
15.0899999,6.586448669433594,-7.915230751037598,-1.5825673341751099,-13.7939453125,48.0804443359375,-63.53759765625
15.1099999,7.010222434997559,-7.627926826477051,-1.414973258972168,-11.566162109375,52.1087646484375,-64.0106201171875
15.129999900000001,7.398083209991455,-7.285555839538574,-1.2042834758758545,-9.1400146484375,53.5888671875,-63.53759765625
15.149999900000001,7.694964408874512,-6.943184852600098,-1.0271124839782715,-6.195068359375,50.3082275390625,-60.85205078125
15.1699999,7.893682956695557,-6.63433313369751,-0.871489405632019,-3.570556640625,39.8101806640625,-55.17578125
15.1899999,8.001421928405762,-6.399701118469238,-0.7733271718025208,0.579833984375,28.2745361328125,-49.2095947265625
15.209999900000001,8.051700592041016,-6.258443355560303,-0.7134721279144287,6.28662109375,21.2554931640625,-44.677734375
15.229999900000001,8.087613105773926,-6.172252178192139,-0.7015010714530945,11.7034912109375,15.869140625,-39.3829345703125
15.2499999,8.142680168151855,-6.119579315185547,-0.7110779285430908,16.7388916015625,8.85009765625,-32.5469970703125
15.2699999,8.214506149291992,-6.0597243309021,-0.7398083209991455,22.6898193359375,-0.2288818359375,-26.0162353515625
15.289999900000002,8.259995460510254,-5.983109951019287,-0.8044517636299133,30.059814453125,-13.214111328125,-21.3623046875
15.309999900000001,8.283937454223633,-5.872976779937744,-0.8595184087753296,38.1622314453125,-33.416748046875,-18.1121826171875
15.3299999,8.259995460510254,-5.750872611999512,-0.9217676520347595,45.4559326171875,-52.398681640625,-17.02880859375
15.3499999,8.192957878112793,-5.633556365966797,-0.9768342971801758,51.1932373046875,-63.7969970703125,-18.035888671875
15.3699999,8.111555099487305,-5.513846397399902,-1.01753568649292,54.74853515625,-68.6492919921875,-20.599365234375
15.389999900000001,8.020575523376465,-5.398924827575684,-1.0534487962722778,56.7779541015625,-65.8416748046875,-25.4974365234375
15.4099999,7.924807548522949,-5.2672438621521,-1.0821791887283325,57.830810546875,-57.1746826171875,-32.012939453125
15.4299999,7.812280178070068,-5.116408824920654,-1.1276689767837524,57.7392578125,-44.0521240234375,-38.2080078125
15.4499999,7.673416614532471,-4.955997467041016,-1.2066776752471924,56.1676025390625,-32.04345703125,-44.1436767578125
15.469999900000001,7.433996200561523,-4.654327869415283,-1.53707754611969,52.154541015625,-19.10400390625,-53.28369140625
15.4899999,7.417236804962158,-4.529829502105713,-1.7693150043487549,51.8951416015625,-7.2021484375,-55.5419921875
15.5099999,7.508216381072998,-4.426878929138184,-2.013523578643799,52.18505859375,2.288818359375,-56.15234375
15.5299999,7.723694801330566,-4.350264549255371,-2.207453966140747,51.8341064453125,2.99072265625,-53.4515380859375
15.549999900000001,8.08282470703125,-4.259284973144531,-2.274491548538208,49.49951171875,2.9754638671875,-46.5087890625
15.569999900000001,8.647856712341309,-4.129997730255127,-2.123656988143921,45.166015625,11.5966796875,-36.7584228515625
15.5899999,9.3828763961792,-3.931279182434082,-1.699883222579956,37.41455078125,30.670166015625,-25.115966796875
15.6099999,10.137049674987793,-3.732560396194458,-1.0845733880996704,24.7344970703125,53.8787841796875,-12.02392578125
15.629999900000001,10.589553833007812,-3.533841609954834,-0.4381389021873474,9.21630859375,70.281982421875,1.8768310546875
15.649999900000001,10.462661743164062,-3.4165258407592773,0.021547814831137657,-5.0811767578125,71.441650390625,13.3056640625
15.6699999,9.701305389404297,-3.428496837615967,0.22505496442317963,-10.4522705078125,56.8084716796875,19.2108154296875
15.6899999,8.56884765625,-3.5434184074401855,0.2322375625371933,-7.50732421875,31.6925048828125,22.186279296875
15.709999900000001,7.433996200561523,-3.8115692138671875,0.17477671802043915,-1.8310546875,13.5498046875,23.834228515625
15.729999900000001,6.531382083892822,-4.206612586975098,0.14604631066322327,4.241943359375,5.2490234375,22.5677490234375
15.7499999,5.963956356048584,-4.67827033996582,0.2322375625371933,13.1988525390625,-2.74658203125,16.05224609375
15.7699999,5.652710437774658,-5.17626428604126,0.3974374830722809,24.7344970703125,-4.8065185546875,5.096435546875
15.789999900000002,5.537788391113281,-5.588066577911377,0.6248866319656372,35.0341796875,1.8768310546875,-7.965087890625
15.809999900000001,5.6191911697387695,-5.8873419761657715,0.9169792532920837,41.93115234375,8.5296630859375,-22.0489501953125
15.8299999,5.894524574279785,-6.01423454284668,1.2497732639312744,45.8221435546875,10.1470947265625,-35.7208251953125
15.8499999,6.339846134185791,-6.007051944732666,1.6136919260025024,49.1790771484375,5.8746337890625,-49.9267578125
15.869999900000002,6.962338447570801,-5.9304375648498535,2.0231003761291504,52.2918701171875,-0.1068115234375,-60.638427734375
15.889999900000001,7.7213006019592285,-5.839457988739014,2.4684219360351562,50.4608154296875,-4.0130615234375,-60.72998046875
15.9099999,8.525752067565918,-5.729324817657471,2.8778305053710938,41.8701171875,-5.2642822265625,-50.5828857421875
15.9299999,9.275136947631836,-5.578489780426025,3.1938650608062744,31.5704345703125,-8.48388671875,-36.9873046875
15.9499999,9.852140426635742,-5.339069843292236,3.3231520652770996,23.49853515625,-12.451171875,-25.4669189453125
15.969999900000001,10.213664054870605,-5.003881454467773,3.2632968425750732,17.242431640625,-12.4664306640625,-16.0675048828125
15.9899999,10.369287490844727,-4.627991676330566,3.028665065765381,11.53564453125,-7.293701171875,-6.7138671875
16.0099999,10.314221382141113,-4.259284973144531,2.6623523235321045,5.8441162109375,-0.30517578125,2.166748046875
16.0299999,10.053253173828125,-3.950432777404785,2.190694570541382,2.7618408203125,1.9378662109375,9.002685546875
16.0499999,9.622296333312988,-3.706224203109741,1.6711528301239014,3.692626953125,-5.5389404296875,11.71875
16.0699999,9.121908187866211,-3.5410242080688477,1.1779472827911377,8.209228515625,-18.951416015625,10.772705078125
16.089999900000002,8.674192428588867,-3.4356794357299805,0.7613561153411865,12.786865234375,-30.059814453125,7.75146484375
16.109999900000002,8.432378768920898,-3.3877954483032227,0.5003881454467773,18.096923828125,-40.6036376953125,3.7384033203125
16.1299999,8.427590370178223,-3.397372245788574,0.35434186458587646,24.7802734375,-49.9114990234375,-1.0528564453125
16.1499999,8.645462036132812,-3.423708438873291,0.33039984107017517,29.022216796875,-56.0302734375,-5.096435546875
16.1699999,9.02135181427002,-3.4596214294433594,0.3423708379268646,32.3333740234375,-53.070068359375,-8.209228515625
16.1899999,9.423578262329102,-3.5170822143554688,0.3447650372982025,35.003662109375,-42.8314208984375,-13.2904052734375
16.2099999,9.739612579345703,-3.5865142345428467,0.2968810200691223,36.4227294921875,-36.56005859375,-17.1661376953125
16.2299999,9.914389610290527,-3.6846764087677,0.1867477297782898,36.224365234375,-39.1387939453125,-16.693115234375
16.249999900000002,9.897629737854004,-3.801992416381836,0.023942016065120697,34.8052978515625,-47.271728515625,-13.7939453125
16.269999900000002,9.768342971801758,-3.9025487899780273,-0.12689268589019775,33.0352783203125,-56.671142578125,-9.5672607421875
16.2899999,9.59596061706543,-3.9647979736328125,-0.22026655077934265,31.73828125,-60.211181640625,-4.7607421875
16.3099999,9.41639518737793,-3.9815573692321777,-0.26336219906806946,31.219482421875,-54.595947265625,0.5645751953125
16.3299999,9.253589630126953,-3.9624037742614746,-0.2513911724090576,31.7230224609375,-46.4324951171875,7.049560546875
16.3499999,9.05487060546875,-3.9169139862060547,-0.24660277366638184,33.3404541015625,-38.543701171875,13.1683349609375
16.3699999,8.825027465820312,-3.84269380569458,-0.2513911724090576,35.888671875,-30.4412841796875,18.3868408203125
16.3899999,8.595184326171875,-3.754108190536499,-0.2753331959247589,38.02490234375,-22.3846435546875,21.5301513671875
16.4099999,8.379706382751465,-3.6343982219696045,-0.3016694188117981,38.57421875,-13.3819580078125,22.003173828125
16.429999900000002,8.197746276855469,-3.5218706130981445,-0.3280056416988373,37.7960205078125,-5.1116943359375,21.0418701171875
16.4499999,8.068459510803223,-3.399766445159912,-0.363918662071228,36.0565185546875,-1.373291015625,19.47021484375
16.4699999,7.95832633972168,-3.378218650817871,-0.5339069962501526,34.942626953125,-10.7269287109375,17.9443359375
16.4899999,7.836222171783447,-3.3901896476745605,-0.7805097699165344,31.31103515625,-48.3245849609375,21.78955078125
16.5099999,7.884106159210205,-3.3638534545898438,-0.8571242094039917,29.205322265625,-79.1168212890625,27.9083251953125
16.5299999,7.996633529663086,-3.426102638244629,-1.0845733880996704,33.38623046875,-50.2166748046875,21.9268798828125
16.5499999,8.20732307434082,-3.3854012489318848,-1.0007762908935547,27.9541015625,-21.0723876953125,8.1634521484375
16.5699999,8.468291282653809,-3.4979286193847656,-1.0414776802062988,22.003173828125,-8.575439453125,-0.06103515625
16.589999900000002,8.619126319885254,-3.689464807510376,-1.0989385843276978,16.7083740234375,-4.1046142578125,0.6561279296875
16.609999900000002,8.75080680847168,-3.957615375518799,-1.1037269830703735,7.293701171875,-4.4097900390625,3.96728515625
16.6299999,8.856152534484863,-4.23773717880249,-1.0845733880996704,-1.9378662109375,7.8277587890625,4.638671875
16.6499999,8.966285705566406,-4.4508209228515625,-0.9720458984375,-9.2315673828125,19.439697265625,3.0059814453125
16.6699999,9.066842079162598,-4.587290287017822,-0.828393816947937,-13.214111328125,21.9268798828125,1.52587890625
16.6899999,9.10993766784668,-4.642356872558594,-0.7086837291717529,-14.34326171875,21.97265625,0.5035400390625
16.7099999,9.07641887664795,-4.639962673187256,-0.6368576288223267,-13.5955810546875,20.01953125,-1.64794921875
16.7299999,9.009381294250488,-4.587290287017822,-0.5985504388809204,-12.847900390625,14.3890380859375,-3.3416748046875
16.749999900000002,8.935160636901855,-4.513070106506348,-0.586579442024231,-11.474609375,12.1002197265625,-3.4637451171875
16.769999900000002,8.908824920654297,-4.37420654296875,-0.5099649429321289,-9.002685546875,16.2811279296875,-3.692626953125
16.7899999,8.801085472106934,-4.350264549255371,-0.6057330369949341,-4.4403076171875,32.3333740234375,-6.195068359375
16.8099999,8.700529098510742,-4.288015365600586,-0.6153098344802856,-2.685546875,28.1219482421875,-8.60595703125
16.8299999,8.585607528686523,-4.314351558685303,-0.7254431247711182,1.0223388671875,12.1917724609375,-10.0555419921875
16.8499999,8.513781547546387,-4.345476150512695,-0.7637503147125244,3.2196044921875,13.8702392578125,-13.0615234375
16.8699999,8.583212852478027,-4.369418144226074,-0.6799532771110535,1.312255859375,22.125244140625,-11.6424560546875
16.8899999,8.71489429473877,-4.412513732910156,-0.5554547905921936,-1.373291015625,24.1241455078125,-2.2735595703125
16.9099999,8.834604263305664,-4.4508209228515625,-0.40222588181495667,-2.838134765625,27.099609375,8.7127685546875
16.929999900000002,8.87291145324707,-4.46518611907959,-0.2537853717803955,-4.1961669921875,32.135009765625,15.380859375
16.9499999,8.83939266204834,-4.417302131652832,-0.07900865375995636,-4.9591064453125,37.353515625,19.22607421875
16.9699999,8.78193187713623,-4.326322555541992,0.11252748221158981,-4.1351318359375,47.821044921875,21.3165283203125
16.9899999,8.667010307312012,-4.206612586975098,0.2801215946674347,-3.0059814453125,64.300537109375,17.1661376953125
17.0099999,8.492233276367188,-4.0964789390563965,0.40940847992897034,0.579833984375,71.3958740234375,4.5928955078125
17.0299999,8.255207061767578,-4.043806552886963,0.45489832758903503,7.781982421875,67.657470703125,-11.749267578125
17.0499999,8.022970199584961,-4.0749311447143555,0.4836287498474121,14.617919921875,59.417724609375,-24.47509765625
17.0699999,7.872135162353516,-4.199429988861084,0.5530605912208557,16.2353515625,52.490234375,-30.3497314453125
17.089999900000002,7.869740962982178,-4.393360137939453,0.7086837291717529,14.923095703125,47.8515625,-31.2347412109375
17.109999900000002,8.01339340209961,-4.592078685760498,0.9433154463768005,14.46533203125,43.9453125,-30.9600830078125
17.1299999,8.224082946777344,-4.709394931793213,1.2306196689605713,14.862060546875,39.4134521484375,-31.06689453125
17.1499999,8.44195556640625,-4.704606533050537,1.5155296325683594,15.655517578125,34.698486328125,-31.43310546875
17.1699999,8.621520042419434,-4.558559894561768,1.7812861204147339,17.39501953125,28.8848876953125,-31.79931640625
17.1899999,8.7484130859375,-4.302380561828613,2.008735179901123,19.8822021484375,22.613525390625,-33.0352783203125
17.2099999,8.829815864562988,-3.9863457679748535,2.2002713680267334,21.54541015625,16.11328125,-34.393310546875
17.2299999,8.925583839416504,-3.663128614425659,2.3798365592956543,21.881103515625,9.09423828125,-34.2559814453125
17.249999900000002,9.045293807983398,-3.3686418533325195,2.5498247146606445,20.599365234375,3.1890869140625,-32.04345703125
17.269999900000002,9.181763648986816,-3.1244332790374756,2.719813108444214,16.7694091796875,-0.152587890625,-27.6947021484375
17.2899999,9.313444137573242,-2.9328970909118652,2.868253707885742,11.0015869140625,-2.74658203125,-20.782470703125
17.3099999,9.387664794921875,-2.7940332889556885,2.9712042808532715,4.2724609375,-6.591796875,-12.664794921875
17.3299999,9.38048267364502,-2.693476915359497,2.999934673309326,-1.8157958984375,-12.420654296875,-5.6610107421875
17.3499999,9.272743225097656,-2.6144683361053467,2.937685489654541,-6.65283203125,-18.2037353515625,-1.6937255859375
17.3699999,9.131484985351562,-2.5258827209472656,2.8131868839263916,-10.0555419921875,-23.0712890625,-0.762939453125
17.3899999,8.980650901794434,-2.470816135406494,2.650381326675415,-13.2598876953125,-23.3917236328125,-0.091552734375
17.409999900000003,8.80587387084961,-2.4396915435791016,2.4372973442077637,-18.6767578125,-15.655517578125,1.5106201171875
17.429999900000002,8.619126319885254,-2.451662540435791,2.207453966140747,-22.8118896484375,-9.0179443359375,0.42724609375
17.4499999,8.358158111572266,-2.4827871322631836,1.9393033981323242,-23.86474609375,-4.82177734375,-7.4920654296875
17.4699999,8.04691219329834,-2.5115175247192383,1.6639702320098877,-21.17919921875,-0.640869140625,-22.4761962890625
17.4899999,7.829039573669434,-2.5282769203186035,1.455674648284912,-15.1519775390625,4.9591064453125,-42.96875
17.5099999,7.7763671875,-2.583343744277954,1.3287819623947144,-8.8348388671875,14.0228271484375,-63.8275146484375
17.5299999,7.99184513092041,-2.7030537128448486,1.3263877630233765,-4.7607421875,20.6146240234375,-75.37841796875
17.5499999,8.427590370178223,-2.8419175148010254,1.4197616577148438,-1.953125,21.5301513671875,-74.7222900390625
17.5699999,9.004592895507812,-2.9305028915405273,1.5969325304031372,0.9002685546875,19.0277099609375,-67.4896240234375
17.589999900000002,9.579200744628906,-2.8778305053710938,1.8195933103561401,4.058837890625,17.15087890625,-58.8836669921875
17.609999900000002,10.038887977600098,-2.6455929279327393,2.0422539710998535,4.33349609375,16.6168212890625,-48.8128662109375
17.6299999,10.278307914733887,-2.27209734916687,2.209848165512085,5.8441162109375,14.8468017578125,-38.7420654296875
17.6499999,10.309432983398438,-1.8291701078414917,2.2912509441375732,9.521484375,7.476806640625,-30.059814453125
17.6699999,10.163386344909668,-1.3934253454208374,2.276885747909546,12.9241943359375,-2.9296875,-23.345947265625
17.6899999,9.93354320526123,-1.0319008827209473,2.1954829692840576,16.4337158203125,-11.474609375,-18.9666748046875
17.7099999,9.706093788146973,-0.7613561153411865,2.0901381969451904,18.85986328125,-18.280029296875,-14.58740234375
17.7299999,9.533711433410645,-0.5937620401382446,1.9847931861877441,20.263671875,-23.8189697265625,-10.0860595703125
17.749999900000002,9.428366661071777,-0.5051765441894531,1.886630892753601,20.93505859375,-27.0843505859375,-6.3629150390625
17.769999900000002,9.394847869873047,-0.47405192255973816,1.800439715385437,20.6298828125,-28.4881591796875,-3.23486328125
17.7899999,9.41400146484375,-0.47165772318840027,1.7262194156646729,18.9666748046875,-28.7017822265625,-0.4119873046875
17.8099999,9.457097053527832,-0.49799394607543945,1.6543933153152466,16.5863037109375,-28.1219482421875,2.1820068359375
17.8299999,9.497797966003418,-0.5482721924781799,1.5729905366897583,13.4124755859375,-27.374267578125,4.45556640625
17.8499999,9.531316757202148,-0.608127236366272,1.4844050407409668,8.8348388671875,-26.7181396484375,6.4544677734375
17.8699999,9.552865028381348,-0.6871358752250671,1.3910311460494995,3.7078857421875,-24.4598388671875,7.6446533203125
17.8899999,9.557653427124023,-0.7637503147125244,1.290474772453308,-1.617431640625,-19.4549560546875,8.23974609375
17.909999900000003,9.560047149658203,-0.8403648138046265,1.194706678390503,-6.9122314453125,-14.434814453125,7.8582763671875
17.929999900000002,9.555258750915527,-0.9097966551780701,1.0965443849563599,-11.4593505859375,-9.8724365234375,6.3629150390625
17.9499999,9.533711433410645,-0.9768342971801758,0.993593692779541,-15.380859375,-6.3629150390625,4.3182373046875
17.9699999,9.509769439697266,-1.0342950820922852,0.9002198576927185,-18.3563232421875,-4.5623779296875,2.4871826171875
17.9899999,9.495404243469238,-1.0893617868423462,0.8212111592292786,-20.172119140625,-3.7994384765625,0.4425048828125
18.0099999,9.48343276977539,-1.137245774269104,0.7613561153411865,-21.026611328125,-2.01416015625,-1.6326904296875
18.0299999,9.497797966003418,-1.158793568611145,0.7398083209991455,-21.3775634765625,0,-2.685546875
18.0499999,9.516951560974121,-1.1659762859344482,0.7374141216278076,-20.355224609375,2.197265625,-3.265380859375
18.0699999,9.53849983215332,-1.1420341730117798,0.7661445140838623,-18.00537109375,3.5247802734375,-3.11279296875
18.089999900000002,9.567230224609375,-1.094150185585022,0.811634361743927,-15.6402587890625,3.9825439453125,-2.4566650390625
18.109999900000002,9.600749015808105,-1.0271124839782715,0.8738836050033569,-12.8021240234375,4.5928955078125,-2.1514892578125
18.1299999,9.658209800720215,-0.9481038451194763,0.9457096457481384,-10.3302001953125,6.805419921875,-2.044677734375
18.1499999,9.744400978088379,-0.8786720037460327,1.0223240852355957,-9.09423828125,11.41357421875,-1.5869140625
18.1699999,9.854534149169922,-0.8355764150619507,1.0965443849563599,-9.0484619140625,17.364501953125,-0.18310546875
18.1899999,9.923966407775879,-0.8355764150619507,1.1540051698684692,-10.1776123046875,24.0936279296875,1.4495849609375
18.2099999,9.938331604003906,-0.8954314589500427,1.192312479019165,-10.2996826171875,30.09033203125,3.6468505859375
18.2299999,9.883264541625977,-0.9864110946655273,1.2042834758758545,-8.880615234375,35.7513427734375,6.3629150390625
18.249999900000002,9.794678688049316,-1.115697979927063,1.2210428714752197,-5.06591796875,38.6962890625,9.613037109375
18.269999900000002,9.682151794433594,-1.2737152576446533,1.2090718746185303,0.9307861328125,40.7867431640625,14.1448974609375
18.2899999,9.59596061706543,-1.4413094520568848,1.213860273361206,8.4228515625,37.200927734375,21.1181640625
18.3099999,9.521739959716797,-1.659181833267212,1.2090718746185303,17.2576904296875,27.9541015625,30.09033203125
18.3299999,9.473855972290039,-1.9057846069335938,1.1875240802764893,24.1241455078125,16.571044921875,41.8853759765625
18.3499999,9.454702377319336,-2.1763293743133545,1.1492167711257935,30.975341796875,0.8087158203125,54.7943115234375
18.3699999,9.44752025604248,-2.4612393379211426,1.0797849893569946,42.083740234375,-17.2119140625,63.8275146484375
18.3899999,9.469067573547363,-2.7317841053009033,1.0223240852355957,55.6793212890625,-35.9344482421875,67.3828125
18.409999900000003,9.528923034667969,-3.0550012588500977,1.039083480834961,69.6258544921875,-44.8150634765625,66.83349609375
18.429999900000002,9.586383819580078,-3.337517261505127,1.194706678390503,73.822021484375,-37.7960205078125,64.4378662109375
18.4499999,9.619902610778809,-3.555389642715454,1.5083470344543457,74.554443359375,-17.822265625,54.9163818359375
18.4699999,9.495404243469238,-3.5913026332855225,1.9177556037902832,70.556640625,10.589599609375,33.8287353515625
18.4899999,9.165003776550293,-3.426102638244629,2.2912509441375732,62.103271484375,32.806396484375,7.14111328125
18.5099999,8.688557624816895,-3.0837318897247314,2.5689783096313477,51.2237548828125,33.3404541015625,-17.608642578125
18.5299999,8.166622161865234,-2.6001031398773193,2.760514497756958,37.811279296875,26.5960693359375,-38.75732421875
18.5499999,7.7883381843566895,-2.1116859912872314,2.8586769104003906,22.8271484375,10.9405517578125,-52.337646484375
18.5699999,7.666234016418457,-1.5610195398330688,2.983175277709961,8.026123046875,-2.8076171875,-59.814453125
18.589999900000002,7.819462776184082,-1.0869675874710083,3.098097085952759,-10.7269287109375,-7.38525390625,-62.6373291015625
18.609999900000002,8.17141056060791,-0.6607996821403503,3.177105665206909,-31.341552734375,-7.293701171875,-59.4482421875
18.6299999,8.604761123657227,-0.3711012601852417,3.1507694721221924,-47.05810546875,-10.8184814453125,-51.6510009765625
18.6499999,9.011775016784668,-0.19632454216480255,2.9879636764526367,-61.431884765625,-16.7083740234375,-42.724609375
18.6699999,9.32541561126709,-0.14844051003456116,2.6862943172454834,-74.0509033203125,-22.6287841796875,-34.8663330078125
18.6899999,9.53849983215332,-0.19153612852096558,2.2912509441375732,-82.1533203125,-26.85546875,-27.6641845703125
18.7099999,9.674968719482422,-0.29209262132644653,1.867477297782898,-85.0067138671875,-27.984619140625,-21.148681640625
18.7299999,9.768342971801758,-0.4141969084739685,1.4748282432556152,-85.784912109375,-26.3824462890625,-16.6168212890625
18.749999900000002,9.837775230407715,-0.5578489899635315,1.1324573755264282,-83.4197998046875,-20.6146240234375,-15.1519775390625
18.769999900000002,9.909601211547852,-0.6967126727104187,0.8619126081466675,-80.01708984375,-13.24462890625,-16.1895751953125
18.7899999,9.995792388916016,-0.8427590131759644,0.6775590777397156,-75.2716064453125,-8.23974609375,-17.6544189453125
18.8099999,10.091560363769531,-0.9720458984375,0.5841852426528931,-71.71630859375,-4.9285888671875,-18.157958984375
18.8299999,10.168174743652344,-1.0749965906143188,0.5602431893348694,-71.10595703125,-2.105712890625,-17.9290771484375
18.8499999,10.201693534851074,-1.1563993692398071,0.586579442024231,-71.6094970703125,-2.2125244140625,-17.3492431640625
18.8699999,10.165780067443848,-1.2042834758758545,0.6512228846549988,-72.5860595703125,-4.302978515625,-16.6778564453125
18.8899999,10.062829971313477,-1.213860273361206,0.7398083209991455,-75.5462646484375,-3.814697265625,-17.730712890625
18.909999900000003,9.911994934082031,-1.2090718746185303,0.8379706144332886,-80.291748046875,0.8697509765625,-20.81298828125
18.929999900000002,9.75637149810791,-1.1899182796478271,0.950498104095459,-86.5020751953125,4.4403076171875,-23.345947265625
18.9499999,9.59835433959961,-1.192312479019165,1.0438719987869263,-93.5211181640625,3.2501220703125,-23.4832763671875
18.9699999,9.464279174804688,-1.213860273361206,1.1061211824417114,-101.3031005859375,0,-22.8118896484375
18.9899999,9.361329078674316,-1.2449848651885986,1.1492167711257935,-108.7493896484375,-1.8768310546875,-23.895263671875
19.0099999,9.287108421325684,-1.2689268589019775,1.1779472827911377,-116.0430908203125,-1.5869140625,-26.2298583984375
19.0299999,9.20091724395752,-1.2665326595306396,1.1779472827911377,-130.950927734375,-6.04248046875,-28.1524658203125
19.0499999,9.174580574035645,-1.2497732639312744,1.1348515748977661,-136.6119384765625,-13.3819580078125,-27.374267578125
19.0699999,9.162610054016113,-1.235408067703247,1.0630255937576294,-141.4947509765625,-19.927978515625,-27.6031494140625
19.089999900000002,9.184157371520996,-1.2210428714752197,0.9864110946655273,-145.93505859375,-23.193359375,-28.411865234375
19.109999900000002,9.255983352661133,-1.213860273361206,0.9193734526634216,-150.2532958984375,-22.76611328125,-27.6641845703125
19.1299999,9.346963882446289,-1.2330138683319092,0.849941611289978,-154.3121337890625,-19.8822021484375,-24.5208740234375
19.1499999,9.437943458557129,-1.2832920551300049,0.7805097699165344,-156.8603515625,-16.29638671875,-20.3704833984375
19.1699999,9.502586364746094,-1.3670891523361206,0.6991068720817566,-157.4554443359375,-11.871337890625,-17.5933837890625
19.1899999,9.528923034667969,-1.4844050407409668,0.6105214357376099,-155.4107666015625,-7.1258544921875,-15.380859375
19.2099999,9.514557838439941,-1.6280571222305298,0.5219359993934631,-151.1383056640625,-2.532958984375,-11.505126953125
19.2299999,9.464279174804688,-1.7812861204147339,0.43335050344467163,-145.44677734375,0.4730224609375,-6.2713623046875
19.249999900000002,9.406818389892578,-1.9249382019042969,0.36152446269989014,-138.73291015625,1.03759765625,-1.983642578125
19.269999900000002,9.370905876159668,-2.0446481704711914,0.31364041566848755,-131.0882568359375,3.4942626953125,0.7476806640625
19.2899999,9.366117477416992,-2.1308395862579346,0.2992752194404602,-123.1231689453125,9.1094970703125,3.60107421875
19.3099999,9.38048267364502,-2.185906171798706,0.31842881441116333,-115.753173828125,13.763427734375,7.8887939453125
19.3299999,9.390059471130371,-2.1954829692840576,0.3663128614425659,-109.588623046875,16.632080078125,12.4359130859375
19.3499999,9.445125579833984,-2.1308395862579346,0.47884035110473633,-103.4088134765625,22.735595703125,13.9312744140625
19.3699999,9.5624418258667,-2.032677173614502,0.6368576288223267,-94.7418212890625,37.4298095703125,11.077880859375
19.3899999,9.765948295593262,-1.9273324012756348,0.8331822156906128,-83.404541015625,49.346923828125,10.31494140625
19.409999900000003,9.976638793945312,-1.8387469053268433,1.0223240852355957,-72.6318359375,46.844482421875,15.5487060546875
19.429999900000002,10.110713958740234,-1.742978811264038,1.1659762859344482,-62.347412109375,35.7513427734375,22.15576171875
19.4499999,10.08198356628418,-1.5849615335464478,1.2282254695892334,-50.7965087890625,26.85546875,22.0947265625
19.4699999,9.888052940368652,-1.3239935636520386,1.2066776752471924,-38.726806640625,19.9432373046875,14.4195556640625
19.4899999,9.576807022094727,-0.9816226959228516,1.0989385843276978,-28.289794921875,7.568359375,4.4403076171875
19.5099999,9.241618156433105,-0.6224924325942993,0.9409212470054626,-22.0489501953125,-12.6190185546875,-3.936767578125
19.5299999,8.980650901794434,-0.28730419278144836,0.7876923680305481,-21.3470458984375,-31.1126708984375,-10.3912353515625
19.5499999,8.899248123168945,-0.002394201699644327,0.7015010714530945,-26.8707275390625,-38.9404296875,-15.2130126953125
19.5699999,9.042900085449219,0.22744916379451752,0.7230489253997803,-36.6363525390625,-35.919189453125,-18.2647705078125
19.589999900000002,9.390059471130371,0.40222588181495667,0.8236053586006165,-46.7681884765625,-23.2391357421875,-20.01953125
19.609999900000002,9.830592155456543,0.5267243981361389,0.9241618514060974,-54.3060302734375,-7.659912109375,-20.4925537109375
19.6299999,10.26394271850586,0.6033388376235962,0.9744400978088379,-59.295654296875,-2.2735595703125,-18.3868408203125
19.6499999,10.587160110473633,0.6392518281936646,0.9385270476341248,-62.347412109375,-7.3394775390625,-13.5040283203125
19.6699999,10.74996566772461,0.6607996821403503,0.828393816947937,-62.92724609375,-9.552001953125,-7.32421875
19.6899999,10.747570991516113,0.689530074596405,0.6703764796257019,-61.2640380859375,-3.387451171875,-2.62451171875
19.7099999,10.60391902923584,0.730231523513794,0.4908113479614258,-58.7005615234375,3.814697265625,-0.885009765625
19.7299999,10.347740173339844,0.7613561153411865,0.28730419278144836,-54.5654296875,9.857177734375,-1.3885498046875
19.749999900000002,10.017339706420898,0.7469909191131592,0.07422025501728058,-47.576904296875,13.824462890625,-1.5411376953125
19.769999900000002,9.679757118225098,0.6631938815116882,-0.14365209639072418,-38.14697265625,12.6190185546875,-1.2969970703125
19.7899999,9.370905876159668,0.49559974670410156,-0.35434186458587646,-29.266357421875,3.0975341796875,-1.9683837890625
19.8099999,9.14345645904541,0.2753331959247589,-0.5195417404174805,-24.10888671875,-13.0157470703125,-1.1138916015625
19.8299999,9.01895809173584,0.05267243832349777,-0.6057330369949341,-23.9715576171875,-22.39990234375,2.7618408203125
19.8499999,9.002198219299316,-0.13407529890537262,-0.5722141861915588,-27.801513671875,-17.4407958984375,5.6304931640625
19.8699999,9.066842079162598,-0.26815059781074524,-0.44532153010368347,-33.111572265625,-3.4637451171875,4.1656494140625
19.8899999,9.165003776550293,-0.3519476354122162,-0.272938996553421,-38.360595703125,8.7890625,0.6866455078125
19.909999900000003,9.282320022583008,-0.4141969084739685,-0.090979665517807,-42.327880859375,14.190673828125,-1.5106201171875
19.929999900000002,9.38048267364502,-0.49320554733276367,0.06464344263076782,-44.37255859375,16.998291015625,-2.5634765625
19.9499999,9.44752025604248,-0.5722141861915588,0.20111294090747833,-44.6929931640625,16.937255859375,-2.5482177734375
