# Time (seconds),Accel_X,Accel_Y,Accel_Z,Gyro_X,Gyro_Y,Gyro_Z
0.0099999,-10.129867553710938,-4.338293552398682,1.3527239561080933,7.354736328125,-17.7154541015625,35.82763671875
0.029999900000000003,-10.014945983886719,-4.244919776916504,1.436521053314209,1.7242431640625,-15.68603515625,33.050537109375
0.0499999,-9.775525093078613,-4.134786128997803,1.5107412338256836,-3.1585693359375,-8.0718994140625,28.8238525390625
0.0699999,-9.476250648498535,-4.034229755401611,1.5825673341751099,-8.148193359375,1.89208984375,28.25927734375
0.08999990000000001,-9.205705642700195,-3.9240965843200684,1.6352397203445435,-12.847900390625,9.002685546875,30.4718017578125
0.10999990000000001,-9.05487060546875,-3.8139634132385254,1.659181833267212,-15.1214599609375,14.892578125,26.275634765625
0.1299999,-9.050082206726074,-3.689464807510376,1.6352397203445435,-14.95361328125,20.0042724609375,16.2811279296875
0.14999990000000002,-9.150638580322266,-3.5482068061828613,1.5610195398330688,-14.678955078125,19.073486328125,9.246826171875
0.1699999,-9.246406555175781,-3.428496837615967,1.4652514457702637,-15.0146484375,13.0157470703125,9.3536376953125
0.1899999,-9.301473617553711,-3.3231520652770996,1.3670891523361206,-16.7236328125,6.9580078125,13.397216796875
0.20999990000000002,-9.30386734008789,-3.2106244564056396,1.2737152576446533,-18.6004638671875,6.256103515625,16.4642333984375
0.2299999,-9.272743225097656,-3.0526070594787598,1.194706678390503,-18.951416015625,8.4686279296875,18.5089111328125
0.2499999,-9.248801231384277,-2.851494312286377,1.115697979927063,-18.3258056640625,9.8114013671875,22.0947265625
0.2699999,-9.229647636413574,-2.626439332962036,1.05105459690094,-17.0440673828125,11.04736328125,27.2674560546875
0.28999990000000003,-9.253589630126953,-2.4181437492370605,0.9864110946655273,-14.7857666015625,12.603759765625,29.1748046875
0.3099999,-9.306262016296387,-2.255337953567505,0.9385270476341248,-11.3677978515625,10.223388671875,27.923583984375
0.3299999,-9.390059471130371,-2.1523873805999756,0.9026140570640564,-8.4686279296875,2.2125244140625,28.472900390625
0.34999990000000003,-9.493009567260742,-2.0877439975738525,0.8882488012313843,-6.866455078125,-5.5694580078125,30.09033203125
0.3699999,-9.57441234588623,-2.0805611610412598,0.8978256583213806,-6.0577392578125,-7.75146484375,30.548095703125
0.3899999,-9.730035781860352,-2.0925323963165283,0.9648633003234863,-5.4931640625,-2.227783203125,38.5894775390625
0.40999990000000003,-9.787496566772461,-2.0829553604125977,0.9864110946655273,-5.462646484375,-0.732421875,42.877197265625
0.4299999,-9.854534149169922,-2.03507137298584,0.9768342971801758,-5.950927734375,1.708984375,43.792724609375
0.4499999,-9.940725326538086,-1.9488801956176758,0.9361328482627869,-6.40869140625,4.669189453125,42.449951171875
0.4699999,-10.04846477508545,-1.8195933103561401,0.849941611289978,-6.40869140625,5.1727294921875,40.2069091796875
0.4899999,-10.141838073730469,-1.6663644313812256,0.7422025203704834,-6.2408447265625,3.35693359375,35.064697265625
0.5099999,-10.18493366241455,-1.5298948287963867,0.6272808313369751,-5.67626953125,5.9967041015625,28.2440185546875
0.5299999,-10.156203269958496,-1.4077905416488647,0.5171475410461426,-5.2490234375,10.894775390625,23.86474609375
0.5499999,-10.007762908935547,-1.3192051649093628,0.43335050344467163,-4.9896240234375,11.505126953125,22.6593017578125
0.5699999,-9.797073364257812,-1.290474772453308,0.3734954595565796,-4.69970703125,11.6119384765625,23.8037109375
0.5899998999999999,-9.615114212036133,-1.256955862045288,0.33518823981285095,-4.2877197265625,14.09912109375,24.749755859375
0.6099998999999999,-9.493009567260742,-1.2330138683319092,0.3256114423274994,-3.11279296875,15.6402587890625,23.01025390625
0.6299999,-9.48343276977539,-1.1779472827911377,0.3423708379268646,-2.3651123046875,13.427734375,22.0184326171875
0.6499999,-9.569623947143555,-1.0773907899856567,0.3758896589279175,-3.3721923828125,8.2550048828125,22.1405029296875
0.6699999,-9.643844604492188,-0.9768342971801758,0.4165911078453064,-3.814697265625,1.9073486328125,21.6522216796875
0.6899999,-9.672574996948242,-0.871489405632019,0.4692635238170624,-2.9754638671875,-3.3111572265625,23.8494873046875
0.7099999,-9.672574996948242,-0.7445967197418213,0.5147533416748047,-1.89208984375,-3.4332275390625,27.83203125
0.7299998999999999,-9.643844604492188,-0.608127236366272,0.5626373887062073,-0.762939453125,-2.838134765625,28.1829833984375
0.7499998999999999,-9.643844604492188,-0.4668693244457245,0.6177040338516235,-0.3509521484375,-6.28662109375,26.0009765625
0.7699999,-9.710882186889648,-0.3064578175544739,0.667982280254364,-1.03759765625,-8.97216796875,22.979736328125
0.7899999,-9.818621635437012,-0.17956513166427612,0.7206547260284424,-2.0294189453125,-8.4075927734375,17.547607421875
0.8099999,-9.967061996459961,-0.090979665517807,0.7709329724311829,-4.2724609375,-8.5296630859375,12.7716064453125
0.8299999,-10.127472877502441,-0.035913024097681046,0.8068459630012512,-7.3394775390625,-10.345458984375,11.077880859375
0.8499998999999999,-10.24239444732666,-0.021547814831137657,0.8140285611152649,-9.2926025390625,-8.6212158203125,10.6658935546875
0.8699998999999999,-10.285490036010742,-0.019153613597154617,0.7829039692878723,-9.7808837890625,-1.5869140625,10.7574462890625
0.8899999,-10.254365921020508,-0.0071826050989329815,0.7158663272857666,-9.5672607421875,4.852294921875,12.0849609375
0.9099999,-10.18493366241455,0.033518824726343155,0.6344634294509888,-10.1470947265625,7.537841796875,14.678955078125
0.9299999,-10.11789608001709,0.10055647045373917,0.5386953949928284,-10.80322265625,8.819580078125,16.510009765625
0.9499999,-10.06043529510498,0.17238251864910126,0.44771572947502136,-9.6893310546875,7.2174072265625,18.24951171875
0.9699998999999999,-10.029311180114746,0.24660277366638184,0.36152446269989014,-6.591796875,3.8299560546875,21.8353271484375
0.9899998999999999,-10.005369186401367,0.31842881441116333,0.29209262132644653,-2.4566650390625,1.617431640625,24.383544921875
1.0099999,-9.995792388916016,0.4165911078453064,0.2513911724090576,1.861572265625,0.7781982421875,21.820068359375
1.0299999,-10.089165687561035,0.5123591423034668,0.2561795711517334,5.3558349609375,1.190185546875,17.0135498046875
1.0499999,-10.390835762023926,0.5602431893348694,0.33279404044151306,6.378173828125,-2.44140625,8.514404296875
1.0699999,-10.647014617919922,0.5506663918495178,0.42377370595932007,4.119873046875,-8.1939697265625,-1.739501953125
1.0899999,-10.843339920043945,0.5123591423034668,0.524330198764801,1.8463134765625,-7.9193115234375,6.7901611328125
1.1099999,-10.788272857666016,0.4429273009300232,0.6033388376235962,-0.42724609375,-8.3770751953125,6.866455078125
1.1299999,-10.493785858154297,0.4429273009300232,0.6607996821403503,-2.044677734375,-7.7056884765625,6.6986083984375
1.1499999,-10.182539939880371,0.4572925269603729,0.7541735172271729,-2.1820068359375,-6.65283203125,6.9732666015625
1.1699998999999999,-9.93354320526123,0.47644615173339844,0.8810662031173706,-2.3651123046875,-4.6844482421875,6.8511962890625
1.1899998999999999,-9.792284965515137,0.5219359993934631,1.0414776802062988,-3.0975341796875,-1.556396484375,7.7056884765625
1.2099999,-9.72285270690918,0.569819986820221,1.192312479019165,-4.0130615234375,1.9378662109375,8.544921875
1.2299999,-9.68933391571045,0.6416460275650024,1.290474772453308,-5.2032470703125,5.2032470703125,7.8277587890625
1.2499999,-9.694122314453125,0.7206547260284424,1.316810965538025,-6.40869140625,7.843017578125,7.0037841796875
1.2699999,-9.725247383117676,0.8523358106613159,1.3311761617660522,-7.293701171875,10.4522705078125,5.9967041015625
1.2899999,-9.75397777557373,0.993593692779541,1.3192051649093628,-9.94873046875,14.495849609375,4.1656494140625
1.3099999,-9.773131370544434,1.0989385843276978,1.2114660739898682,-13.85498046875,18.61572265625,0.7781982421875
1.3299999,-9.81143856048584,1.1492167711257935,1.0295066833496094,-12.7105712890625,18.2037353515625,-1.7852783203125
1.3499999,-9.861717224121094,1.1420341730117798,0.7876923680305481,-7.2021484375,15.0909423828125,-1.77001953125
1.3699999,-9.911994934082031,1.0654197931289673,0.5530605912208557,-4.9285888671875,14.2669677734375,-2.38037109375
1.3899999,-9.962273597717285,0.9576807022094727,0.363918662071228,-7.3394775390625,15.0146484375,-4.33349609375
1.4099999,-9.99339771270752,0.828393816947937,0.22266076505184174,-8.4686279296875,13.7939453125,-4.0130615234375
1.4299998999999999,-10.007762908935547,0.689530074596405,0.11013327538967133,-6.3323974609375,10.8184814453125,-2.62451171875
1.4499999,-10.022128105163574,0.5506663918495178,0.019153613597154617,-3.4332275390625,7.720947265625,-0.8392333984375
1.4699999,-10.046070098876953,0.44532153010368347,-0.0454898327589035,-1.983642578125,6.134033203125,-0.3204345703125
1.4899999,-10.053253173828125,0.42377370595932007,-0.0694318488240242,4.486083984375,3.8299560546875,-0.3814697265625
1.5099999,-10.0580415725708,0.4620809257030487,-0.07900865375995636,15.3350830078125,-0.640869140625,-1.7242431640625
1.5299999,-10.06043529510498,0.5195417404174805,-0.11013327538967133,21.392822265625,-3.72314453125,-3.5247802734375
1.5499999,-10.046070098876953,0.5841852426528931,-0.09816227108240128,21.1639404296875,-5.3558349609375,-2.532958984375
1.5699999,-10.022128105163574,0.6177040338516235,0.016759412363171577,18.951416015625,-6.378173828125,-0.5645751953125
1.5899999,-9.981427192687988,0.6368576288223267,0.22026655077934265,12.603759765625,-4.21142578125,1.007080078125
1.6099999,-9.931148529052734,0.6512228846549988,0.33758243918418884,4.6539306640625,-0.42724609375,0.946044921875
1.6299999,-9.940725326538086,0.6967126727104187,0.3878606855869293,3.9520263671875,-1.7852783203125,-0.79345703125
1.6499999,-9.947908401489258,0.7422025203704834,0.31124621629714966,9.33837890625,-6.4697265625,-1.2969970703125
1.6699999,-10.000580787658691,0.7158663272857666,0.15801730751991272,15.3961181640625,-10.07080078125,-2.0294189453125
1.6899998999999999,-10.043676376342773,0.6272808313369751,0.038307227194309235,20.2789306640625,-12.2528076171875,-2.288818359375
1.7099999,-10.012551307678223,0.5051765441894531,0.1173158809542656,21.0113525390625,-13.0462646484375,0.2288818359375
1.7299999,-9.945513725280762,0.42856210470199585,0.31603461503982544,12.7716064453125,-9.9334716796875,3.662109375
1.7499999,-9.859322547912598,0.4118026793003082,0.6751648783683777,-1.2359619140625,-3.082275390625,5.706787109375
1.7699999,-9.785101890563965,0.4596867263317108,0.9672574996948242,-11.7034912109375,4.2724609375,7.659912109375
1.7899999,-9.804255485534668,0.5770025849342346,1.0414776802062988,-11.7034912109375,6.04248046875,9.124755859375
1.8099999,-9.84256362915039,0.8020575642585754,1.0295066833496094,-7.9498291015625,3.4942626953125,9.2926025390625
1.8299999,-9.854534149169922,1.1180921792984009,0.8954314589500427,-9.857177734375,5.584716796875,5.6304931640625
1.8499999,-9.904812812805176,1.482010841369629,0.7637503147125244,-14.373779296875,9.3994140625,-0.7781982421875
1.8699999,-9.90241813659668,1.6615760326385498,0.6392518281936646,-16.387939453125,7.6141357421875,-3.84521484375
1.8899999,-9.9000244140625,1.6376339197158813,0.5051765441894531,-15.6097412109375,4.119873046875,-7.3089599609375
1.9099999,-9.931148529052734,1.3048399686813354,0.3232172429561615,-15.3656005859375,2.288818359375,-10.1776123046875
1.9299998999999999,-9.967061996459961,0.8044517636299133,0.12449848651885986,-14.09912109375,5.0201416015625,-5.9661865234375
1.9499999,-10.012551307678223,0.2825157940387726,-0.05746084079146385,-3.23486328125,-0.4119873046875,-2.2125244140625
1.9699999,-10.067618370056152,-0.06703764945268631,-0.1628057211637497,9.307861328125,-8.3160400390625,3.3721923828125
1.9899999,-10.103530883789062,-0.10773907601833344,-0.1388636976480484,8.148193359375,-10.8642578125,10.528564453125
2.0099999,-10.050858497619629,0.10295066982507706,-0.033518824726343155,-1.495361328125,-5.43212890625,9.490966796875
2.0299999,-9.974244117736816,0.5506663918495178,0.21787235140800476,-0.8544921875,-8.819580078125,3.5552978515625
2.0499999,-9.864110946655273,1.0558429956436157,0.5626373887062073,-0.3509521484375,-10.8642578125,-3.41796875
2.0699999,-9.737217903137207,1.3718775510787964,0.9289502501487732,-14.5111083984375,-3.9215087890625,-3.936767578125
2.0899999,-9.68933391571045,1.5203180313110352,1.1851298809051514,-31.0821533203125,11.749267578125,-6.6986083984375
2.1099999,-9.725247383117676,1.2737152576446533,1.2282254695892334,-29.0679931640625,14.6636962890625,-3.6773681640625
2.1299999,-9.801861763000488,1.036689281463623,1.1348515748977661,-16.2200927734375,7.01904296875,-2.838134765625
2.1499999,-9.93354320526123,0.5937620401382446,0.7852981686592102,-14.617919921875,1.2359619140625,3.9520263671875
2.1699999,-10.093954086303711,0.3495534360408783,0.38546648621559143,-11.749267578125,4.0283203125,6.744384765625
2.1899999,-10.14902114868164,0.06464344263076782,0.033518824726343155,8.941650390625,-8.026123046875,7.232666015625
2.2099999,-10.235212326049805,0.028730420395731926,-0.4165911078453064,27.374267578125,-19.073486328125,2.5787353515625
2.2299999,-10.266336441040039,-0.06703764945268631,-0.6703764796257019,36.865234375,-29.5867919921875,3.692626953125
2.2499999,-10.113107681274414,0.27054479718208313,-0.646434485912323,39.764404296875,-28.778076171875,4.7760009765625
2.2699999,-10.02691650390625,0.6488286852836609,-0.1867477297782898,29.6173095703125,-23.4527587890625,9.429931640625
2.2899999,-9.84495735168457,1.2425906658172607,0.4429273009300232,4.4097900390625,-14.739990234375,6.9580078125
2.3099999,-9.708487510681152,1.7070658206939697,1.292868971824646,-14.4805908203125,-10.0555419921875,1.2359619140625
2.3299999,-9.607931137084961,2.0159177780151367,1.946485996246338,-25.1922607421875,0.3204345703125,-1.4190673828125
2.3499999,-9.550470352172852,1.9536685943603516,2.343923568725586,-26.0467529296875,6.8817138671875,-1.4495849609375
2.3699999,-9.457097053527832,1.6543933153152466,2.518700122833252,-26.031494140625,11.077880859375,-3.0975341796875
2.3899999,-9.488221168518066,1.1300631761550903,2.3942017555236816,-34.66796875,22.2320556640625,-5.340576171875
2.4099999,-9.593565940856934,0.6248866319656372,2.0039467811584473,-36.6058349609375,27.8778076171875,1.1444091796875
2.4299999,-9.782708168029785,0.3280056416988373,1.6328455209732056,-26.8096923828125,25.9857177734375,10.9100341796875
2.4499999,-9.93593692779541,0.29209262132644653,0.9624691009521484,-23.1475830078125,24.9481201171875,8.8043212890625
2.4699999,-10.134655952453613,0.5051765441894531,0.3447650372982025,-13.12255859375,18.73779296875,2.4871826171875
2.4899999,-10.158597946166992,0.8092401623725891,-0.2298433631658554,8.1024169921875,4.1046142578125,-2.166748046875
2.5099999,-10.302249908447266,1.0247182846069336,-0.6560112833976746,27.008056640625,-10.07080078125,-5.7373046875
2.5299999,-10.299856185913086,1.0606313943862915,-0.7805097699165344,36.285400390625,-14.9078369140625,-8.1024169921875
2.5499999,-10.261548042297363,0.9217676520347595,-0.5386953949928284,27.8167724609375,-10.0555419921875,-10.19287109375
2.5699999,-10.103530883789062,0.7733271718025208,-0.14365209639072418,18.707275390625,-3.570556640625,-5.340576171875
2.5899999,-10.122684478759766,0.4908113479614258,0.23942017555236816,19.0277099609375,-3.0517578125,3.72314453125
2.6099999,-9.931148529052734,0.48602294921875,0.23942017555236816,33.7677001953125,-15.1519775390625,5.279541015625
2.6299999,-10.093954086303711,0.5003881454467773,0.24660277366638184,55.938720703125,-26.0772705078125,1.8768310546875
2.6499999,-10.022128105163574,0.7852981686592102,0.2322375625371933,54.0771484375,-22.674560546875,-2.105712890625
2.6699999,-10.180145263671875,1.1276689767837524,0.545877993106842,33.5845947265625,-14.4805908203125,-4.0130615234375
2.6899999,-10.304644584655762,1.3910311460494995,1.0821791887283325,10.4522705078125,-6.683349609375,-6.378173828125
2.7099999,-10.69489860534668,1.5466543436050415,1.5945383310317993,-7.4615478515625,3.47900390625,-3.5858154296875
2.7299999,-10.970232009887695,1.5897499322891235,1.867477297782898,-17.5628662109375,7.354736328125,1.52587890625
2.7499999,-11.219228744506836,1.5658079385757446,1.7812861204147339,-18.402099609375,-2.7313232421875,16.7999267578125
2.7699999,-11.255142211914062,1.5275006294250488,1.403002142906189,-9.7808837890625,-10.7269287109375,12.4969482421875
2.7899999,-11.051634788513184,1.4173674583435059,0.8690952062606812,4.7607421875,-12.5579833984375,-8.575439453125
2.8099999,-10.60152530670166,1.2066776752471924,0.36152446269989014,15.9759521484375,-13.0767822265625,-21.3775634765625
2.8299999,-9.952696800231934,0.8954314589500427,0.035913024097681046,20.6298828125,-10.25390625,-18.5394287109375
2.8499999,-9.188945770263672,0.5267243981361389,-0.026336219161748886,20.1568603515625,-3.6468505859375,-10.19287109375
2.8699999,-8.497021675109863,0.20350714027881622,0.12928688526153564,13.2293701171875,1.77001953125,-4.6844482421875
2.8899999,-8.027758598327637,-0.031124621629714966,0.40222588181495667,5.37109375,7.7667236328125,-5.2947998046875
2.9099999,-7.872135162353516,-0.1628057211637497,0.6703764796257019,0.42724609375,16.6015625,-11.4288330078125
2.9299999,-7.999027729034424,-0.19871874153614044,0.8643068075180054,-0.579833984375,20.782470703125,-18.463134765625
2.9499999,-8.307879447937012,-0.19153612852096558,0.950498104095459,-0.0152587890625,20.294189453125,-20.2484130859375
2.9699999,-8.731653213500977,-0.12449848651885986,0.9696516990661621,0.457763671875,14.2669677734375,-12.115478515625
2.9899999,-9.162610054016113,-0.004788403399288654,0.9744400978088379,0.6866455078125,5.4473876953125,-2.3345947265625
3.0099999,-9.528923034667969,0.15322890877723694,1.015141487121582,-0.1983642578125,-1.1138916015625,1.373291015625
3.0299999,-9.849745750427246,0.35434186458587646,1.094150185585022,-2.2735595703125,-1.9378662109375,2.62451171875
3.0499999,-10.089165687561035,0.5793967843055725,1.1851298809051514,-5.218505859375,-0.8087158203125,1.220703125
3.0699999,-10.194510459899902,0.7829039692878723,1.2617442607879639,-8.4228515625,-2.4566650390625,-2.4261474609375
3.0899999,-10.235212326049805,0.9457096457481384,1.3072341680526733,-11.962890625,-2.4871826171875,0.0152587890625
3.1099999,-10.249577522277832,1.0462661981582642,1.3048399686813354,-15.7470703125,-0.9765625,6.7596435546875
3.1299999,-10.249577522277832,1.0845733880996704,1.2497732639312744,-17.913818359375,-0.1068115234375,5.584716796875
3.1499999,-10.259154319763184,1.0582371950149536,1.1348515748977661,-16.78466796875,4.69970703125,-3.1585693359375
3.1699999,-10.268731117248535,0.9768342971801758,0.9744400978088379,-14.0533447265625,7.354736328125,-5.8746337890625
3.1899999,-10.287884712219238,0.8643068075180054,0.8092401623725891,-11.688232421875,1.8463134765625,-1.15966796875
3.2099999,-10.237606048583984,0.7182605266571045,0.6751648783683777,-9.368896484375,-5.5084228515625,-0.4730224609375
3.2299999,-10.158597946166992,0.5793967843055725,0.6009446382522583,-5.462646484375,-4.8675537109375,-2.5177001953125
3.2499999,-10.038887977600098,0.4836287498474121,0.5770025849342346,-1.220703125,-1.1444091796875,0.7171630859375
3.2699999,-9.897629737854004,0.4429273009300232,0.6009446382522583,0.79345703125,-4.3792724609375,6.195068359375
3.2899999,-9.75637149810791,0.4572925269603729,0.6560112833976746,1.3275146484375,-10.0860595703125,7.080078125
3.3099999,-9.667786598205566,0.5099649429321289,0.7445967197418213,1.678466796875,-11.8865966796875,5.67626953125
3.3299999000000002,-9.655815124511719,0.5913678407669067,0.8523358106613159,1.6632080078125,-9.8419189453125,6.89697265625
3.3499999,-9.68694019317627,0.6655880808830261,0.9624691009521484,0.54931640625,-5.5694580078125,6.0272216796875
3.3699999,-9.730035781860352,0.7254431247711182,1.05105459690094,-1.6326904296875,-0.518798828125,3.23486328125
3.3899999,-9.751583099365234,0.7781155705451965,1.1109095811843872,-3.8604736328125,1.983642578125,4.638671875
3.4099999,-10.08198356628418,0.8212111592292786,1.139639973640442,-5.9356689453125,4.1961669921875,6.5155029296875
3.4299999,-10.165780067443848,0.8954314589500427,1.0821791887283325,-7.38525390625,1.15966796875,-2.4261474609375
3.4499999,-10.390835762023926,0.9193734526634216,0.9792284965515137,-5.7220458984375,-0.030517578125,6.011962890625
3.4699999,-10.390835762023926,0.9672574996948242,0.8547300100326538,-2.6702880859375,-1.373291015625,4.8828125
3.4899999,-10.062829971313477,0.9097966551780701,0.730231523513794,-0.54931640625,-2.7313232421875,1.1749267578125
3.5099999,-10.031704902648926,0.8331822156906128,0.7086837291717529,1.739501953125,-1.6021728515625,3.6773681640625
3.5299999,-9.837775230407715,0.6991068720817566,0.7350199222564697,3.387451171875,-5.2032470703125,0.7171630859375
3.5499999,-9.916783332824707,0.6009446382522583,0.8475474119186401,3.875732421875,-5.3253173828125,5.340576171875
3.5699999,-9.945513725280762,0.545877993106842,0.9792284965515137,3.204345703125,-3.23486328125,7.7056884765625
3.5899999,-9.926360130310059,0.5770025849342346,1.1109095811843872,1.129150390625,-2.3040771484375,6.103515625
3.6099999,-9.876082420349121,0.689530074596405,1.2401964664459229,-0.213623046875,-0.67138671875,5.92041015625
3.6299999,-9.84256362915039,0.8643068075180054,1.3287819623947144,-3.1280517578125,1.739501953125,5.43212890625
3.6499999,-9.816226959228516,1.0438719987869263,1.3215993642807007,-6.6680908203125,3.7384033203125,2.838134765625
3.6699999,-9.804255485534668,1.1875240802764893,1.2497732639312744,-6.561279296875,3.2196044921875,0.0762939453125
3.6899999,-9.801861763000488,1.3072341680526733,1.1659762859344482,-2.8076171875,1.6326904296875,-2.4871826171875
3.7099999,-9.828198432922363,1.3766659498214722,1.0438719987869263,-1.2359619140625,1.7242431640625,-5.615234375
3.7299999,-9.859322547912598,1.3431471586227417,0.8834604024887085,0.06103515625,0.79345703125,-8.880615234375
3.7499999,-9.849745750427246,1.2282254695892334,0.9744400978088379,0.54931640625,-2.50244140625,-9.2620849609375
3.7699999,-9.864110946655273,1.0534487962722778,1.1994950771331787,-16.754150390625,4.0435791015625,-4.4708251953125
3.7899999,-9.828198432922363,0.8475474119186401,0.9528923034667969,-43.1976318359375,21.3775634765625,0.3662109375
3.8099999,-9.804255485534668,0.5267243981361389,0.9840168952941895,-49.4232177734375,26.214599609375,4.730224609375
3.8299999000000002,-9.84495735168457,0.2059013396501541,0.3926490843296051,-35.70556640625,19.256591796875,7.8125
3.8499999,-9.828198432922363,-0.08379705995321274,0.031124621629714966,-15.0146484375,12.115478515625,11.199951171875
3.8699999,-9.96945571899414,-0.14844051003456116,-0.2298433631658554,1.800537109375,13.1988525390625,12.725830078125
3.8899999,-10.041281700134277,0.12689268589019775,-0.28969839215278625,16.4031982421875,7.8125,10.6658935546875
3.9099999,-10.036493301391602,0.7110779285430908,-0.26815059781074524,17.4407958984375,-0.8392333984375,9.5367431640625
3.9299999,-10.007762908935547,1.3742717504501343,-0.047884032130241394,5.4779052734375,-2.8228759765625,3.662109375
3.9499999,-9.8784761428833,1.9632453918457031,0.23702596127986908,-5.5389404296875,-2.5787353515625,-10.55908203125
3.9699999,-9.806650161743164,2.1475989818573,0.5195417404174805,-10.5133056640625,3.997802734375,-16.17431640625
3.9899999,-9.782708168029785,1.941697597503662,0.8020575642585754,-13.153076171875,8.30078125,-11.474609375
4.0099999,-9.883264541625977,1.6112977266311646,0.9193734526634216,-15.5029296875,5.645751953125,-4.669189453125
4.029999900000001,-9.931148529052734,1.0319008827209473,0.8619126081466675,-11.8560791015625,1.922607421875,-1.1444091796875
4.0499999,-10.010157585144043,0.5746083855628967,0.7493851184844971,1.708984375,-2.3193359375,-7.2479248046875
4.069999900000001,-10.031704902648926,0.2322375625371933,0.5027823448181152,14.2364501953125,-7.75146484375,-12.1002197265625
4.0899999000000005,-10.108319282531738,0,0.3280056416988373,20.3399658203125,-4.2724609375,-2.62451171875
4.1099999,-10.20648193359375,-0.15322890877723694,0.14365209639072418,28.5186767578125,-9.58251953125,1.7547607421875
4.1299999000000005,-10.18493366241455,0.12689268589019775,0.2298433631658554,42.9229736328125,-22.003173828125,0.8392333984375
4.1499999,-10.108319282531738,0.4572925269603729,0.5147533416748047,35.9954833984375,-19.0887451171875,-1.983642578125
4.1699999000000005,-9.871294021606445,1.0031704902648926,1.115697979927063,9.4451904296875,-4.08935546875,-3.2196044921875
4.1899999,-9.490615844726562,1.647210717201233,2.2840683460235596,-30.6243896484375,23.5595703125,-6.65283203125
4.209999900000001,-9.514557838439941,1.5514427423477173,2.3056161403656006,-23.284912109375,23.86474609375,-6.6986083984375
4.2299999,-9.679757118225098,1.2330138683319092,1.8363527059555054,-11.3372802734375,19.6685791015625,-6.195068359375
4.249999900000001,-9.907206535339355,0.7829039692878723,1.1037269830703735,-2.6397705078125,12.5579833984375,-4.119873046875
4.2699999,-10.086771965026855,0.3519476354122162,0.4165911078453064,1.007080078125,4.486083984375,2.3651123046875
4.289999900000001,-10.232817649841309,-0.10773907601833344,-0.021547814831137657,-1.4495849609375,5.37109375,14.7705078125
4.3099999,-10.1753568649292,-0.38546648621559143,-0.15083470940589905,-8.6669921875,7.4615478515625,19.0582275390625
4.329999900000001,-10.11789608001709,-0.5554547905921936,-0.019153613597154617,-11.077880859375,4.0283203125,20.0653076171875
4.3499999,-9.995792388916016,-0.4812345504760742,0.2322375625371933,-5.2947998046875,4.2724609375,23.0560302734375
4.369999900000001,-9.907206535339355,-0.1604115068912506,0.47405192255973816,0.7171630859375,4.913330078125,24.200439453125
4.3899999,-9.859322547912598,0.31124621629714966,0.6536170840263367,3.4637451171875,5.3558349609375,27.099609375
4.409999900000001,-9.806650161743164,0.9026140570640564,0.7445967197418213,3.6163330078125,4.8370361328125,21.1944580078125
4.4299999,-9.742006301879883,1.4963760375976562,0.7589619159698486,2.62451171875,5.5999755859375,12.603759765625
4.449999900000001,-9.713275909423828,1.9847931861877441,0.7038952708244324,-1.495361328125,7.598876953125,7.7972412109375
4.4699999,-9.751583099365234,2.3247697353363037,0.629675030708313,-8.392333984375,7.7362060546875,4.2266845703125
4.489999900000001,-9.861717224121094,2.410961151123047,0.5554547905921936,-15.899658203125,7.598876953125,1.7547607421875
4.5099999,-10.400412559509277,2.432508945465088,0.5315127968788147,-19.317626953125,6.7901611328125,-1.52587890625
4.529999900000001,-10.946290016174316,2.1787235736846924,0.47884035110473633,-14.6636962890625,0.091552734375,-3.5858154296875
4.5499999,-11.717223167419434,1.9943699836730957,0.40940847992897034,-4.69970703125,-9.4146728515625,5.645751953125
4.569999900000001,-12.191274642944336,1.6927006244659424,0.24181437492370605,6.4239501953125,-17.059326171875,13.6566162109375
4.5899999000000005,-12.310985565185547,1.5059528350830078,0.035913024097681046,16.41845703125,-27.4810791015625,10.31494140625
4.609999900000001,-11.918335914611816,1.3646949529647827,-0.12928688526153564,25.146484375,-35.6903076171875,-5.5999755859375
4.6299999000000005,-11.05642318725586,1.259350061416626,-0.181959331035614,29.5562744140625,-33.1268310546875,-19.927978515625
4.6499999,-9.955090522766113,1.1444283723831177,-0.08140286058187485,25.32958984375,-13.0767822265625,-21.392822265625
4.6699999000000005,-8.81784439086914,0.993593692779541,0.13407529890537262,17.88330078125,7.87353515625,-16.0675048828125
4.6899999,-7.884106159210205,0.811634361743927,0.3878606855869293,7.904052734375,12.4053955078125,-12.5579833984375
4.709999900000001,-7.309497833251953,0.6488286852836609,0.5793967843055725,-1.861572265625,7.4462890625,-12.3748779296875
4.7299999,-7.086836814880371,0.5171475410461426,0.6751648783683777,-6.134033203125,9.9945068359375,-15.5181884765625
4.749999900000001,-7.168240070343018,0.4141969084739685,0.6727706789970398,-4.3792724609375,20.9808349609375,-19.1802978515625
4.7699999,-7.4770917892456055,0.33997663855552673,0.6272808313369751,-0.213623046875,20.8282470703125,-16.1285400390625
4.789999900000001,-8.003816604614258,0.3280056416988373,0.586579442024231,3.1890869140625,9.6282958984375,-6.16455078125
4.8099999,-8.621520042419434,0.3663128614425659,0.5985504388809204,5.7373046875,-0.396728515625,-0.4425048828125
4.829999900000001,-9.229647636413574,0.47165772318840027,0.6919242739677429,7.415771484375,-7.720947265625,-0.0457763671875
4.8499999,-9.763554573059082,0.6200982332229614,0.8475474119186401,6.89697265625,-11.9171142578125,2.2430419921875
4.869999900000001,-10.17296314239502,0.7829039692878723,1.0247182846069336,4.0740966796875,-8.23974609375,2.50244140625
4.8899999,-10.438719749450684,0.912190854549408,1.1635819673538208,0.48828125,0.885009765625,-3.570556640625
4.909999900000001,-10.587160110473633,1.0103530883789062,1.237802267074585,-3.0670166015625,2.044677734375,-7.598876953125
4.9299999,-10.63504409790039,1.0462661981582642,1.237802267074585,-5.9814453125,-3.1890869140625,-3.8604736328125
4.949999900000001,-10.608707427978516,1.0414776802062988,1.1755530834197998,-7.0648193359375,-6.011962890625,0.8392333984375
4.9699999,-10.503362655639648,1.0007762908935547,1.0773907899856567,-5.7220458984375,-6.195068359375,-0.4119873046875
4.989999900000001,-10.36449909210205,0.950498104095459,0.9720458984375,-3.7384033203125,-4.150390625,-1.708984375
5.0099999,-10.26394271850586,0.9097966551780701,0.8810662031173706,-2.99072265625,-1.068115234375,0.335693359375
5.029999900000001,-10.182539939880371,0.871489405632019,0.8236053586006165,-3.47900390625,-0.274658203125,-0.9765625
5.0499999,-10.144232749938965,0.8427590131759644,0.8068459630012512,-3.9825439453125,-0.274658203125,-4.547119140625
5.069999900000001,-10.110713958740234,0.828393816947937,0.8020575642585754,-4.1961669921875,-1.0833740234375,-2.86865234375
5.0899999000000005,-10.012551307678223,0.8259995579719543,0.7852981686592102,-4.547119140625,-5.4931640625,2.6702880859375
5.109999900000001,-9.804255485534668,0.8595184087753296,0.7613561153411865,-3.6468505859375,-8.8653564453125,5.340576171875
5.1299999000000005,-9.519346237182617,0.9145850539207458,0.7350199222564697,-2.838134765625,-4.669189453125,6.561279296875
5.1499999,-9.165003776550293,1.0007762908935547,0.7254431247711182,-4.486083984375,-0.54931640625,11.9476318359375
5.1699999000000005,-9.006986618041992,1.1348515748977661,0.7613561153411865,-7.354736328125,-0.9918212890625,18.1427001953125
5.1899999,-9.363722801208496,1.3551181554794312,0.8403648138046265,-12.1307373046875,1.4495849609375,-2.2430419921875
5.209999900000001,-9.988609313964844,1.4676456451416016,0.8690952062606812,-17.8985595703125,5.5999755859375,-14.0838623046875
5.2299999,-10.668562889099121,1.656787633895874,0.8595184087753296,-19.744873046875,4.7149658203125,4.7454833984375
5.249999900000001,-11.058817863464355,1.6208745241165161,0.7972691655158997,-17.1356201171875,-0.5645751953125,-5.5084228515625
5.2699999,-10.867281913757324,1.50355863571167,0.6584054827690125,-11.8865966796875,-1.3275146484375,-10.955810546875
5.289999900000001,-10.496180534362793,1.2521674633026123,0.5530605912208557,-5.0811767578125,-2.3345947265625,-10.009765625
5.3099999,-10.15141487121582,0.8978256583213806,0.5410895943641663,0.6256103515625,-6.8206787109375,-8.6517333984375
5.329999900000001,-9.943120002746582,0.5746083855628967,0.608127236366272,3.3416748046875,-7.843017578125,-4.39453125
5.3499999,-9.854534149169922,0.2825157940387726,0.7110779285430908,7.1868896484375,-6.1187744140625,-1.4190673828125
5.369999900000001,-9.825803756713867,0.06703764945268631,0.8882488012313843,10.833740234375,-6.3934326171875,0.18310546875
5.3899999,-9.806650161743164,-0.040701430290937424,1.0606313943862915,9.9334716796875,-5.706787109375,5.889892578125
5.409999900000001,-9.804255485534668,0.019153613597154617,1.256955862045288,7.26318359375,-1.89208984375,12.14599609375
5.4299999,-9.799467086791992,0.21308395266532898,1.4389152526855469,5.1727294921875,1.52587890625,12.3291015625
5.449999900000001,-9.782708168029785,0.6272808313369751,1.556231141090393,0.3204345703125,5.2947998046875,8.880615234375
5.4699999,-9.763554573059082,1.1037269830703735,1.5179238319396973,-6.0272216796875,7.598876953125,5.8441162109375
5.489999900000001,-9.768342971801758,1.5298948287963867,1.3527239561080933,-9.33837890625,7.171630859375,2.105712890625
5.5099999,-9.806650161743164,1.7717092037200928,1.0558429956436157,-6.9732666015625,4.9591064453125,-1.8157958984375
5.529999900000001,-9.8784761428833,1.8076223134994507,0.7541735172271729,-0.18310546875,-0.3814697265625,-5.2947998046875
5.5499999,-9.926360130310059,1.601720929145813,0.5051765441894531,4.39453125,-5.2337646484375,-6.866455078125
5.569999900000001,-9.998186111450195,1.3072341680526733,0.3902548849582672,4.1656494140625,-6.134033203125,-5.7220458984375
5.5899999000000005,-10.005369186401367,0.849941611289978,0.36152446269989014,4.33349609375,-7.9803466796875,-3.265380859375
5.609999900000001,-9.998186111450195,0.5027823448181152,0.5003881454467773,7.01904296875,-10.345458984375,-0.7781982421875
5.6299999000000005,-9.971850395202637,0.26336219906806946,0.689530074596405,8.819580078125,-10.0555419921875,2.7923583984375
5.6499999,-9.909601211547852,0.15562310814857483,0.950498104095459,7.7972412109375,-7.01904296875,5.1116943359375
5.6699999000000005,-9.86650562286377,0.3016694188117981,1.2258312702178955,5.2947998046875,-3.8909912109375,6.65283203125
5.6899999,-9.780313491821289,0.5386953949928284,1.5131354331970215,1.28173828125,0.3662109375,6.8511962890625
5.709999900000001,-9.696516990661621,0.9385270476341248,1.800439715385437,-7.0953369140625,7.598876953125,5.79833984375
5.7299999,-9.641449928283691,1.3958195447921753,2.030282974243164,-18.8446044921875,16.021728515625,2.3345947265625
5.749999900000001,-9.607931137084961,1.7262194156646729,2.099714994430542,-28.6407470703125,22.6593017578125,-1.40380859375
5.7699999,-9.619902610778809,1.8770540952682495,1.9033904075622559,-31.6009521484375,23.9410400390625,-3.0670166015625
5.789999900000001,-9.72285270690918,1.7166426181793213,1.4844050407409668,-26.611328125,20.416259765625,-3.6468505859375
5.8099999,-9.840168952941895,1.359906554222107,0.8834604024887085,-15.93017578125,14.4500732421875,-3.082275390625
5.829999900000001,-9.99100399017334,0.8930372595787048,0.3016694188117981,-1.861572265625,6.103515625,-1.0833740234375
5.8499999,-10.127472877502441,0.5171475410461426,-0.15562310814857483,11.871337890625,-3.0975341796875,0.762939453125
5.869999900000001,-10.20648193359375,0.2777273952960968,-0.43335050344467163,22.4151611328125,-11.65771484375,2.105712890625
5.8899999,-10.20648193359375,0.2537853717803955,-0.4141969084739685,26.67236328125,-17.852783203125,2.471923828125
5.909999900000001,-10.141838073730469,0.45010992884635925,-0.15083470940589905,22.5677490234375,-17.425537109375,1.3427734375
5.9299999,-10.022128105163574,0.7613561153411865,0.2992752194404602,13.275146484375,-14.7247314453125,-1.03759765625
5.949999900000001,-9.892841339111328,1.1109095811843872,0.8475474119186401,5.06591796875,-11.260986328125,-3.47900390625
5.9699999,-9.785101890563965,1.3646949529647827,1.3239935636520386,-2.960205078125,-6.683349609375,-4.33349609375
5.989999900000001,-9.691728591918945,1.4317326545715332,1.6424223184585571,-8.6517333984375,-0.6866455078125,-4.2266845703125
6.0099999,-9.646238327026367,1.3646949529647827,1.8579005002975464,-12.0086669921875,4.486083984375,-2.3040771484375
6.029999900000001,-9.639056205749512,1.1444283723831177,1.745373010635376,-11.810302734375,8.48388671875,0.1068115234375
6.0499999,-9.708487510681152,0.9145850539207458,1.6112977266311646,-7.99560546875,8.3465576171875,1.1749267578125
6.069999900000001,-9.792284965515137,0.7709329724311829,1.2976573705673218,-4.425048828125,5.18798828125,1.953125
6.0899999000000005,-9.895236015319824,0.7589619159698486,1.0606313943862915,-4.7149658203125,4.241943359375,1.3885498046875
6.109999900000001,-9.93354320526123,0.8068459630012512,0.8331822156906128,-6.6680908203125,4.2572021484375,-0.0457763671875
6.1299999000000005,-9.976638793945312,0.9409212470054626,0.7110779285430908,-5.2642822265625,0.91552734375,-1.03759765625
6.149999900000001,-9.95748519897461,1.0342950820922852,0.6847416758537292,-2.7618408203125,-2.105712890625,-1.739501953125
6.1699999000000005,-9.93354320526123,1.1540051698684692,0.8140285611152649,-3.204345703125,-0.91552734375,-2.50244140625
6.1899999,-9.837775230407715,1.2114660739898682,1.0247182846069336,-8.758544921875,4.39453125,-3.5400390625
6.209999900000001,-9.768342971801758,1.2186486721038818,1.2737152576446533,-14.617919921875,9.735107421875,-4.547119140625
6.2299999,-9.739612579345703,1.1827356815338135,1.400607943534851,-14.4195556640625,10.894775390625,-5.096435546875
6.249999900000001,-9.763554573059082,1.0534487962722778,1.4197616577148438,-10.894775390625,10.406494140625,-4.2877197265625
6.2699999,-9.823410034179688,0.912190854549408,1.280897855758667,-6.40869140625,10.040283203125,-5.096435546875
6.289999900000001,-9.890447616577148,0.727837324142456,1.0534487962722778,-1.190185546875,8.48388671875,-6.3629150390625
6.3099999,-9.955090522766113,0.5626373887062073,0.7781155705451965,2.5787353515625,5.645751953125,-5.06591796875
6.329999900000001,-10.000580787658691,0.45250412821769714,0.5482721924781799,7.2174072265625,2.0904541015625,-4.425048828125
6.3499999,-10.029311180114746,0.38307225704193115,0.4429273009300232,6.2103271484375,-0.335693359375,-2.6092529296875
6.369999900000001,-10.014945983886719,0.4620809257030487,0.4596867263317108,0.2593994140625,2.9144287109375,-0.640869140625
6.3899999,-9.959878921508789,0.5291185975074768,0.569819986820221,-4.2572021484375,4.7607421875,0.152587890625
6.409999900000001,-9.928754806518555,0.7015010714530945,0.6536170840263367,-5.3863525390625,3.96728515625,0.1983642578125
6.4299999,-9.914389610290527,0.790086567401886,0.6272808313369751,-3.35693359375,1.3275146484375,-0.732421875
6.449999900000001,-9.952696800231934,0.8403648138046265,0.49559974670410156,3.1280517578125,-2.5787353515625,-1.5716552734375
6.4699999,-9.983820915222168,0.8427590131759644,0.3758896589279175,11.71875,-8.2855224609375,-1.983642578125
6.489999900000001,-9.998186111450195,0.7757213711738586,0.3711012601852417,11.77978515625,-9.8876953125,-0.335693359375
6.5099999,-9.955090522766113,0.7374141216278076,0.5626373887062073,0.762939453125,-6.04248046875,1.8310546875
6.529999900000001,-9.86889934539795,0.7398083209991455,0.8547300100326538,-12.1002197265625,-0.030517578125,2.3956298828125
6.5499999,-9.837775230407715,0.7541735172271729,1.1276689767837524,-19.10400390625,3.1280517578125,4.486083984375
6.569999900000001,-9.821015357971191,0.7086837291717529,1.2425906658172607,-17.5933837890625,2.50244140625,5.615234375
6.5899999000000005,-9.86889934539795,0.7350199222564697,1.2306196689605713,-12.2528076171875,0.0457763671875,6.53076171875
6.609999900000001,-9.890447616577148,0.7110779285430908,1.1204863786697388,-9.9334716796875,0.335693359375,6.500244140625
6.6299999000000005,-9.895236015319824,0.8020575642585754,1.0247182846069336,-11.7034912109375,2.6397705078125,6.1798095703125
6.649999900000001,-9.892841339111328,0.8834604024887085,0.9289502501487732,-12.51220703125,2.7008056640625,5.2642822265625
6.6699999000000005,-9.876082420349121,0.9624691009521484,0.8379706144332886,-10.43701171875,0.54931640625,4.2572021484375
6.6899999,-9.904812812805176,0.9720458984375,0.7541735172271729,-6.16455078125,-0.732421875,3.2501220703125
6.709999900000001,-9.911994934082031,0.9265560507774353,0.6991068720817566,-1.617431640625,-2.5787353515625,2.50244140625
6.7299999,-9.931148529052734,0.912190854549408,0.6967126727104187,2.6702880859375,-4.5166015625,1.190185546875
6.749999900000001,-9.923966407775879,0.8810662031173706,0.7398083209991455,6.04248046875,-5.2490234375,0.9765625
6.7699999,-9.916783332824707,0.9145850539207458,0.8619126081466675,6.16455078125,-4.6234130859375,0.6256103515625
6.789999900000001,-9.84256362915039,0.9744400978088379,1.0845733880996704,0.152587890625,-1.922607421875,0.885009765625
6.8099999,-9.78989028930664,1.070208191871643,1.2952631711959839,-9.2620849609375,3.2196044921875,1.5106201171875
6.829999900000001,-9.713275909423828,1.1468225717544556,1.5634137392044067,-17.303466796875,10.92529296875,-0.152587890625
6.8499999,-9.68694019317627,1.2114660739898682,1.6352397203445435,-20.904541015625,15.93017578125,-1.861572265625
6.869999900000001,-9.737217903137207,1.1803414821624756,1.5897499322891235,-19.0582275390625,15.228271484375,-1.495361328125
6.8899999,-9.775525093078613,1.0845733880996704,1.3287819623947144,-14.16015625,13.48876953125,-1.28173828125
6.909999900000001,-9.880870819091797,0.9409212470054626,0.9720458984375,-5.523681640625,10.345458984375,-2.471923828125
6.9299999,-9.919178009033203,0.8259995579719543,0.5985504388809204,1.7547607421875,6.8817138671875,-3.11279296875
6.949999900000001,-9.967061996459961,0.7422025203704834,0.3687070608139038,1.0986328125,6.134033203125,-2.86865234375
6.9699999,-9.964667320251465,0.7206547260284424,0.17956513166427612,-2.1514892578125,4.82177734375,-1.7852783203125
6.989999900000001,-9.995792388916016,0.6991068720817566,0.1364694982767105,-1.2664794921875,1.8768310546875,-1.190185546875
7.0099999,-10.031704902648926,0.6200982332229614,0.05027823522686958,6.6680908203125,-3.4027099609375,-0.9613037109375
7.029999900000001,-10.067618370056152,0.5506663918495178,0,18.2342529296875,-10.101318359375,-0.0152587890625
7.0499999,-10.086771965026855,0.5051765441894531,0.019153613597154617,27.496337890625,-14.984130859375,1.129150390625
7.069999900000001,-10.034099578857422,0.629675030708313,0.2298433631658554,28.3203125,-15.6097412109375,0.732421875
7.0899999000000005,-9.926360130310059,0.8619126081466675,0.6344634294509888,14.83154296875,-9.7503662109375,-0.579833984375
7.109999900000001,-9.775525093078613,1.1994950771331787,1.1516109704971313,-5.126953125,-0.3814697265625,-0.457763671875
7.1299999000000005,-9.684545516967773,1.3886369466781616,1.6184803247451782,-22.4456787109375,10.0860595703125,-0.30517578125
7.149999900000001,-9.622296333312988,1.50355863571167,1.8986018896102905,-29.11376953125,14.923095703125,-0.4119873046875
7.1699999000000005,-9.634267807006836,1.357512354850769,1.9153614044189453,-28.3203125,16.876220703125,0.1678466796875
7.1899999,-9.703699111938477,1.1851298809051514,1.6927006244659424,-25.3143310546875,18.4478759765625,1.5869140625
7.209999900000001,-9.761159896850586,0.8571242094039917,1.2545616626739502,-19.866943359375,15.6402587890625,2.716064453125
7.2299999,-9.890447616577148,0.5913678407669067,0.706289529800415,-8.7890625,10.2691650390625,2.86865234375
7.249999900000001,-10.010157585144043,0.42377370595932007,0.17717093229293823,6.103515625,1.8463134765625,3.96728515625
7.2699999,-10.11789608001709,0.35673606395721436,-0.2346317619085312,16.29638671875,-7.5836181640625,3.631591796875
7.289999900000001,-10.165780067443848,0.5386953949928284,-0.35434186458587646,17.486572265625,-11.23046875,0.6561279296875
7.3099999,-10.132261276245117,0.7709329724311829,-0.23942017555236816,11.9476318359375,-10.7269287109375,-0.0152587890625
7.329999900000001,-10.043676376342773,1.0606313943862915,0.12928688526153564,4.058837890625,-8.0413818359375,-1.5716552734375
7.3499999,-9.947908401489258,1.2186486721038818,0.5817909836769104,-2.44140625,-6.622314453125,-3.11279296875
7.369999900000001,-9.849745750427246,1.2856862545013428,0.9768342971801758,-6.591796875,-2.838134765625,-3.3721923828125
7.3899999,-9.797073364257812,1.139639973640442,1.216254472732544,-7.0648193359375,2.2430419921875,-3.2196044921875
7.409999900000001,-9.785101890563965,0.9600749015808105,1.235408067703247,-4.0283203125,3.143310546875,-1.708984375
7.4299999,-9.81143856048584,0.7445967197418213,1.0869675874710083,3.509521484375,1.0528564453125,0.48828125
7.449999900000001,-9.885659217834473,0.5985504388809204,0.8858546018600464,12.14599609375,-2.5177001953125,2.838134765625
7.4699999,-9.943120002746582,0.5937620401382446,0.730231523513794,12.4053955078125,-3.72314453125,1.5411376953125
7.489999900000001,-9.950302124023438,0.7110779285430908,0.7015010714530945,3.8909912109375,-1.28173828125,1.0223388671875
7.5099999,-9.904812812805176,0.9265560507774353,0.828393816947937,-7.080078125,3.1280517578125,1.5716552734375
7.529999900000001,-9.852140426635742,1.1899182796478271,1.036689281463623,-15.6097412109375,6.0577392578125,0.5035400390625
7.5499999,-9.787496566772461,1.3096283674240112,1.1971008777618408,-21.148681640625,10.711669921875,-0.8392333984375
7.569999900000001,-9.758766174316406,1.3551181554794312,1.256955862045288,-22.857666015625,12.8326416015625,-0.9765625
7.5899999000000005,-9.806650161743164,1.1492167711257935,1.0989385843276978,-16.78466796875,11.5203857421875,-1.4190673828125
7.609999900000001,-9.864110946655273,0.8762778043746948,0.7445967197418213,-1.7547607421875,5.2337646484375,-0.946044921875
7.6299999000000005,-9.998186111450195,0.6057330369949341,0.3471592366695404,15.838623046875,-4.1961669921875,0.396728515625
7.649999900000001,-10.029311180114746,0.47165772318840027,0.05985504388809204,24.017333984375,-11.199951171875,0.7781982421875
7.6699999000000005,-10.067618370056152,0.5267243981361389,-0.043095629662275314,18.9361572265625,-11.8255615234375,0
7.6899999,-9.995792388916016,0.7015010714530945,0.17477671802043915,10.0250244140625,-7.965087890625,-1.6632080078125
7.709999900000001,-9.938331604003906,0.9145850539207458,0.545877993106842,1.983642578125,-5.7220458984375,-2.2430419921875
7.7299999,-9.871294021606445,1.1013327836990356,1.015141487121582,-6.34765625,-1.6326904296875,-1.6937255859375
7.749999900000001,-9.813833236694336,1.139639973640442,1.3694833517074585,-13.7786865234375,7.4920654296875,-1.9073486328125
7.7699999,-9.77791976928711,1.115697979927063,1.5107412338256836,-14.739990234375,11.41357421875,-0.640869140625
7.789999900000001,-9.742006301879883,0.9911994934082031,1.4317326545715332,-9.2926025390625,10.25390625,0.701904296875
7.8099999,-9.797073364257812,0.9002198576927185,1.1204863786697388,-2.3040771484375,8.392333984375,2.899169921875
7.829999900000001,-9.799467086791992,0.8571242094039917,0.8643068075180054,-1.0223388671875,5.7830810546875,3.7994384765625
7.8499999,-9.876082420349121,0.9528923034667969,0.6751648783683777,-12.1307373046875,8.6517333984375,2.6092529296875
7.869999900000001,-9.847352027893066,1.0414776802062988,0.629675030708313,-22.857666015625,12.1307373046875,0.701904296875
7.8899999,-9.883264541625977,1.1324573755264282,0.6967126727104187,-27.2369384765625,12.5579833984375,1.1444091796875
7.909999900000001,-9.880870819091797,1.1324573755264282,0.7110779285430908,-26.153564453125,11.474609375,0.396728515625
7.9299999,-9.911994934082031,1.070208191871643,0.7015010714530945,-21.2860107421875,9.4757080078125,-1.2969970703125
7.949999900000001,-9.962273597717285,0.9313444495201111,0.6009446382522583,-16.4794921875,9.09423828125,-1.1444091796875
7.9699999,-9.99100399017334,0.7996633648872375,0.363918662071228,-6.2408447265625,5.584716796875,-0.30517578125
7.989999900000001,-10.091560363769531,0.5578489899635315,-0.2106897532939911,22.0794677734375,-10.5438232421875,0.0762939453125
8.0099999,-10.062829971313477,0.608127236366272,-0.17238251864910126,24.59716796875,-14.8468017578125,2.25830078125
8.0299999,-10.005369186401367,0.7398083209991455,0.08379705995321274,6.77490234375,-8.392333984375,0.701904296875
8.049999900000001,-9.890447616577148,1.0031704902648926,0.6560112833976746,-16.082763671875,3.5858154296875,2.13623046875
8.069999900000001,-9.787496566772461,1.1683704853057861,1.1468225717544556,-28.778076171875,8.4075927734375,4.150390625
8.0899999,-9.768342971801758,1.2665326595306396,1.4460978507995605,-33.0352783203125,12.0086669921875,2.4871826171875
8.1099999,-9.758766174316406,1.2090718746185303,1.357512354850769,-27.862548828125,12.8021240234375,0.1983642578125
8.129999900000001,-9.84256362915039,1.0821791887283325,1.0414776802062988,-14.70947265625,9.27734375,-0.9002685546875
8.149999900000001,-9.928754806518555,0.9050082564353943,0.5530605912208557,-4.669189453125,3.2806396484375,-1.434326171875
8.1699999,-10.007762908935547,0.7637503147125244,0.1388636976480484,1.3580322265625,-2.0294189453125,-1.7547607421875
8.1899999,-10.096348762512207,0.586579442024231,-0.27054479718208313,11.9476318359375,-6.6070556640625,-1.953125
8.2099999,-10.129867553710938,0.5195417404174805,-0.40222588181495667,28.411865234375,-13.5498046875,-1.5411376953125
8.229999900000001,-10.098742485046387,0.4908113479614258,-0.40462008118629456,39.9017333984375,-19.500732421875,-0.30517578125
8.2499999,-10.019734382629395,0.7134721279144287,-0.07182604819536209,37.872314453125,-18.3258056640625,1.6326904296875
8.2699999,-9.892841339111328,1.048660397529602,0.5626373887062073,20.01953125,-10.2386474609375,0.5645751953125
8.2899999,-9.732429504394531,1.4197616577148438,1.2306196689605713,-8.026123046875,3.5400390625,-2.4871826171875
8.309999900000001,-9.674968719482422,1.6759412288665771,1.7357962131500244,-23.040771484375,13.946533203125,-4.2266845703125
8.3299999,-9.658209800720215,1.6519991159439087,1.8315643072128296,-18.7225341796875,14.2059326171875,-4.5166015625
8.3499999,-9.732429504394531,1.3670891523361206,1.5466543436050415,-9.82666015625,10.467529296875,-3.936767578125
8.3699999,-9.873687744140625,1.0079588890075684,0.933738648891449,-0.335693359375,5.706787109375,-2.99072265625
8.389999900000001,-10.017339706420898,0.6153098344802856,0.31364041566848755,15.56396484375,-4.669189453125,-2.8533935546875
8.4099999,-10.067618370056152,0.4381389021873474,-0.1628057211637497,29.754638671875,-13.427734375,-1.7242431640625
8.4299999,-10.15141487121582,0.3663128614425659,-0.5027823448181152,30.9295654296875,-16.6168212890625,-0.8392333984375
8.4499999,-10.053253173828125,0.45010992884635925,-0.24181437492370605,22.4151611328125,-16.3116455078125,-1.1138916015625
8.469999900000001,-9.955090522766113,0.6703764796257019,0.1364694982767105,9.5672607421875,-9.1705322265625,-0.2899169921875
8.4899999,-9.883264541625977,0.7972691655158997,0.6991068720817566,-1.8463134765625,-0.640869140625,-1.220703125
8.5099999,-9.794678688049316,1.0055646896362305,1.2018892765045166,-3.0364990234375,2.6092529296875,-1.5106201171875
8.5299999,-9.787496566772461,1.1324573755264282,1.4389152526855469,-1.9989013671875,4.0435791015625,4.7607421875
8.549999900000001,-9.751583099365234,1.216254472732544,1.4939818382263184,-7.7972412109375,5.43212890625,2.01416015625
8.569999900000001,-9.804255485534668,1.2186486721038818,1.3910311460494995,-15.1824951171875,7.568359375,-1.129150390625
8.5899999,-9.825803756713867,1.1180921792984009,1.139639973640442,-12.664794921875,3.96728515625,-1.617431640625
8.6099999,-9.907206535339355,0.9050082564353943,0.7757213711738586,-2.1820068359375,-1.40380859375,-1.6632080078125
8.629999900000001,-9.995792388916016,0.5985504388809204,0.43335050344467163,10.9100341796875,-5.0811767578125,-2.38037109375
8.649999900000001,-10.055646896362305,0.4812345504760742,0.07182604819536209,21.2860107421875,-7.87353515625,-3.90625
8.6699999,-10.077195167541504,0.4357447028160095,0.07422025501728058,27.3590087890625,-9.6435546875,0.396728515625
8.6899999,-9.976638793945312,0.7134721279144287,0.27054479718208313,19.1650390625,-9.58251953125,3.5552978515625
8.709999900000001,-9.86889934539795,1.036689281463623,0.7829039692878723,-2.2125244140625,-2.8839111328125,1.922607421875
8.729999900000001,-9.742006301879883,1.3646949529647827,1.3407529592514038,-23.25439453125,8.48388671875,-0.579833984375
8.7499999,-9.555258750915527,1.525106430053711,1.7932571172714233,-33.3709716796875,14.129638671875,0.457763671875
8.7699999,-9.636661529541016,1.45806884765625,1.8722656965255737,-41.6107177734375,18.157958984375,0.1068115234375
8.7899999,-9.658209800720215,1.2210428714752197,1.6687586307525635,-42.3126220703125,22.0947265625,-0.79345703125
8.809999900000001,-9.72285270690918,0.9145850539207458,1.1803414821624756,-33.9508056640625,19.71435546875,-0.6256103515625
8.8299999,-9.962273597717285,0.5961562395095825,0.586579442024231,-16.326904296875,13.946533203125,1.64794921875
8.8499999,-10.0580415725708,0.3711012601852417,0.004788403399288654,0.48828125,3.4942626953125,7.232666015625
8.8699999,-10.199298858642578,0.22266076505184174,-0.35434186458587646,15.2587890625,-5.584716796875,6.2713623046875
8.889999900000001,-10.314221382141113,0.272938996553421,-0.5841852426528931,23.3306884765625,-10.3607177734375,3.8299560546875
8.9099999,-10.256759643554688,0.3663128614425659,-0.5626373887062073,32.7606201171875,-20.263671875,3.265380859375
8.9299999,-10.201693534851074,0.7350199222564697,-0.3423708379268646,41.4886474609375,-26.4129638671875,-0.48828125
8.9499999,-10.034099578857422,1.0414776802062988,0.05985504388809204,35.2325439453125,-23.6968994140625,-3.41796875
8.969999900000001,-9.864110946655273,1.3646949529647827,0.6200982332229614,16.7236328125,-12.51220703125,-6.0577392578125
8.9899999,-9.68694019317627,1.525106430053711,1.1971008777618408,0.823974609375,-1.89208984375,-6.9580078125
9.0099999,-9.59835433959961,1.558625340461731,1.6615760326385498,-4.1961669921875,4.486083984375,-2.410888671875
9.0299999,-9.567230224609375,1.4700398445129395,1.987187385559082,-13.9312744140625,6.7901611328125,2.50244140625
9.049999900000001,-9.605537414550781,1.37906014919281,2.0805611610412598,-28.9764404296875,15.44189453125,1.8157958984375
9.069999900000001,-9.691728591918945,1.1540051698684692,1.8746598958969116,-38.6810302734375,21.6217041015625,0.579833984375
9.0899999,-9.823410034179688,0.9002198576927185,1.4413094520568848,-28.99169921875,16.143798828125,1.1444091796875
9.1099999,-9.971850395202637,0.6416460275650024,0.7038952708244324,-5.1422119140625,4.0283203125,-1.0528564453125
9.129999900000001,-10.11789608001709,0.43095630407333374,0.08140286058187485,15.0146484375,-7.2174072265625,0.4119873046875
9.149999900000001,-10.153809547424316,0.4141969084739685,-0.31603461503982544,18.6920166015625,-9.552001953125,-1.15966796875
9.1699999,-10.101137161254883,0.48602294921875,-0.2944868206977844,14.1143798828125,-8.544921875,-4.547119140625
9.1899999,-10.04846477508545,0.6967126727104187,0.09576806426048279,9.82666015625,-4.4708251953125,-2.2735595703125
9.209999900000001,-9.892841339111328,0.9361328482627869,0.6775590777397156,0.30517578125,0.06103515625,2.2735595703125
9.229999900000001,-9.785101890563965,1.1755530834197998,1.3192051649093628,-13.2598876953125,5.5694580078125,2.50244140625
9.2499999,-9.68694019317627,1.3287819623947144,1.7142484188079834,-26.6876220703125,15.4876708984375,-0.457763671875
9.2699999,-9.643844604492188,1.381454348564148,1.821987509727478,-27.435302734375,18.157958984375,-1.5869140625
9.2899999,-9.68694019317627,1.2234370708465576,1.4772224426269531,-15.5181884765625,12.1307373046875,-2.2430419921875
9.309999900000001,-9.890447616577148,1.0103530883789062,0.9074024558067322,-0.18310546875,5.8135986328125,-4.852294921875
9.3299999,-9.974244117736816,0.8020575642585754,0.2968810200691223,12.3291015625,-2.8839111328125,-4.21142578125
9.3499999,-10.079588890075684,0.6512228846549988,-0.0694318488240242,14.3890380859375,-5.4931640625,-5.8135986328125
9.3699999,-10.105925559997559,0.5937620401382446,-0.2082955539226532,9.8114013671875,-2.38037109375,-7.720947265625
9.389999900000001,-10.02452278137207,0.6248866319656372,-0.05027823522686958,12.39013671875,-3.5858154296875,-6.4849853515625
9.4099999,-9.995792388916016,0.6440402865409851,0.24660277366638184,13.8397216796875,-3.326416015625,-4.1046142578125
9.4299999,-9.926360130310059,0.7038952708244324,0.6129156351089478,6.317138671875,-0.0457763671875,-0.579833984375
9.4499999,-9.892841339111328,0.8092401623725891,0.9074024558067322,-1.46484375,2.471923828125,0.244140625
9.469999900000001,-9.840168952941895,0.9313444495201111,1.1803414821624756,-6.16455078125,4.486083984375,-0.152587890625
9.4899999,-9.823410034179688,0.9648633003234863,1.2042834758758545,-11.5509033203125,8.0108642578125,-0.946044921875
9.5099999,-9.821015357971191,1.0103530883789062,1.1540051698684692,-14.1448974609375,9.7503662109375,-1.495361328125
9.5299999,-9.847352027893066,0.8595184087753296,0.8523358106613159,-10.2081298828125,6.3934326171875,-0.213623046875
9.549999900000001,-9.938331604003906,0.6871358752250671,0.5315127968788147,0.5340576171875,-0.1068115234375,0.1220703125
9.569999900000001,-10.02691650390625,0.5123591423034668,0.21308395266532898,7.32421875,-5.0811767578125,-0.1220703125
9.5899999,-10.101137161254883,0.4884171485900879,0.035913024097681046,6.5765380859375,-6.805419921875,1.1444091796875
9.6099999,-10.089165687561035,0.5123591423034668,0.002394201699644327,6.1492919921875,-9.246826171875,0.946044921875
9.629999900000001,-10.050858497619629,0.706289529800415,0.20350714027881622,6.4697265625,-9.82666015625,-0.1220703125
9.649999900000001,-9.940725326538086,0.9576807022094727,0.5410895943641663,-0.701904296875,-6.2713623046875,-1.220703125
9.6699999,-9.823410034179688,1.05105459690094,0.8667010068893433,-13.4124755859375,2.899169921875,-3.326416015625
9.6899999,-9.773131370544434,1.1516109704971313,1.2114660739898682,-17.578125,8.880615234375,-4.5928955078125
9.709999900000001,-9.701305389404297,0.9792284965515137,1.316810965538025,-12.1002197265625,8.36181640625,-2.86865234375
9.729999900000001,-9.794678688049316,0.7613561153411865,1.2545616626739502,-8.4228515625,9.674072265625,0.640869140625
9.7499999,-9.825803756713867,0.5722141861915588,1.0031704902648926,-6.53076171875,8.1787109375,3.3416748046875
9.7699999,-9.955090522766113,0.4668693244457245,0.7206547260284424,-4.45556640625,3.8604736328125,5.1116943359375
9.7899999,-10.029311180114746,0.49559974670410156,0.3711012601852417,-0.42724609375,2.9144287109375,3.0364990234375
9.809999900000001,-10.046070098876953,0.6607996821403503,0.17956513166427612,5.1727294921875,-2.8228759765625,2.25830078125
9.8299999,-10.017339706420898,0.8619126081466675,0.23702596127986908,2.6092529296875,-5.401611328125,1.251220703125
9.8499999,-9.943120002746582,1.0630255937576294,0.4118026793003082,-9.4451904296875,2.5787353515625,-1.5869140625
9.8699999,-9.876082420349121,1.1540051698684692,0.7015010714530945,-16.4947509765625,6.9732666015625,-1.4801025390625
9.889999900000001,-9.852140426635742,1.0438719987869263,0.7876923680305481,-11.749267578125,5.0811767578125,-0.8087158203125
9.9099999,-9.90241813659668,0.8547300100326538,0.6823474764823914,1.2969970703125,-0.3204345703125,-0.4425048828125
9.9299999,-9.983820915222168,0.5482721924781799,0.42616790533065796,14.007568359375,-7.1868896484375,1.129150390625
9.9499999,-10.038887977600098,0.45250412821769714,0.2561795711517334,17.63916015625,-11.2762451171875,1.953125
9.969999900000001,-10.034099578857422,0.4596867263317108,0.2825157940387726,8.9263916015625,-10.92529296875,2.9296875
9.9899999,-9.99339771270752,0.6536170840263367,0.5099649429321289,-6.0882568359375,-5.2642822265625,2.7618408203125
10.0099999,-9.921571731567383,0.9217676520347595,0.751779317855835,-16.845703125,0.5950927734375,1.861572265625
10.0299999,-9.854534149169922,1.192312479019165,0.9672574996948242,-20.8740234375,3.8604736328125,0.640869140625
10.049999900000001,-9.837775230407715,1.3048399686813354,1.0031704902648926,-20.99609375,2.2430419921875,-2.288818359375
10.069999900000001,-9.825803756713867,1.2737152576446533,0.9241618514060974,-16.0675048828125,0.946044921875,-4.8065185546875
10.0899999,-9.859322547912598,0.9959878921508789,0.8738836050033569,-5.9051513671875,-0.1220703125,-4.6234130859375
10.1099999,-9.907206535339355,0.6440402865409851,0.7876923680305481,3.082275390625,-0.3204345703125,-3.0364990234375
10.129999900000001,-9.911994934082031,0.2944868206977844,0.768538773059845,8.36181640625,0.274658203125,0.457763671875
10.149999900000001,-9.914389610290527,0.13407529890537262,0.7996633648872375,8.7127685546875,1.4801025390625,4.33349609375
10.1699999,-9.90241813659668,0.18914192914962769,0.790086567401886,3.265380859375,5.096435546875,7.1868896484375
10.1899999,-9.859322547912598,0.5315127968788147,0.8068459630012512,-0.885009765625,5.37109375,5.18798828125
10.209999900000001,-9.909601211547852,0.8810662031173706,0.6775590777397156,-2.2125244140625,2.8076171875,2.9144287109375
10.229999900000001,-9.943120002746582,1.1635819673538208,0.5386953949928284,5.9051513671875,-1.7547607421875,-1.5716552734375
10.2499999,-9.971850395202637,1.3455413579940796,0.4405331015586853,16.2200927734375,-7.3089599609375,-6.317138671875
10.2699999,-9.99339771270752,1.2856862545013428,0.3734954595565796,16.8609619140625,-8.6212158203125,-7.26318359375
10.2899999,-9.967061996459961,1.1803414821624756,0.524330198764801,9.82666015625,-6.0272216796875,-6.500244140625
10.309999900000001,-9.9000244140625,1.015141487121582,0.6991068720817566,0.5035400390625,-1.953125,-4.21142578125
10.3299999,-9.895236015319824,0.8164227604866028,0.8882488012313843,-4.1961669921875,1.2359619140625,-2.3193359375
10.3499999,-9.86889934539795,0.5746083855628967,0.8762778043746948,-0.396728515625,0.091552734375,-0.457763671875
10.3699999,-9.93354320526123,0.3734954595565796,0.7781155705451965,12.2222900390625,-5.1422119140625,1.6326904296875
10.389999900000001,-9.959878921508789,0.2298433631658554,0.5506663918495178,23.5443115234375,-12.3443603515625,2.8839111328125
10.4099999,-10.014945983886719,0.2992752194404602,0.45250412821769714,23.62060546875,-12.298583984375,2.6702880859375
10.4299999,-9.998186111450195,0.4668693244457245,0.4836287498474121,15.9149169921875,-14.7552490234375,2.4566650390625
10.4499999,-9.919178009033203,0.7829039692878723,0.8212111592292786,5.340576171875,-10.6964111328125,0.9307861328125
10.469999900000001,-9.828198432922363,1.0678139925003052,1.1563993692398071,-9.429931640625,2.0294189453125,-0.732421875
10.4899999,-9.768342971801758,1.2617442607879639,1.53707754611969,-20.111083984375,9.857177734375,-0.1220703125
10.5099999,-9.696516990661621,1.3431471586227417,1.7046716213226318,-19.53125,10.07080078125,-0.67138671875
10.5299999,-9.758766174316406,1.2737152576446533,1.5825673341751099,-12.176513671875,9.246826171875,-2.1209716796875
10.549999900000001,-9.785101890563965,1.1109095811843872,1.3670891523361206,-3.7689208984375,7.26318359375,-4.0283203125
10.569999900000001,-9.813833236694336,0.9193734526634216,1.139639973640442,-0.152587890625,6.40869140625,-5.828857421875
10.5899999,-9.854534149169922,0.689530074596405,0.9648633003234863,-4.7607421875,12.4969482421875,-5.584716796875
10.6099999,-9.859322547912598,0.5386953949928284,0.9050082564353943,-7.293701171875,14.6636962890625,0.79345703125
10.629999900000001,-9.921571731567383,0.4668693244457245,0.8595184087753296,-5.126953125,11.627197265625,3.41796875
10.649999900000001,-9.93354320526123,0.507570743560791,0.7805097699165344,-5.5999755859375,10.1470947265625,3.082275390625
10.6699999,-9.967061996459961,0.6344634294509888,0.6871358752250671,-8.7127685546875,10.1165771484375,2.716064453125
10.6899999,-9.979032516479492,0.7972691655158997,0.5482721924781799,-8.9569091796875,9.429931640625,0.6866455078125
10.709999900000001,-10.014945983886719,0.8547300100326538,0.2992752194404602,-3.1585693359375,4.9285888671875,-0.8087158203125
10.729999900000001,-10.062829971313477,0.8020575642585754,0,9.8419189453125,-4.94384765625,-2.197265625
10.7499999,-10.134655952453613,0.6536170840263367,-0.3447650372982025,25.787353515625,-15.2740478515625,-2.471923828125
10.7699999,-10.170568466186523,0.4908113479614258,-0.5171475410461426,38.2232666015625,-23.92578125,-2.9144287109375
10.7899999,-10.158597946166992,0.40222588181495667,-0.4596867263317108,42.5262451171875,-28.4423828125,-1.7242431640625
10.809999900000001,-10.0580415725708,0.5147533416748047,-0.004788403399288654,34.7747802734375,-25.1922607421875,0.1678466796875
10.8299999,-9.909601211547852,0.7015010714530945,0.6512228846549988,16.1285400390625,-16.3421630859375,0.5340576171875
10.8499999,-9.734824180603027,1.0007762908935547,1.4173674583435059,-2.6092529296875,-4.8370361328125,1.77001953125
10.8699999,-9.550470352172852,1.3048399686813354,2.1332337856292725,-16.8609619140625,5.4931640625,2.349853515625
10.889999900000001,-9.473855972290039,1.3982137441635132,2.451662540435791,-27.9388427734375,15.1519775390625,-0.2899169921875
10.9099999,-9.440337181091309,1.479616641998291,2.585737943649292,-32.8826904296875,24.2156982421875,-2.2735595703125
10.9299999,-9.493009567260742,1.4197616577148438,2.403778553009033,-33.9202880859375,26.824951171875,-2.2125244140625
10.9499999,-9.603142738342285,1.1971008777618408,1.9608511924743652,-37.353515625,31.8450927734375,-3.936767578125
10.969999900000001,-9.782708168029785,0.950498104095459,1.3120225667953491,-34.698486328125,33.2489013671875,-2.6702880859375
10.9899999,-9.967061996459961,0.6344634294509888,0.6033388376235962,-22.0947265625,21.0113525390625,0.946044921875
11.0099999,-10.098742485046387,0.3208230137825012,-0.11013327538967133,-11.016845703125,10.9710693359375,2.2430419921875
11.0299999,-10.256759643554688,0.17238251864910126,-0.5913678407669067,-3.7689208984375,5.218505859375,2.716064453125
11.049999900000001,-10.266336441040039,0.12928688526153564,-0.8331822156906128,4.2266845703125,-1.9378662109375,3.326416015625
11.069999900000001,-10.299856185913086,0.18914192914962769,-0.9361328482627869,14.8162841796875,-9.8114013671875,3.6468505859375
11.0899999,-10.278307914733887,0.33997663855552673,-0.8834604024887085,28.4881591796875,-18.890380859375,3.5552978515625
11.1099999,-10.20648193359375,0.5051765441894531,-0.7110779285430908,37.933349609375,-26.9317626953125,2.7618408203125
11.129999900000001,-10.08198356628418,0.7757213711738586,-0.26815059781074524,34.3017578125,-28.62548828125,-1.2969970703125
11.149999900000001,-9.916783332824707,1.0103530883789062,0.33997663855552673,17.0135498046875,-19.8974609375,-1.5411376953125
11.1699999,-9.765948295593262,1.1779472827911377,1.0103530883789062,1.556396484375,-8.575439453125,-1.6326904296875
11.1899999,-9.651026725769043,1.2737152576446533,1.5969325304031372,-2.410888671875,-6.500244140625,-0.762939453125
11.209999900000001,-9.593565940856934,1.2449848651885986,1.920149803161621,-5.462646484375,-0.9307861328125,-0.091552734375
11.229999900000001,-9.586383819580078,1.213860273361206,2.0661959648132324,-13.702392578125,6.3629150390625,0.1068115234375
11.2499999,-9.600749015808105,1.1635819673538208,2.0638017654418945,-22.7203369140625,14.3890380859375,-1.28173828125
11.2699999,-9.66539192199707,1.1109095811843872,1.843535304069519,-25.4669189453125,20.5841064453125,-4.150390625
11.2899999,-9.758766174316406,0.950498104095459,1.4245500564575195,-15.80810546875,19.439697265625,-4.5928955078125
11.309999900000001,-9.871294021606445,0.7445967197418213,0.871489405632019,0.701904296875,9.33837890625,-3.997802734375
11.3299999,-9.976638793945312,0.5506663918495178,0.40940847992897034,9.27734375,1.556396484375,-2.74658203125
11.3499999,-10.062829971313477,0.4141969084739685,0.035913024097681046,6.622314453125,1.4801025390625,-0.579833984375
11.3699999,-10.127472877502441,0.3495534360408783,-0.06464344263076782,5.4779052734375,2.2125244140625,0.0762939453125
11.389999900000001,-10.156203269958496,0.40701428055763245,-0.028730420395731926,8.1634521484375,-0.823974609375,1.40380859375
11.4099999,-10.11789608001709,0.47884035110473633,0.002394201699644327,6.927490234375,-4.852294921875,4.1961669921875
11.4299999,-10.072406768798828,0.6057330369949341,0.047884032130241394,4.69970703125,-8.4686279296875,4.241943359375
11.4499999,-10.010157585144043,0.7637503147125244,0.14604631066322327,7.0953369140625,-12.5274658203125,2.6092529296875
11.469999900000001,-9.964667320251465,0.8236053586006165,0.2059013396501541,9.9945068359375,-15.3961181640625,2.25830078125
11.4899999,-9.979032516479492,0.8667010068893433,0.40701428055763245,13.0462646484375,-16.54052734375,2.50244140625
11.5099999,-9.981427192687988,0.8978256583213806,0.6440402865409851,15.472412109375,-17.730712890625,0.42724609375
11.5299999,-9.904812812805176,0.8954314589500427,0.950498104095459,10.07080078125,-14.3585205078125,-0.030517578125
11.549999900000001,-9.799467086791992,1.0630255937576294,1.3120225667953491,0.213623046875,-6.8206787109375,0.79345703125
11.569999900000001,-9.641449928283691,1.1851298809051514,1.7118542194366455,-11.688232421875,2.2430419921875,-0.79345703125
11.5899999,-9.493009567260742,1.3287819623947144,2.027888774871826,-20.3094482421875,12.7410888671875,-2.8228759765625
11.6099999,-9.442731857299805,1.3311761617660522,2.2816741466522217,-27.740478515625,22.1710205078125,-1.800537109375
11.629999900000001,-9.490615844726562,1.1899182796478271,2.078166961669922,-33.477783203125,29.4647216796875,-0.5645751953125
11.649999900000001,-9.696516990661621,0.9169792532920837,1.5059528350830078,-19.775390625,21.8353271484375,1.861572265625
11.6699999,-9.907206535339355,0.5913678407669067,0.586579442024231,5.279541015625,2.8533935546875,1.739501953125
11.6899999,-10.211270332336426,0.33039984107017517,-0.3711012601852417,26.092529296875,-12.9241943359375,-0.18310546875
11.709999900000001,-10.350133895874023,0.2801215946674347,-0.9217676520347595,36.9110107421875,-23.1170654296875,0.4425048828125
11.729999900000001,-10.371682167053223,0.4668693244457245,-0.8140285611152649,29.1290283203125,-25.6195068359375,-1.8768310546875
11.7499999,-10.20887565612793,0.8643068075180054,-0.16759411990642548,3.265380859375,-15.0146484375,-4.69970703125
11.7699999,-9.763554573059082,1.4676456451416016,1.6041151285171509,-46.1883544921875,10.223388671875,-2.86865234375
11.7899999,-9.586383819580078,1.2665326595306396,1.9991583824157715,-41.80908203125,12.0849609375,-2.5787353515625
11.809999900000001,-9.660603523254395,0.8068459630012512,1.8794482946395874,-17.39501953125,9.2620849609375,0.1678466796875
11.8299999,-9.75637149810791,0.22266076505184174,1.4389152526855469,6.8511962890625,3.265380859375,7.4005126953125
11.8499999,-9.979032516479492,-0.18914192914962769,0.7948749661445618,23.5595703125,-5.8135986328125,11.3677978515625
11.8699999,-10.08198356628418,-0.2561795711517334,0.38307225704193115,30.8380126953125,-12.451171875,12.237548828125
11.889999900000001,-10.11550235748291,0.15562310814857483,0.2082955539226532,23.651123046875,-11.77978515625,10.4827880859375
11.9099999,-10.038887977600098,0.7110779285430908,0.304063618183136,9.033203125,-6.65283203125,6.866455078125
11.9299999,-9.940725326538086,1.3407529592514038,0.5985504388809204,3.9825439453125,-5.645751953125,1.739501953125
11.9499999,-9.856928825378418,1.6974890232086182,0.8810662031173706,6.2713623046875,-7.7056884765625,-2.7313232421875
11.969999900000001,-9.801861763000488,1.8626888990402222,1.1516109704971313,7.2479248046875,-4.8065185546875,-6.378173828125
11.9899999,-9.780313491821289,1.6879122257232666,1.292868971824646,9.307861328125,-3.143310546875,-8.7127685546875
12.0099999,-9.742006301879883,1.4053963422775269,1.4987702369689941,10.8184814453125,-2.38037109375,-9.613037109375
12.0299999,-9.770736694335938,1.0797849893569946,1.6400281190872192,6.561279296875,2.105712890625,-6.4239501953125
12.049999900000001,-9.708487510681152,0.8427590131759644,1.7310078144073486,-0.701904296875,10.92529296875,-4.4097900390625
12.069999900000001,-9.744400978088379,0.727837324142456,1.7477672100067139,-7.8125,15.44189453125,-3.3721923828125
12.0899999,-9.773131370544434,0.6727706789970398,1.4484920501708984,-9.918212890625,14.2059326171875,-2.74658203125
12.1099999,-9.856928825378418,0.6177040338516235,1.036689281463623,-2.2125244140625,7.0953369140625,-2.01416015625
12.129999900000001,-9.995792388916016,0.5195417404174805,0.5506663918495178,10.101318359375,0.823974609375,-1.9989013671875
12.149999900000001,-10.072406768798828,0.45489832758903503,0.21308395266532898,21.1029052734375,-6.3629150390625,-0.274658203125
12.1699999,-10.074800491333008,0.5099649429321289,0.17717093229293823,22.4456787109375,-7.50732421875,0.42724609375
12.1899999,-10.014945983886719,0.6536170840263367,0.5051765441894531,9.5367431640625,-1.89208984375,1.3580322265625
12.209999900000001,-9.880870819091797,0.9050082564353943,1.05105459690094,-9.2010498046875,6.2255859375,2.716064453125
12.229999900000001,-9.732429504394531,1.113303780555725,1.5753847360610962,-28.106689453125,19.0887451171875,1.7242431640625
12.2499999,-9.672574996948242,1.192312479019165,1.8052281141281128,-37.7044677734375,26.4892578125,2.5634765625
12.2699999,-9.710882186889648,1.1061211824417114,1.6328455209732056,-32.7301025390625,22.2015380859375,5.584716796875
12.289999900000002,-9.847352027893066,0.8762778043746948,0.9792284965515137,-17.242431640625,11.322021484375,6.7596435546875
12.309999900000001,-10.041281700134277,0.5793967843055725,0.19393034279346466,4.1961669921875,-2.3345947265625,5.828857421875
12.3299999,-10.192116737365723,0.35913026332855225,-0.5147533416748047,22.9644775390625,-16.1285400390625,5.6610107421875
12.3499999,-10.237606048583984,0.3878606855869293,-0.8355764150619507,30.3497314453125,-24.59716796875,6.103515625
12.3699999,-10.189722061157227,0.5554547905921936,-0.6775590777397156,26.2908935546875,-25.5126953125,4.974365234375
12.389999900000001,-10.034099578857422,0.9074024558067322,-0.11971008777618408,18.341064453125,-21.2554931640625,1.3275146484375
12.4099999,-9.835380554199219,1.213860273361206,0.8092401623725891,8.331298828125,-14.2059326171875,2.349853515625
12.4299999,-9.641449928283691,1.5203180313110352,1.6831238269805908,-10.528564453125,0.06103515625,2.899169921875
12.4499999,-9.509769439697266,1.6663644313812256,2.346317768096924,-21.42333984375,11.29150390625,-0.6866455078125
12.469999900000001,-9.476250648498535,1.6280571222305298,2.5450363159179688,-17.333984375,14.892578125,-6.7596435546875
12.4899999,-9.5624418258667,1.4724340438842773,2.2242133617401123,-5.615234375,13.427734375,-7.354736328125
12.5099999,-9.703699111938477,1.115697979927063,1.601720929145813,5.0048828125,7.7362060546875,-1.3580322265625
12.5299999,-9.892841339111328,0.8427590131759644,0.8762778043746948,10.2691650390625,2.044677734375,-1.4495849609375
12.549999900000001,-10.017339706420898,0.6560112833976746,0.33997663855552673,12.7716064453125,-3.0670166015625,-2.777099609375
12.569999900000001,-10.02691650390625,0.751779317855835,0.33997663855552673,5.950927734375,-3.72314453125,-1.1138916015625
12.5899999,-9.873687744140625,1.0319008827209473,0.7182605266571045,-19.3939208984375,9.4757080078125,-1.52587890625
12.6099999,-9.792284965515137,1.173158884048462,1.170764684677124,-44.2962646484375,28.3203125,-3.41796875
12.629999900000001,-9.679757118225098,1.1468225717544556,1.4389152526855469,-38.238525390625,27.8778076171875,-2.044677734375
12.649999900000001,-9.816226959228516,0.6991068720817566,1.1013327836990356,-14.7857666015625,13.9312744140625,6.1187744140625
12.6699999,-10.012551307678223,0.2944868206977844,0.33279404044151306,10.55908203125,-1.46484375,11.1541748046875
12.6899999,-10.223240852355957,0.002394201699644327,-0.5410895943641663,34.0118408203125,-18.7835693359375,9.735107421875
12.709999900000001,-10.350133895874023,0.16759411990642548,-1.0055646896362305,47.05810546875,-32.4859619140625,6.3323974609375
12.729999900000001,-10.273519515991211,0.7182605266571045,-0.8307880163192749,34.48486328125,-33.355712890625,4.5166015625
12.7499999,-10.086771965026855,1.3455413579940796,-0.15322890877723694,3.4637451171875,-21.1639404296875,1.0986328125
12.7699999,-9.794678688049316,1.8267759084701538,0.9217676520347595,-16.4337158203125,-6.53076171875,-5.9356689453125
12.789999900000002,-9.581595420837402,1.9536685943603516,1.8267759084701538,-21.3775634765625,3.9215087890625,-7.171630859375
12.809999900000001,-9.466673851013184,1.678335428237915,2.315192937850952,-20.69091796875,10.4217529296875,0.5645751953125
12.8299999,-9.466673851013184,1.2952631711959839,2.4372973442077637,-15.472412109375,10.650634765625,4.33349609375
12.8499999,-9.548076629638672,0.9840168952941895,2.2840683460235596,-11.4898681640625,10.8489990234375,5.218505859375
12.8699999,-9.533711433410645,0.9193734526634216,1.9847931861877441,-21.636962890625,18.1884765625,3.662109375
12.889999900000001,-9.59596061706543,0.8954314589500427,1.3982137441635132,-27.9083251953125,24.4140625,0.42724609375
12.9099999,-9.773131370544434,1.0749965906143188,1.0462661981582642,-5.06591796875,6.7138671875,-4.0283203125
12.9299999,-9.9000244140625,1.0103530883789062,0.3998316824436188,-2.5787353515625,9.27734375,-5.889892578125
12.9499999,-10.160991668701172,0.9624691009521484,0.13168109953403473,-7.3089599609375,9.3536376953125,-1.3885498046875
12.969999900000001,-10.283096313476562,0.790086567401886,-0.17717093229293823,-2.0751953125,-0.457763671875,3.387451171875
12.9899999,-10.251971244812012,0.6392518281936646,-0.363918662071228,15.167236328125,-11.138916015625,7.4615478515625
13.0099999,-10.266336441040039,0.4692635238170624,-0.47644615173339844,35.4461669921875,-23.62060546875,4.058837890625
13.0299999,-10.139444351196289,0.7086837291717529,-0.21308395266532898,37.5518798828125,-29.4342041015625,3.2501220703125
13.049999900000001,-9.964667320251465,1.1013327836990356,0.44532153010368347,15.3350830078125,-19.7906494140625,1.922607421875
13.069999900000001,-9.75397777557373,1.6519991159439087,1.400607943534851,-12.8021240234375,0.0457763671875,-5.0201416015625
13.0899999,-9.524134635925293,2.0685901641845703,2.169146776199341,-32.3944091796875,17.1356201171875,-10.5438232421875
13.1099999,-9.521739959716797,1.9847931861877441,2.3989901542663574,-37.811279296875,23.0255126953125,-7.6141357421875
13.129999900000001,-9.583989143371582,1.5682021379470825,2.03507137298584,-30.2276611328125,13.153076171875,-1.708984375
13.149999900000001,-9.816226959228516,0.8403648138046265,1.1899182796478271,-12.4664306640625,3.4332275390625,1.1749267578125
13.1699999,-9.99100399017334,0.13407529890537262,0.38307225704193115,17.02880859375,-7.476806640625,1.2054443359375
13.1899999,-10.093954086303711,-0.26575639843940735,-0.16998831927776337,42.1142578125,-19.317626953125,5.767822265625
13.209999900000001,-10.031704902648926,-0.1388636976480484,-0.11252748221158981,45.6695556640625,-21.087646484375,10.955810546875
13.229999900000001,-9.859322547912598,0.47884035110473633,0.6560112833976746,23.9715576171875,-11.566162109375,10.1318359375
13.2499999,-9.605537414550781,1.436521053314209,1.699883222579956,-29.083251953125,20.7977294921875,3.387451171875
13.2699999,-9.461885452270508,2.231395959854126,2.4684219360351562,-72.3114013671875,45.135498046875,-1.8768310546875
13.289999900000002,-9.459490776062012,2.4899697303771973,2.4636335372924805,-71.044921875,36.7584228515625,-1.220703125
13.309999900000001,-9.706093788146973,2.070984363555908,1.4652514457702637,-34.332275390625,18.1884765625,-1.28173828125
13.3299999,-10.108319282531738,1.1635819673538208,-0.16759411990642548,18.585205078125,-10.162353515625,-1.434326171875
13.3499999,-10.414777755737305,0.26336219906806946,-1.5442601442337036,70.9686279296875,-43.88427734375,-0.5340576171875
13.3699999,-10.57040023803711,-0.15322890877723694,-2.10210919380188,95.245361328125,-59.4635009765625,2.471923828125
13.389999900000001,-10.357316970825195,0.1628057211637497,-1.2713210582733154,72.20458984375,-50.6134033203125,4.0283203125
13.4099999,-9.856928825378418,1.0103530883789062,0.5626373887062073,10.43701171875,-17.4407958984375,0.54931640625
13.4299999,-9.330204010009766,2.0231003761291504,2.7102363109588623,-56.6558837890625,28.62548828125,-3.0975341796875
13.4499999,-8.980650901794434,2.561795711517334,4.0533833503723145,-91.766357421875,53.9093017578125,-2.99072265625
13.469999900000001,-9.05247688293457,2.427720546722412,3.9839515686035156,-73.3795166015625,47.637939453125,0.030517578125
13.4899999,-9.385271072387695,1.778891921043396,2.6575639247894287,-20.7366943359375,20.355224609375,2.8533935546875
13.5099999,-9.832986831665039,0.9193734526634216,0.8954314589500427,26.2451171875,-8.1634521484375,0.152587890625
13.5299999,-10.14902114868164,0.4118026793003082,-0.4165911078453064,42.8619384765625,-18.2342529296875,-1.0986328125
13.549999900000001,-10.170568466186523,0.33997663855552673,-0.5578489899635315,26.2451171875,-13.580322265625,2.9754638671875
13.569999900000001,-10.022128105163574,0.706289529800415,0.20111294090747833,-16.4947509765625,12.8021240234375,2.960205078125
13.5899999,-9.770736694335938,1.192312479019165,1.2713210582733154,-55.1300048828125,37.5518798828125,3.173828125
13.6099999,-9.653421401977539,1.482010841369629,1.8315643072128296,-63.018798828125,41.839599609375,4.7607421875
13.629999900000001,-9.732429504394531,1.4245500564575195,1.4053963422775269,-34.2559814453125,26.5960693359375,6.011962890625
13.649999900000001,-9.995792388916016,1.1252747774124146,0.27054479718208313,11.0931396484375,-3.5247802734375,6.8817138671875
13.6699999,-10.24239444732666,0.7661445140838623,-0.8762778043746948,48.64501953125,-32.9132080078125,1.6632080078125
13.6899999,-10.36449909210205,0.629675030708313,-1.4317326545715332,59.967041015625,-41.168212890625,-1.495361328125
13.709999900000001,-10.249577522277832,0.7422025203704834,-1.0582371950149536,48.6602783203125,-34.48486328125,-0.06103515625
13.729999900000001,-9.945513725280762,1.1994950771331787,0.09576806426048279,24.322509765625,-17.120361328125,-0.4119873046875
13.7499999,-9.581595420837402,1.6735470294952393,1.5514427423477173,-5.31005859375,3.387451171875,-4.913330078125
13.7699999,-9.279925346374512,2.0470423698425293,2.676717519760132,-32.8216552734375,25.7110595703125,-7.1563720703125
13.789999900000002,-9.208099365234375,2.1308395862579346,3.160346269607544,-39.3524169921875,34.8052978515625,-4.1046142578125
13.809999900000001,-9.296685218811035,1.968033790588379,2.849100112915039,-27.2064208984375,29.052734375,-1.4801025390625
13.8299999,-9.512163162231445,1.6711528301239014,2.027888774871826,-16.5252685546875,22.7813720703125,-5.279541015625
13.8499999,-9.775525093078613,1.3455413579940796,1.0606313943862915,-11.23046875,19.775390625,-10.7574462890625
13.8699999,-9.962273597717285,1.0007762908935547,0.2944868206977844,-5.55419921875,17.5018310546875,-11.16943359375
13.889999900000001,-10.070012092590332,0.6033388376235962,-0.16998831927776337,-0.7781982421875,9.033203125,-6.0882568359375
13.9099999,-10.18493366241455,0.31842881441116333,-0.5051765441894531,2.777099609375,6.2713623046875,2.7008056640625
13.9299999,-10.20887565612793,0.15801730751991272,-0.7038952708244324,7.720947265625,0.8087158203125,8.4075927734375
13.9499999,-10.271124839782715,0.22505496442317963,-0.9097966551780701,14.6026611328125,-12.75634765625,7.4462890625
13.969999900000001,-10.247182846069336,0.4213795065879822,-0.9648633003234863,25.238037109375,-25.1312255859375,2.4261474609375
13.9899999,-10.211270332336426,0.730231523513794,-0.7757213711738586,34.11865234375,-32.989501953125,1.251220703125
14.0099999,-10.086771965026855,0.9959878921508789,-0.26096799969673157,32.1044921875,-30.1513671875,3.7994384765625
14.0299999,-9.921571731567383,1.316810965538025,0.44771572947502136,18.98193359375,-21.8353271484375,3.1280517578125
14.049999900000001,-9.727641105651855,1.6065093278884888,1.2976573705673218,1.4801025390625,-10.589599609375,0.213623046875
14.069999900000001,-9.531316757202148,1.8291701078414917,2.051830768585205,-15.6097412109375,3.2806396484375,-2.7008056640625
14.0899999,-9.440337181091309,1.7932571172714233,2.4229321479797363,-28.3355712890625,16.9677734375,-4.241943359375
14.1099999,-9.490615844726562,1.599326729774475,2.3918075561523438,-23.37646484375,20.660400390625,-1.800537109375
14.129999900000001,-9.600749015808105,1.170764684677124,1.922544002532959,-1.77001953125,10.162353515625,1.40380859375
14.149999900000001,-9.818621635437012,0.9409212470054626,1.3192051649093628,18.9056396484375,1.77001953125,0.8697509765625
14.1699999,-9.885659217834473,0.9433154463768005,1.0055646896362305,20.0042724609375,3.6163330078125,-0.8697509765625
14.1899999,-9.871294021606445,1.2210428714752197,0.950498104095459,-5.401611328125,19.4549560546875,-7.080078125
14.209999900000001,-9.80904483795166,1.5179238319396973,0.9552865028381348,-29.9072265625,31.1126708984375,-11.5814208984375
14.229999900000001,-9.794678688049316,1.5298948287963867,0.8978256583213806,-32.28759765625,27.1148681640625,-9.70458984375
14.2499999,-9.861717224121094,1.1803414821624756,0.45250412821769714,-17.578125,14.09912109375,-4.33349609375
14.2699999,-10.038887977600098,0.5434837937355042,-0.11013327538967133,0.8697509765625,3.265380859375,2.86865234375
14.289999900000002,-10.192116737365723,0.028730420395731926,-0.6392518281936646,20.32470703125,-8.2244873046875,7.9498291015625
14.309999900000001,-10.280701637268066,-0.1628057211637497,-0.9768342971801758,35.8734130859375,-17.88330078125,10.3302001953125
14.3299999,-10.316615104675293,0.08858546614646912,-0.9528923034667969,39.947509765625,-25.238037109375,8.72802734375
14.3499999,-10.153809547424316,0.7445967197418213,-0.5746083855628967,27.5115966796875,-24.7039794921875,4.33349609375
14.3699999,-9.950302124023438,1.5322890281677246,0.22266076505184174,1.007080078125,-15.1824951171875,1.8463134765625
14.389999900000001,-9.68694019317627,2.1380221843719482,1.1109095811843872,-29.4342041015625,-0.79345703125,-0.6866455078125
14.4099999,-9.495404243469238,2.3942017555236816,1.8052281141281128,-47.943115234375,12.176513671875,-4.08935546875
14.4299999,-9.48343276977539,2.233790159225464,2.0829553604125977,-49.0570068359375,17.5628662109375,-5.0048828125
14.4499999,-9.576807022094727,1.7405846118927002,1.8602946996688843,-37.322998046875,14.6942138671875,-3.082275390625
14.469999900000001,-9.739612579345703,1.139639973640442,1.278503656387329,-16.6168212890625,7.01904296875,-2.105712890625
14.4899999,-9.885659217834473,0.5506663918495178,0.646434485912323,4.3792724609375,0.518798828125,-2.593994140625
14.5099999,-9.976638793945312,0.24420857429504395,0.10534487664699554,18.49365234375,-4.08935546875,2.105712890625
14.5299999,-10.002974510192871,0.2298433631658554,0.009576806798577309,22.705078125,-7.38525390625,5.0201416015625
14.549999900000001,-9.895236015319824,0.6703764796257019,0.33758243918418884,11.2762451171875,-3.7078857421875,0.244140625
14.569999900000001,-9.53849983215332,1.1659762859344482,0.8379706144332886,-20.8740234375,15.9759521484375,-2.716064453125
14.5899999,-9.346963882446289,1.6160861253738403,1.1492167711257935,-40.3900146484375,29.6783447265625,-5.584716796875
14.6099999,-8.947132110595703,1.5203180313110352,0.9624691009521484,-18.2342529296875,14.9993896484375,-4.1656494140625
14.629999900000001,-8.755595207214355,0.9169792532920837,0.22026655077934265,20.0347900390625,-5.615234375,-2.044677734375
14.649999900000001,-8.916007041931152,0.14365209639072418,-0.5434837937355042,63.7054443359375,-27.1759033203125,2.62451171875
14.6699999,-9.07641887664795,-0.38307225704193115,-0.8523358106613159,88.80615234375,-36.6363525390625,12.2833251953125
14.6899999,-9.370905876159668,-0.17238251864910126,-0.3256114423274994,69.0765380859375,-23.49853515625,18.0206298828125
14.709999900000001,-9.677363395690918,0.7110779285430908,0.6655880808830261,19.10400390625,1.617431640625,12.5274658203125
14.729999900000001,-9.914389610290527,1.9345149993896484,1.7621324062347412,-27.1453857421875,24.0631103515625,3.2958984375
14.7499999,-10.232817649841309,3.07415509223938,2.5043349266052246,-54.19921875,34.48486328125,-2.25830078125
14.7699999,-10.436325073242188,3.5482068061828613,2.408566951751709,-76.629638671875,42.205810546875,-8.0108642578125
14.789999900000002,-10.781089782714844,3.1531636714935303,1.5634137392044067,-79.132080078125,44.2047119140625,-13.092041015625
14.809999900000001,-10.864887237548828,2.051830768585205,0.2825157940387726,-40.6036376953125,14.862060546875,-11.3372802734375
14.8299999,-10.90798282623291,0.629675030708313,-1.0031704902648926,12.14599609375,-19.378662109375,3.021240234375
14.8499999,-10.8720703125,-0.5003881454467773,-1.721431016921997,45.7000732421875,-36.590576171875,11.5509033203125
14.8699999,-10.759542465209961,-0.8379706144332886,-1.5849615335464478,50.1556396484375,-33.7982177734375,14.2822265625
14.889999900000001,-10.445901870727539,-0.395043283700943,-0.8331822156906128,34.5458984375,-19.3634033203125,12.359619140625
14.9099999,-10.062829971313477,0.6392518281936646,0.28730419278144836,14.984130859375,-8.1634521484375,5.9051513671875
14.9299999,-9.718064308166504,1.6424223184585571,1.1013327836990356,-9.4451904296875,3.23486328125,-4.3792724609375
14.9499999,-9.476250648498535,2.2697031497955322,1.4987702369689941,-19.8822021484375,7.4310302734375,-10.223388671875
14.969999900000001,-9.442731857299805,2.3367409706115723,1.4867992401123047,-9.7808837890625,0.48828125,-8.5906982421875
14.9899999,-9.5624418258667,1.9081788063049316,1.2066776752471924,0.8544921875,-3.72314453125,-2.7008056640625
15.0099999,-9.72285270690918,1.3431471586227417,0.9911994934082031,4.150390625,-1.0223388671875,2.86865234375
15.0299999,-9.873687744140625,0.9481038451194763,0.9265560507774353,2.899169921875,4.7149658203125,5.37109375
15.049999900000001,-9.907206535339355,0.7757213711738586,0.9002198576927185,1.7852783203125,8.9263916015625,3.814697265625
15.069999900000001,-9.945513725280762,0.871489405632019,0.7996633648872375,5.096435546875,7.2174072265625,0.9307861328125
15.0899999,-9.897629737854004,1.0582371950149536,0.6272808313369751,9.46044921875,1.28173828125,-1.0223388671875
15.1099999,-9.907206535339355,1.280897855758667,0.47165772318840027,8.453369140625,-1.7242431640625,-3.2958984375
15.129999900000001,-9.907206535339355,1.4317326545715332,0.38307225704193115,2.0599365234375,0.4119873046875,-5.7373046875
15.149999900000001,-9.892841339111328,1.4939818382263184,0.4381389021873474,-3.082275390625,2.8076171875,-6.439208984375
15.1699999,-9.876082420349121,1.4389152526855469,0.5171475410461426,-2.471923828125,4.974365234375,-5.06591796875
15.1899999,-9.86889934539795,1.3048399686813354,0.5626373887062073,2.1820068359375,4.5928955078125,-4.1046142578125
15.209999900000001,-9.890447616577148,1.1444283723831177,0.5554547905921936,7.38525390625,0.3204345703125,-3.387451171875
15.229999900000001,-9.923966407775879,1.0055646896362305,0.5027823448181152,9.2315673828125,-2.593994140625,-1.495361328125
15.2499999,-9.938331604003906,0.933738648891449,0.47165772318840027,7.62939453125,-1.373291015625,0.244140625
15.2699999,-9.921571731567383,0.9145850539207458,0.49559974670410156,5.55419921875,1.5106201171875,-0.9002685546875
15.289999900000002,-9.890447616577148,0.9672574996948242,0.5626373887062073,5.18798828125,2.74658203125,-1.8463134765625
15.309999900000001,-9.861717224121094,1.01753568649292,0.6320692300796509,6.683349609375,2.8076171875,-0.244140625
15.3299999,-9.873687744140625,1.0558429956436157,0.646434485912323,8.7890625,2.7008056640625,1.861572265625
15.3499999,-9.90241813659668,1.0797849893569946,0.608127236366272,10.1470947265625,1.0833740234375,2.38037109375
15.3699999,-9.938331604003906,1.1204863786697388,0.524330198764801,9.674072265625,-0.3662109375,1.9073486328125
15.389999900000001,-9.981427192687988,1.139639973640442,0.3687070608139038,8.4991455078125,-2.471923828125,0.7476806640625
15.4099999,-10.017339706420898,1.0845733880996704,0.22744916379451752,8.148193359375,-6.9580078125,1.5106201171875
15.4299999,-10.036493301391602,0.9433154463768005,0.1412578970193863,9.1705322265625,-10.0860595703125,7.7972412109375
15.4499999,-9.995792388916016,0.8451532125473022,0.26815059781074524,10.2081298828125,-11.0321044921875,15.6402587890625
15.469999900000001,-9.904812812805176,0.9289502501487732,0.5578489899635315,5.9051513671875,-3.570556640625,16.8304443359375
15.4899999,-9.816226959228516,1.1779472827911377,0.8020575642585754,-1.129150390625,7.3394775390625,9.1552734375
15.5099999,-9.727641105651855,1.4700398445129395,0.9433154463768005,1.220703125,5.5694580078125,1.434326171875
15.5299999,-9.691728591918945,1.699883222579956,0.9026140570640564,7.110595703125,-1.678466796875,0.79345703125
15.549999900000001,-9.763554573059082,1.659181833267212,0.6512228846549988,0.7476806640625,3.72314453125,1.251220703125
15.569999900000001,-9.801861763000488,1.5849615335464478,0.5650315880775452,2.471923828125,1.5869140625,1.5716552734375
15.5899999,-9.823410034179688,1.5634137392044067,0.5195417404174805,6.0577392578125,-1.5716552734375,-0.6561279296875
15.6099999,-9.837775230407715,1.5849615335464478,0.49799394607543945,5.2642822265625,1.2359619140625,-6.744384765625
15.629999900000001,-9.84495735168457,1.534683346748352,0.5147533416748047,4.5318603515625,3.570556640625,-10.5743408203125
15.649999900000001,-9.86650562286377,1.4293384552001953,0.5363011956214905,6.8511962890625,1.0986328125,-4.4403076171875
15.6699999,-9.892841339111328,1.2737152576446533,0.5386953949928284,8.1634521484375,-1.800537109375,3.3721923828125
15.6899999,-9.907206535339355,1.161187767982483,0.5219359993934631,4.058837890625,-0.030517578125,2.838134765625
15.709999900000001,-10.014945983886719,1.2689268589019775,0.569819986820221,-1.2664794921875,2.471923828125,-2.0599365234375
15.729999900000001,-10.213664054870605,1.41257905960083,0.5339069962501526,-7.1563720703125,3.60107421875,-6.2408447265625
15.7499999,-10.453084945678711,1.41257905960083,0.48602294921875,-4.8065185546875,1.1444091796875,-4.425048828125
15.7699999,-10.431536674499512,1.316810965538025,0.44532153010368347,0.457763671875,-4.5318603515625,4.57763671875
15.789999900000002,-10.194510459899902,1.2258312702178955,0.5578489899635315,-4.8065185546875,-2.86865234375,8.4228515625
15.809999900000001,-9.801861763000488,1.137245774269104,0.7948749661445618,-16.0369873046875,9.6588134765625,6.591796875
15.8299999,-9.528923034667969,1.2880805730819702,1.0295066833496094,-25.6500244140625,21.1944580078125,5.584716796875
15.8499999,-9.591172218322754,1.338358759880066,1.0103530883789062,-25.5279541015625,19.0582275390625,4.2572021484375
15.869999900000002,-9.90241813659668,1.3311761617660522,0.4812345504760742,-11.5814208984375,4.21142578125,8.056640625
15.889999900000001,-10.18493366241455,1.4221558570861816,-0.16519992053508759,11.0626220703125,-16.8914794921875,6.317138671875
15.9099999,-10.287884712219238,1.5131354331970215,-0.5554547905921936,26.79443359375,-29.4952392578125,-1.1138916015625
15.9299999,-10.261548042297363,1.6855180263519287,-0.40940847992897034,23.3306884765625,-22.2015380859375,-15.5029296875
15.9499999,-10.910377502441406,1.8770540952682495,0.16759411990642548,13.458251953125,-3.875732421875,-20.1416015625
15.969999900000001,-11.075576782226562,1.821987509727478,0.7110779285430908,14.862060546875,-3.6773681640625,-13.5650634765625
15.9899999,-11.939884185791016,1.8411411046981812,1.0534487962722778,19.2108154296875,-3.814697265625,2.7313232421875
16.0099999,-12.531251907348633,1.7693150043487549,0.9169792532920837,16.2811279296875,-15.655517578125,-16.7694091796875
16.0299999,-12.51209831237793,1.8483237028121948,0.5913678407669067,16.9677734375,-18.768310546875,-30.731201171875
16.0499999,-12.696451187133789,1.9057846069335938,0.26815059781074524,24.1241455078125,-20.6146240234375,-20.69091796875
16.0699999,-12.260706901550293,1.867477297782898,0.002394201699644327,29.3426513671875,-38.6199951171875,-18.9971923828125
16.089999900000002,-11.508927345275879,1.678335428237915,-0.035913024097681046,32.4249267578125,-40.283203125,-26.580810546875
16.109999900000002,-10.539276123046875,1.3742717504501343,0.16519992053508759,33.2794189453125,-6.1492919921875,-27.5115966796875
16.1299999,-9.41400146484375,1.0199298858642578,0.507570743560791,30.0140380859375,15.7318115234375,-22.15576171875
16.1499999,-8.341399192810059,0.6799532771110535,0.8882488012313843,20.81298828125,7.3089599609375,-14.739990234375
16.1699999,-7.536946773529053,0.40701428055763245,1.1875240802764893,12.6190185546875,-1.89208984375,-8.4686279296875
16.1899999,-6.936002254486084,0.2106897532939911,1.3934253454208374,9.1552734375,-3.60107421875,-7.843017578125
16.2099999,-6.598419666290283,0.016759412363171577,1.4389152526855469,9.7503662109375,1.0528564453125,-11.5814208984375
16.2299999,-6.53377628326416,-0.009576806798577309,1.3742717504501343,16.54052734375,4.7454833984375,-15.0299072265625
16.249999900000002,-6.691793918609619,0.019153613597154617,1.314416766166687,22.6593017578125,-1.7547607421875,-14.3890380859375
16.269999900000002,-7.0557122230529785,0.20350714027881622,1.3311761617660522,16.510009765625,-7.2174072265625,-8.8043212890625
16.2899999,-7.553706169128418,0.4596867263317108,1.4963760375976562,4.0740966796875,-1.5869140625,-1.9378662109375
16.3099999,-8.14028549194336,0.7326257228851318,1.7262194156646729,-8.1939697265625,4.6539306640625,2.471923828125
16.3299999,-8.738836288452148,0.9600749015808105,1.8938134908676147,-17.333984375,2.6702880859375,4.2266845703125
16.3499999,-9.311050415039062,1.094150185585022,1.889025092124939,-21.6217041015625,2.9144287109375,5.706787109375
16.3699999,-9.792284965515137,1.1252747774124146,1.702277421951294,-21.0723876953125,5.767822265625,6.6070556640625
16.3899999,-10.146626472473145,1.0654197931289673,1.381454348564148,-17.2576904296875,6.103515625,3.72314453125
16.4099999,-10.342951774597168,0.9289502501487732,1.0127472877502441,-12.298583984375,4.6539306640625,-1.556396484375
16.429999900000002,-10.374075889587402,0.7445967197418213,0.6703764796257019,-7.50732421875,2.410888671875,-3.021240234375
16.4499999,-10.278307914733887,0.5386953949928284,0.40701428055763245,-3.204345703125,2.01416015625,-0.701904296875
16.4699999,-10.098742485046387,0.33279404044151306,0.2322375625371933,1.2664794921875,1.6021728515625,0.8392333984375
16.4899999,-9.90241813659668,0.15562310814857483,0.1604115068912506,5.4473876953125,-3.4027099609375,1.6632080078125
16.5099999,-9.768342971801758,0.047884032130241394,0.1843535304069519,7.781982421875,-6.7596435546875,3.5858154296875
16.5299999,-9.68933391571045,0.019153613597154617,0.304063618183136,7.659912109375,-4.1961669921875,2.5177001953125
16.5499999,-9.66539192199707,0.07422025501728058,0.5027823448181152,5.584716796875,0.457763671875,-1.678466796875
16.5699999,-9.706093788146973,0.1843535304069519,0.7398083209991455,2.13623046875,5.37109375,-3.7841796875
16.589999900000002,-9.804255485534668,0.3495534360408783,0.9648633003234863,-1.922607421875,7.049560546875,-2.593994140625
16.609999900000002,-9.9000244140625,0.5051765441894531,1.1276689767837524,-5.5084228515625,4.913330078125,-1.312255859375
16.6299999,-9.976638793945312,0.6488286852836609,1.213860273361206,-7.1563720703125,2.4566650390625,1.5411376953125
16.6499999,-10.06043529510498,0.7829039692878723,1.235408067703247,-6.4697265625,4.5928955078125,5.523681640625
16.6699999,-10.15141487121582,0.8930372595787048,1.2090718746185303,-6.134033203125,7.38525390625,4.7607421875
16.6899999,-10.254365921020508,0.9768342971801758,1.1803414821624756,-7.3394775390625,4.302978515625,1.7547607421875
16.7099999,-10.378864288330078,1.0342950820922852,1.1516109704971313,-8.697509765625,0.5950927734375,1.7242431640625
16.7299999,-10.699687004089355,1.0869675874710083,1.1516109704971313,-8.8653564453125,0.3814697265625,3.2958984375
16.749999900000002,-10.737994194030762,1.0749965906143188,1.115697979927063,-8.2550048828125,-2.74658203125,0.6561279296875
16.769999900000002,-10.922348022460938,1.0582371950149536,1.0869675874710083,-6.4697265625,-1.0833740234375,7.3699951171875
16.7899999,-10.809821128845215,1.0414776802062988,1.0223240852355957,-3.8299560546875,-3.5400390625,8.6822509765625
16.8099999,-10.584765434265137,0.9983820915222168,0.9720458984375,-2.227783203125,-9.3841552734375,2.3956298828125
16.8299999,-10.321403503417969,0.9720458984375,0.9696516990661621,-0.67138671875,-5.79833984375,-0.3814697265625
16.8499999,-10.120290756225586,0.950498104095459,1.05105459690094,-0.335693359375,-2.44140625,2.0294189453125
16.8699999,-10.000580787658691,0.9050082564353943,1.1899182796478271,-2.50244140625,-5.6304931640625,5.523681640625
16.8899999,-9.99339771270752,0.8762778043746948,1.3503297567367554,-5.5084228515625,-7.4920654296875,7.0648193359375
16.9099999,-10.02452278137207,0.8667010068893433,1.4724340438842773,-7.1563720703125,-6.378173828125,4.6844482421875
16.929999900000002,-9.959878921508789,0.8475474119186401,1.501164436340332,-7.2174072265625,-5.37109375,-1.8157958984375
16.9499999,-9.785101890563965,0.8331822156906128,1.4293384552001953,-6.7596435546875,-2.2430419921875,-6.7596435546875
16.9699999,-9.490615844726562,0.7852981686592102,1.2737152576446533,-5.67626953125,2.38037109375,-6.77490234375
16.9899999,-9.155426979064941,0.7398083209991455,1.0893617868423462,-4.5166015625,2.0294189453125,-1.2664794921875
17.0099999,-8.846575736999512,0.6919242739677429,0.912190854549408,-3.2501220703125,-0.0762939453125,5.645751953125
17.0299999,-8.60236644744873,0.6943184733390808,0.8140285611152649,-1.0223388671875,-1.861572265625,10.7879638671875
17.0499999,-8.621520042419434,0.7733271718025208,0.8044517636299133,0.640869140625,2.9754638671875,12.451171875
17.0699999,-9.184157371520996,1.0103530883789062,0.8834604024887085,-0.79345703125,5.9814453125,-1.7242431640625
17.089999900000002,-9.897629737854004,1.0845733880996704,0.9193734526634216,-2.960205078125,5.8746337890625,-12.7410888671875
17.109999900000002,-10.649409294128418,1.280897855758667,0.9672574996948242,-2.044677734375,4.913330078125,3.0059814453125
17.1299999,-11.006145477294922,1.278503656387329,1.0031704902648926,-2.4871826171875,1.495361328125,-3.448486328125
17.1499999,-10.812214851379395,1.235408067703247,1.0821791887283325,-7.4005126953125,5.3863525390625,-8.3465576171875
17.1699999,-10.407594680786133,1.1348515748977661,1.2306196689605713,-12.420654296875,11.16943359375,-6.439208984375
17.1899999,-10.029311180114746,0.9744400978088379,1.4053963422775269,-14.9688720703125,12.51220703125,-4.3182373046875
17.2099999,-9.794678688049316,0.8236053586006165,1.4939818382263184,-17.364501953125,14.4195556640625,-2.8839111328125
17.2299999,-9.701305389404297,0.6607996821403503,1.460463047027588,-17.88330078125,17.8070068359375,-1.8463134765625
17.249999900000002,-9.701305389404297,0.5171475410461426,1.3024457693099976,-15.899658203125,18.035888671875,-1.0833740234375
17.269999900000002,-9.763554573059082,0.36152446269989014,1.0319008827209473,-14.5111083984375,14.5416259765625,1.373291015625
17.2899999,-9.871294021606445,0.17956513166427612,0.6727706789970398,-13.031005859375,10.80322265625,6.5155029296875
17.3099999,-10.010157585144043,0.014365210197865963,0.26575639843940735,-7.9193115234375,5.584716796875,11.1846923828125
17.3299999,-10.127472877502441,-0.026336219161748886,-0.10773907601833344,1.5411376953125,-3.204345703125,13.336181640625
17.3499999,-10.204087257385254,0.13168109953403473,-0.38546648621559143,11.2762451171875,-12.542724609375,12.87841796875
17.3699999,-10.228029251098633,0.4644751250743866,-0.507570743560791,18.951416015625,-19.4854736328125,9.3994140625
17.3899999,-10.168174743652344,0.9097966551780701,-0.37828385829925537,24.6734619140625,-23.590087890625,4.33349609375
17.409999900000003,-10.036493301391602,1.3239935636520386,0.026336219161748886,24.2462158203125,-23.98681640625,0.274658203125
17.429999900000002,-9.876082420349121,1.5873557329177856,0.6488286852836609,16.4337158203125,-19.04296875,-1.5716552734375
17.4499999,-9.732429504394531,1.6208745241165161,1.3407529592514038,6.9732666015625,-9.8724365234375,-0.885009765625
17.4699999,-9.641449928283691,1.4700398445129395,1.886630892753601,0.0762939453125,-2.4566650390625,0.5645751953125
17.4899999,-9.591172218322754,1.2952631711959839,2.2840683460235596,-2.3651123046875,1.6326904296875,1.9073486328125
17.5099999,-9.560047149658203,1.1851298809051514,2.4420857429504395,-9.9029541015625,8.1329345703125,2.13623046875
17.5299999,-9.567230224609375,1.1875240802764893,2.456450939178467,-20.6146240234375,17.3797607421875,-0.67138671875
17.5499999,-9.579200744628906,1.2761094570159912,2.3104045391082764,-26.3519287109375,22.491455078125,-3.4332275390625
17.5699999,-9.634267807006836,1.3192051649093628,2.008735179901123,-27.2674560546875,22.247314453125,-3.387451171875
17.589999900000002,-9.720458984375,1.2665326595306396,1.5514427423477173,-24.871826171875,21.697998046875,-3.082275390625
17.609999900000002,-9.849745750427246,1.1109095811843872,0.9552865028381348,-20.4010009765625,19.073486328125,-5.0811767578125
17.6299999,-10.007762908935547,0.8786720037460327,0.3471592366695404,-10.4827880859375,12.908935546875,-5.279541015625
17.6499999,-10.120290756225586,0.6009446382522583,-0.2561795711517334,3.631591796875,1.1749267578125,-3.0517578125
17.6699999,-10.232817649841309,0.363918662071228,-0.6847416758537292,14.7857666015625,-8.8653564453125,-1.220703125
17.6899999,-10.290278434753418,0.15562310814857483,-0.9241618514060974,24.7650146484375,-17.1966552734375,1.5869140625
17.7099999,-10.244789123535156,0.15801730751991272,-0.811634361743927,34.942626953125,-24.96337890625,2.9754638671875
17.7299999,-10.158597946166992,0.3758896589279175,-0.3280056416988373,35.94970703125,-25.8636474609375,4.1961669921875
17.749999900000002,-9.940725326538086,0.8068459630012512,0.40222588181495667,20.9808349609375,-17.4560546875,2.44140625
17.769999900000002,-9.730035781860352,1.3670891523361206,1.3934253454208374,-1.15966796875,-4.669189453125,-1.8463134765625
17.7899999,-9.502586364746094,1.824381709098816,2.2625205516815186,-25.665283203125,7.171630859375,-3.326416015625
17.8099999,-9.409213066101074,2.0638017654418945,2.8179752826690674,-46.7529296875,20.7061767578125,-4.82177734375
17.8299999,-9.41400146484375,1.8602946996688843,2.80361008644104,-52.79541015625,28.900146484375,-4.638671875
17.8499999,-9.567230224609375,1.3958195447921753,2.293645143508911,-38.87939453125,24.8870849609375,-1.9989013671875
17.8699999,-9.780313491821289,0.7781155705451965,1.3694833517074585,-16.0369873046875,13.153076171875,1.251220703125
17.8899999,-10.046070098876953,0.19632454216480255,0.3734954595565796,6.53076171875,-1.1138916015625,2.7008056640625
17.909999900000003,-10.228029251098633,-0.09576806426048279,-0.3495534360408783,19.7906494140625,-10.8642578125,1.8157958984375
17.929999900000002,-10.283096313476562,-0.040701430290937424,-0.6272808313369751,20.0347900390625,-15.56396484375,0.9613037109375
17.9499999,-10.204087257385254,0.2059013396501541,-0.45489832758903503,11.0321044921875,-12.451171875,3.23486328125
17.9699999,-10.074800491333008,0.6919242739677429,0.10055647045373917,0.946044921875,-7.87353515625,2.9296875
17.9899999,-9.907206535339355,1.0582371950149536,0.706289529800415,-6.317138671875,-3.1890869140625,1.40380859375
18.0099999,-9.80904483795166,1.3215993642807007,1.1516109704971313,-8.8653564453125,-0.274658203125,0.6866455078125
18.0299999,-9.761159896850586,1.37906014919281,1.3646949529647827,-2.7618408203125,-3.326416015625,-0.396728515625
18.0499999,-9.713275909423828,1.3263877630233765,1.4508862495422363,3.631591796875,-6.2408447265625,-1.52587890625
18.0699999,-9.737217903137207,1.1683704853057861,1.3623007535934448,-0.5645751953125,-1.739501953125,-2.50244140625
18.089999900000002,-9.787496566772461,1.0127472877502441,1.3239935636520386,-5.6915283203125,2.105712890625,-2.2735595703125
18.109999900000002,-9.818621635437012,0.8882488012313843,1.3263877630233765,-6.317138671875,1.861572265625,0.1220703125
18.1299999,-9.856928825378418,0.7637503147125244,1.338358759880066,-9.368896484375,2.838134765625,2.44140625
18.1499999,-9.849745750427246,0.790086567401886,1.3862427473068237,-14.0838623046875,7.4615478515625,1.7852783203125
18.1699999,-9.823410034179688,0.751779317855835,1.338358759880066,-16.510009765625,10.1776123046875,1.495361328125
18.1899999,-9.849745750427246,0.8092401623725891,1.1971008777618408,-10.2996826171875,8.60595703125,1.5106201171875
18.2099999,-9.921571731567383,0.7422025203704834,0.8762778043746948,2.9449462890625,1.64794921875,0.79345703125
18.2299999,-9.971850395202637,0.7398083209991455,0.6392518281936646,15.228271484375,-4.4708251953125,0.5950927734375
18.249999900000002,-9.99100399017334,0.7110779285430908,0.49320554733276367,17.181396484375,-7.1563720703125,-0.213623046875
18.269999900000002,-9.921571731567383,0.7924807667732239,0.6105214357376099,12.63427734375,-5.6304931640625,-2.5177001953125
18.2899999,-9.84495735168457,0.8786720037460327,0.8858546018600464,5.2337646484375,-2.2735595703125,-1.6326904296875
18.3099999,-9.761159896850586,1.094150185585022,1.2952631711959839,-7.0343017578125,6.988525390625,-2.4871826171875
18.3299999,-9.703699111938477,1.2234370708465576,1.6136919260025024,-16.4642333984375,13.73291015625,-4.6234130859375
18.3499999,-9.68933391571045,1.3407529592514038,1.7908629179000854,-22.6898193359375,20.6298828125,-5.8441162109375
18.3699999,-9.710882186889648,1.3263877630233765,1.7190368175506592,-20.8892822265625,21.514892578125,-6.9122314453125
18.3899999,-9.787496566772461,1.1468225717544556,1.3527239561080933,-11.5203857421875,17.9290771484375,-8.4075927734375
18.409999900000003,-9.907206535339355,0.8786720037460327,0.8092401623725891,4.8828125,10.3607177734375,-6.6680908203125
18.429999900000002,-10.02452278137207,0.6847416758537292,0.272938996553421,19.6533203125,0.579833984375,-4.2877197265625
18.4499999,-10.077195167541504,0.5315127968788147,-0.06224924325942993,20.4315185546875,-3.753662109375,-5.1727294921875
18.4699999,-10.096348762512207,0.5291185975074768,-0.1867477297782898,10.6964111328125,-1.3885498046875,-6.2713623046875
18.4899999,-10.08198356628418,0.5315127968788147,-0.047884032130241394,6.6070556640625,-3.021240234375,-5.8746337890625
18.5099999,-10.06043529510498,0.6057330369949341,0.18914192914962769,8.697509765625,-6.65283203125,-4.638671875
18.5299999,-10.022128105163574,0.5937620401382446,0.4381389021873474,9.21630859375,-8.331298828125,-3.84521484375
18.5499999,-9.971850395202637,0.6560112833976746,0.7422025203704834,7.8277587890625,-8.2550048828125,-3.4027099609375
18.5699999,-9.883264541625977,0.5985504388809204,1.0414776802062988,1.40380859375,-2.9144287109375,-1.2359619140625
18.589999900000002,-9.821015357971191,0.5985504388809204,1.1994950771331787,-6.195068359375,3.204345703125,0.18310546875
18.609999900000002,-9.849745750427246,0.4620809257030487,1.173158884048462,-2.7618408203125,0.8392333984375,0.4119873046875
18.6299999,-9.885659217834473,0.4141969084739685,0.9145850539207458,10.31494140625,-7.4615478515625,2.1514892578125
18.6499999,-9.986215591430664,0.3878606855869293,0.6727706789970398,18.2342529296875,-14.1448974609375,5.3863525390625
18.6699999,-10.014945983886719,0.47884035110473633,0.5626373887062073,10.68115234375,-13.702392578125,3.7994384765625
18.6899999,-9.964667320251465,0.7134721279144287,0.7182605266571045,-1.5869140625,-7.2784423828125,0.6103515625
18.7099999,-9.86889934539795,0.9959878921508789,0.9911994934082031,-11.932373046875,-1.28173828125,-0.91552734375
18.7299999,-9.737217903137207,1.2880805730819702,1.314416766166687,-25.634765625,5.1116943359375,-2.44140625
18.749999900000002,-9.68933391571045,1.403002142906189,1.455674648284912,-38.87939453125,9.4451904296875,-3.936767578125
18.769999900000002,-9.696516990661621,1.290474772453308,1.4053963422775269,-38.02490234375,11.8408203125,-3.814697265625
18.7899999,-9.823410034179688,0.9074024558067322,1.0630255937576294,-22.4151611328125,5.3558349609375,-3.3721923828125
18.8099999,-9.986215591430664,0.3758896589279175,0.5889736413955688,0.518798828125,-4.7149658203125,-1.4801025390625
18.8299999,-10.105925559997559,-0.06224924325942993,0.2801215946674347,24.1241455078125,-16.2353515625,1.0986328125
18.8499999,-10.160991668701172,-0.26575639843940735,0.15322890877723694,32.684326171875,-18.1427001953125,3.6163330078125
18.8699999,-10.072406768798828,-0.09816227108240128,0.545877993106842,25.1007080078125,-12.176513671875,7.0037841796875
18.8899999,-9.923966407775879,0.3447650372982025,1.1563993692398071,2.7618408203125,-2.7008056640625,7.2174072265625
18.909999900000003,-9.694122314453125,0.8978256583213806,1.843535304069519,-22.216796875,11.71875,5.3863525390625
18.929999900000002,-9.514557838439941,1.4197616577148438,2.403778553009033,-38.3148193359375,20.1873779296875,2.86865234375
18.9499999,-9.481039047241211,1.5921441316604614,2.47560453414917,-44.3115234375,27.7862548828125,-0.6561279296875
18.9699999,-9.531316757202148,1.4891934394836426,2.1116859912872314,-34.1949462890625,26.30615234375,-1.40380859375
18.9899999,-9.730035781860352,1.1252747774124146,1.3718775510787964,-9.765625,13.916015625,1.4190673828125
19.0099999,-9.979032516479492,0.6105214357376099,0.646434485912323,4.852294921875,4.6539306640625,1.9378662109375
19.0299999,-10.08198356628418,0.2537853717803955,0.0933738648891449,6.8817138671875,-0.732421875,-0.0762939453125
19.0499999,-10.225635528564453,0.05027823522686958,-0.12928688526153564,8.087158203125,0.2288818359375,1.9989013671875
19.0699999,-10.11550235748291,0.1388636976480484,-0.016759412363171577,6.8511962890625,1.3427734375,4.08935546875
19.089999900000002,-10.06043529510498,0.3734954595565796,0.13168109953403473,4.33349609375,2.288818359375,2.74658203125
19.109999900000002,-9.955090522766113,0.7110779285430908,0.4405331015586853,5.9356689453125,0,1.8463134765625
19.1299999,-9.821015357971191,1.1228805780410767,0.7110779285430908,0.0457763671875,2.1820068359375,1.7242431640625
19.1499999,-9.821015357971191,1.3694833517074585,0.9241618514060974,-10.3607177734375,7.354736328125,-0.7476806640625
19.1699999,-9.763554573059082,1.4628572463989258,1.0869675874710083,-9.9945068359375,4.9896240234375,-6.317138671875
19.1899999,-9.780313491821289,1.3239935636520386,1.158793568611145,-3.90625,3.96728515625,-8.23974609375
19.2099999,-9.825803756713867,1.015141487121582,1.0630255937576294,-3.0364990234375,8.48388671875,-5.3253173828125
19.2299999,-9.911994934082031,0.6584054827690125,0.8930372595787048,-2.3345947265625,7.0648193359375,-1.922607421875
19.249999900000002,-10.007762908935547,0.35434186458587646,0.6057330369949341,5.6304931640625,-0.4119873046875,-1.15966796875
19.269999900000002,-10.091560363769531,0.22026655077934265,0.3926490843296051,11.4898681640625,-6.7138671875,0.1068115234375
19.2899999,-10.108319282531738,0.17956513166427612,0.27054479718208313,10.7574462890625,-8.3465576171875,-0.9613037109375
19.3099999,-10.062829971313477,0.304063618183136,0.26336219906806946,10.711669921875,-5.4931640625,-1.46484375
19.3299999,-10.007762908935547,0.4908113479614258,0.40222588181495667,9.0484619140625,-4.6844482421875,1.3275146484375
19.3499999,-9.914389610290527,1.0773907899856567,0.8475474119186401,-0.6561279296875,-2.8076171875,-1.6021728515625
19.3699999,-9.86889934539795,1.2330138683319092,1.1635819673538208,-15.9912109375,8.880615234375,-2.6092529296875
19.3899999,-9.734824180603027,1.2832920551300049,1.4437036514282227,-24.8870849609375,15.1214599609375,-3.3416748046875
19.409999900000003,-9.761159896850586,1.0749965906143188,1.5179238319396973,-20.8740234375,13.5955810546875,-2.685546875
19.429999900000002,-9.773131370544434,0.7110779285430908,1.2258312702178955,-10.772705078125,12.8631591796875,-0.06103515625
19.4499999,-9.96945571899414,0.4118026793003082,0.7134721279144287,4.8675537109375,2.227783203125,3.47900390625
19.4699999,-10.132261276245117,0.09816227108240128,0.07182604819536209,22.918701171875,-12.7410888671875,1.77001953125
19.4899999,-10.189722061157227,0.07900865375995636,-0.3734954595565796,35.0799560546875,-20.751953125,-2.5787353515625
19.5099999,-10.266336441040039,0.2106897532939911,-0.43335050344467163,40.0543212890625,-21.5301513671875,-1.434326171875
19.5299999,-10.125079154968262,0.5363011956214905,-0.14604631066322327,28.900146484375,-17.5628662109375,-2.5177001953125
19.5499999,-10.012551307678223,0.8882488012313843,0.45010992884635925,12.0697021484375,-10.589599609375,-4.974365234375
19.5699999,-9.837775230407715,1.1492167711257935,1.1635819673538208,1.220703125,-5.340576171875,-3.0670166015625
19.589999900000002,-9.674968719482422,1.3551181554794312,1.7812861204147339,-11.1083984375,5.0201416015625,-1.5411376953125
19.609999900000002,-9.548076629638672,1.3670891523361206,2.3080103397369385,-27.7862548828125,15.289306640625,-0.3814697265625
19.6299999,-9.545681953430176,1.2737152576446533,2.5019407272338867,-44.2657470703125,23.0865478515625,0.4425048828125
19.6499999,-9.524134635925293,1.1444283723831177,2.408566951751709,-52.7496337890625,32.501220703125,-0.2899169921875
19.6699999,-9.75637149810791,0.7134721279144287,1.7525556087493896,-42.572021484375,30.0750732421875,3.2806396484375
19.6899999,-9.904812812805176,0.3663128614425659,0.9002198576927185,-13.7786865234375,12.3748779296875,3.6468505859375
19.7099999,-10.192116737365723,-0.016759412363171577,-0.1604115068912506,13.2598876953125,-3.8299560546875,-0.18310546875
19.7299999,-10.357316970825195,-0.14604631066322327,-0.8643068075180054,26.91650390625,-12.054443359375,1.068115234375
19.749999900000002,-10.326191902160645,0.028730420395731926,-1.048660397529602,27.77099609375,-16.4642333984375,1.9989013671875
19.769999900000002,-10.244789123535156,0.35913026332855225,-0.7829039692878723,16.4031982421875,-14.70947265625,-0.701904296875
19.7899999,-10.017339706420898,0.7493851184844971,-0.11252748221158981,3.8604736328125,-11.0626220703125,-1.3580322265625
19.8099999,-9.823410034179688,1.0462661981582642,0.6919242739677429,-5.31005859375,-3.8909912109375,-1.0223388671875
19.8299999,-9.696516990661621,1.2042834758758545,1.2713210582733154,-13.671875,4.608154296875,1.0223388671875
19.8499999,-9.667786598205566,1.2258312702178955,1.7166426181793213,-17.5933837890625,7.6904296875,0.732421875
19.8699999,-9.612719535827637,1.1300631761550903,1.8794482946395874,-19.3939208984375,6.744384765625,0.640869140625
19.8899999,-9.744400978088379,0.9457096457481384,1.702277421951294,-26.55029296875,14.6331787109375,-0.06103515625
19.909999900000003,-9.873687744140625,0.6631938815116882,1.2641384601593018,-21.4996337890625,15.3656005859375,0.5950927734375
19.929999900000002,-10.038887977600098,0.3687070608139038,0.6607996821403503,3.3111572265625,-0.2899169921875,2.0904541015625
19.9499999,-10.192116737365723,0.12449848651885986,0.002394201699644327,23.3917236328125,-13.8397216796875,-0.79345703125
19.9699999,-10.24239444732666,0.08619125932455063,-0.33997663855552673,31.5399169921875,-18.37158203125,-0.2288818359375
19.9899999,-10.132261276245117,0.2753331959247589,-0.26336219906806946,27.28271484375,-16.937255859375,1.8768310546875
20.0099999,-10.014945983886719,0.727837324142456,0.22266076505184174,6.4849853515625,-9.2010498046875,-1.52587890625
20.0299999,-9.821015357971191,1.0869675874710083,0.8547300100326538,-15.56396484375,1.5411376953125,-4.3182373046875
20.0499999,-9.66539192199707,1.3503297567367554,1.4460978507995605,-22.9949951171875,6.9427490234375,-3.9825439453125
20.0699999,-9.622296333312988,1.237802267074585,1.7310078144073486,-21.728515625,12.939453125,-3.1585693359375
20.089999900000002,-9.667786598205566,0.9744400978088379,1.6711528301239014,-16.265869140625,14.404296875,-0.2593994140625
