# Time (seconds),Accel_X,Accel_Y,Accel_Z,Gyro_X,Gyro_Y,Gyro_Z
0.0099999,-10.527304649353027,-0.9361328482627869,0.7326257228851318,1.7547607421875,-11.8865966796875,20.3857421875
0.029999900000000003,-10.572794914245605,-0.8571242094039917,0.7829039692878723,-1.6021728515625,-4.7607421875,8.6822509765625
0.0499999,-10.579977035522461,-0.849941611289978,0.7709329724311829,-4.45556640625,-3.5858154296875,-0.06103515625
0.0699999,-10.596736907958984,-0.7924807667732239,0.6919242739677429,-5.584716796875,-6.0577392578125,6.622314453125
0.08999990000000001,-10.481815338134766,-0.7709329724311829,0.6200982332229614,-5.6304931640625,-7.8277587890625,7.0343017578125
0.10999990000000001,-10.266336441040039,-0.8140285611152649,0.5315127968788147,-7.6751708984375,-11.077880859375,6.89697265625
0.1299999,-10.127472877502441,-0.8619126081466675,0.6272808313369751,-13.6566162109375,-26.824951171875,20.4010009765625
0.14999990000000002,-9.921571731567383,-0.9840168952941895,0.8044517636299133,-24.993896484375,-30.45654296875,26.2298583984375
0.1699999,-9.797073364257812,-1.0678139925003052,1.039083480834961,-32.2265625,-10.5743408203125,17.51708984375
0.1899999,-9.732429504394531,-1.0845733880996704,1.2545616626739502,-31.8145751953125,-11.566162109375,21.453857421875
0.20999990000000002,-9.701305389404297,-0.9816226959228516,1.3742717504501343,-29.1900634765625,-27.1759033203125,25.0396728515625
0.2299999,-9.674968719482422,-0.8307880163192749,1.3551181554794312,-25.2838134765625,-21.759033203125,13.3819580078125
0.2499999,-9.639056205749512,-0.6871358752250671,1.2665326595306396,-18.1121826171875,-3.2958984375,0.518798828125
0.2699999,-9.691728591918945,-0.586579442024231,1.1755530834197998,-11.90185546875,-1.312255859375,4.08935546875
0.28999990000000003,-9.737217903137207,-0.4668693244457245,1.1061211824417114,-11.2152099609375,-4.150390625,8.8348388671875
0.3099999,-9.86889934539795,-0.3734954595565796,1.115697979927063,-13.702392578125,-3.5552978515625,8.4228515625
0.3299999,-9.914389610290527,-0.2944868206977844,1.2090718746185303,-16.2506103515625,-3.2958984375,5.6610107421875
0.34999990000000003,-9.907206535339355,-0.23702596127986908,1.3407529592514038,-17.913818359375,-1.6326904296875,3.96728515625
0.3699999,-9.861717224121094,-0.24660277366638184,1.4748282432556152,-18.8446044921875,0.91552734375,3.875732421875
0.3899999,-9.84256362915039,-0.35673606395721436,1.5466543436050415,-19.22607421875,1.9683837890625,4.425048828125
0.40999990000000003,-9.852140426635742,-0.5602431893348694,1.4963760375976562,-15.960693359375,1.1749267578125,5.92041015625
0.4299999,-9.888052940368652,-0.7206547260284424,1.4221558570861816,-8.1634521484375,0.274658203125,8.544921875
0.4499999,-9.90241813659668,-0.7972691655158997,1.335964560508728,-2.2430419921875,0.5340576171875,9.1705322265625
0.4699999,-9.8784761428833,-0.7374141216278076,1.259350061416626,-2.166748046875,1.0528564453125,6.866455078125
0.4899999,-9.883264541625977,-0.5315127968788147,1.2425906658172607,-4.0283203125,1.800537109375,4.8980712890625
0.5099999,-9.90241813659668,-0.304063618183136,1.2473790645599365,-5.2947998046875,2.044677734375,3.9215087890625
0.5299999,-9.940725326538086,-0.11013327538967133,1.2497732639312744,-5.3558349609375,1.6632080078125,2.7313232421875
0.5499999,-9.947908401489258,0.026336219161748886,1.290474772453308,-3.4637451171875,1.2969970703125,0.79345703125
0.5699999,-9.825803756713867,0.08379705995321274,1.3215993642807007,-6.4849853515625,3.082275390625,-0.5950927734375
0.5899998999999999,-9.835380554199219,0.13407529890537262,1.479616641998291,-14.58740234375,5.9356689453125,-0.8087158203125
0.6099998999999999,-9.780313491821289,0.11013327538967133,1.5969325304031372,-24.96337890625,8.97216796875,-1.2359619140625
0.6299999,-9.81143856048584,-0.0071826050989329815,1.6974890232086182,-28.6407470703125,11.3983154296875,-1.190185546875
0.6499999,-9.904812812805176,-0.19393034279346466,1.656787633895874,-24.0936279296875,11.199951171875,-0.823974609375
0.6699999,-9.86650562286377,-0.4908113479614258,1.5131354331970215,-15.838623046875,8.6212158203125,-0.701904296875
0.6899999,-9.885659217834473,-0.7469909191131592,1.235408067703247,-8.819580078125,8.11767578125,-3.2958984375
0.7099999,-9.928754806518555,-0.9600749015808105,0.8954314589500427,-2.3956298828125,8.85009765625,-2.6397705078125
0.7299998999999999,-10.029311180114746,-1.070208191871643,0.4836287498474121,5.7830810546875,4.2724609375,1.0833740234375
0.7499998999999999,-10.096348762512207,-0.9457096457481384,0.13168109953403473,12.1917724609375,-3.3416748046875,2.01416015625
0.7699999,-10.139444351196289,-0.7422025203704834,-0.13168109953403473,12.298583984375,-5.706787109375,2.227783203125
0.7899999,-10.204087257385254,-0.47644615173339844,-0.2513911724090576,11.9476318359375,-13.092041015625,3.4027099609375
0.8099999,-10.211270332336426,-0.24660277366638184,-0.15083470940589905,16.0675048828125,-25.0091552734375,-0.2899169921875
0.8299999,-10.20887565612793,-0.1604115068912506,0.11013327538967133,20.660400390625,-30.3955078125,-0.67138671875
0.8499998999999999,-10.055646896362305,-0.15322890877723694,0.4644751250743866,20.7672119140625,-29.327392578125,-4.94384765625
0.8699998999999999,-9.9000244140625,-0.24660277366638184,0.8475474119186401,20.4010009765625,-23.49853515625,-9.1552734375
0.8899999,-9.763554573059082,-0.3495534360408783,1.3096283674240112,20.4925537109375,-21.7742919921875,-6.04248046875
0.9099999,-9.679757118225098,-0.4165911078453064,1.6639702320098877,11.2152099609375,-19.8211669921875,-1.0833740234375
0.9299999,-9.742006301879883,-0.47165772318840027,1.9608511924743652,-0.3509521484375,-12.176513671875,6.3018798828125
0.9499999,-9.780313491821289,-0.43095630407333374,2.1571757793426514,-3.90625,-16.5252685546875,7.293701171875
0.9699998999999999,-9.821015357971191,-0.3926490843296051,2.2864625453948975,-0.8544921875,-19.9737548828125,3.5552978515625
0.9899998999999999,-9.763554573059082,-0.3256114423274994,2.4013843536376953,-1.5106201171875,-17.3797607421875,1.89208984375
1.0099999,-9.68933391571045,-0.33758243918418884,2.360682964324951,-7.0343017578125,-9.82666015625,-2.9754638671875
1.0299999,-9.66299819946289,-0.363918662071228,2.363077163696289,-5.096435546875,-3.204345703125,0.0152587890625
1.0499999,-9.610325813293457,-0.3687070608139038,2.2625205516815186,-2.8228759765625,-4.974365234375,1.708984375
1.0699999,-9.737217903137207,-0.4620809257030487,2.094926595687866,-4.547119140625,0.4425048828125,9.8114013671875
1.0899999,-9.78989028930664,-0.4620809257030487,2.0183119773864746,-3.9825439453125,-4.8065185546875,11.6119384765625
1.1099999,-9.86889934539795,-0.48602294921875,2.008735179901123,0.7171630859375,-8.8043212890625,5.79833984375
1.1299999,-9.768342971801758,-0.42856210470199585,2.1499931812286377,2.6397705078125,-7.8887939453125,3.2806396484375
1.1499999,-9.670180320739746,-0.3447650372982025,2.2673089504241943,-3.5552978515625,0.79345703125,-0.946044921875
1.1699998999999999,-9.605537414550781,-0.24420857429504395,2.410961151123047,-6.8511962890625,9.033203125,1.3427734375
1.1899998999999999,-9.528923034667969,-0.08858546614646912,2.4229321479797363,-5.6304931640625,8.7432861328125,-0.762939453125
1.2099999,-9.751583099365234,0.29209262132644653,2.3319525718688965,-11.90185546875,7.659912109375,3.5400390625
1.2299999,-9.916783332824707,0.37828385829925537,2.161964178085327,-13.580322265625,7.2021484375,-2.6092529296875
1.2499999,-9.876082420349121,0.2537853717803955,1.9249382019042969,-6.7596435546875,2.74658203125,-10.31494140625
1.2699999,-9.880870819091797,-0.028730420395731926,1.656787633895874,1.28173828125,5.9661865234375,-11.3372802734375
1.2899999,-9.813833236694336,-0.40222588181495667,1.4293384552001953,6.04248046875,5.3863525390625,-7.1258544921875
1.3099999,-9.832986831665039,-0.6560112833976746,1.3072341680526733,7.2021484375,6.591796875,-5.859375
1.3299999,-9.928754806518555,-0.8044517636299133,1.278503656387329,11.9476318359375,4.5013427734375,2.5177001953125
1.3499999,-9.9000244140625,-0.7829039692878723,1.292868971824646,15.7318115234375,-8.056640625,1.7547607421875
1.3699999,-10.002974510192871,-0.6560112833976746,1.436521053314209,14.2059326171875,-9.3231201171875,-0.8392333984375
1.3899999,-9.787496566772461,-0.45489832758903503,1.6496049165725708,6.622314453125,-7.8887939453125,-8.8958740234375
1.4099999,-9.828198432922363,-0.2849099934101105,1.8962076902389526,1.40380859375,3.753662109375,-7.965087890625
1.4299998999999999,-9.617507934570312,-0.090979665517807,2.2170307636260986,-5.3558349609375,3.6773681640625,-6.927490234375
1.4499999,-9.651026725769043,-0.011971008032560349,2.3726539611816406,-16.4337158203125,12.0697021484375,-3.9825439453125
1.4699999,-9.679757118225098,0.002394201699644327,2.4133553504943848,-20.2789306640625,12.87841796875,0.3814697265625
1.4899999,-9.725247383117676,-0.08619125932455063,2.188300371170044,-14.1448974609375,4.69970703125,-2.8839111328125
1.5099999,-9.859322547912598,-0.33039984107017517,1.7932571172714233,-0.3204345703125,-2.777099609375,-4.4403076171875
1.5299999,-9.871294021606445,-0.7015010714530945,1.2425906658172607,13.8397216796875,-9.6282958984375,-8.9111328125
1.5499999,-10.019734382629395,-1.1085153818130493,0.849941611289978,26.6876220703125,-7.0648193359375,-2.2125244140625
1.5699999,-9.885659217834473,-1.3551181554794312,0.667982280254364,30.2276611328125,-12.7105712890625,1.2359619140625
1.5899999,-9.931148529052734,-1.3263877630233765,0.8547300100326538,22.8424072265625,-9.8876953125,7.99560546875
1.6099999,-9.835380554199219,-1.0223240852355957,1.280897855758667,9.09423828125,-13.18359375,12.176513671875
1.6299999,-9.77791976928711,-0.5770025849342346,1.867477297782898,-1.5411376953125,-12.2528076171875,7.904052734375
1.6499999,-9.682151794433594,-0.0933738648891449,2.5522189140319824,-7.843017578125,-8.8958740234375,3.5247802734375
1.6699999,-9.5624418258667,0.1867477297782898,3.021482467651367,-18.5089111328125,0.7476806640625,-3.3721923828125
1.6899998999999999,-9.552865028381348,0.28730419278144836,3.28963303565979,-25.8941650390625,15.777587890625,1.0528564453125
1.7099999,-9.459490776062012,0.1843535304069519,3.2393548488616943,-26.1383056640625,16.0064697265625,-0.2593994140625
1.7299999,-9.634267807006836,-0.038307227194309235,2.8826189041137695,-21.392822265625,19.683837890625,5.828857421875
1.7499999,-9.727641105651855,-0.2849099934101105,2.3343467712402344,-14.3585205078125,11.1541748046875,9.246826171875
1.7699999,-9.911994934082031,-0.4596867263317108,1.7477672100067139,-2.6092529296875,4.6234130859375,4.150390625
1.7899999,-9.926360130310059,-0.569819986820221,1.3000515699386597,8.880615234375,-3.021240234375,-2.288818359375
1.8099999,-9.943120002746582,-0.49559974670410156,1.0797849893569946,11.8865966796875,-0.2593994140625,-7.50732421875
1.8299999,-9.888052940368652,-0.31603461503982544,1.1085153818130493,9.3994140625,4.0435791015625,-4.5623779296875
1.8499999,-9.849745750427246,-0.1173158809542656,1.256955862045288,1.5869140625,4.39453125,-8.9263916015625
1.8699999,-9.914389610290527,0.08858546614646912,1.522712230682373,-5.0048828125,7.598876953125,-3.90625
1.8899999,-9.907206535339355,0.12210428714752197,1.7094600200653076,-8.97216796875,-0.8392333984375,-1.3427734375
1.9099999,-9.904812812805176,-0.11252748221158981,1.7717092037200928,-6.1798095703125,-1.4801025390625,-3.8299560546875
1.9299998999999999,-9.799467086791992,-0.42377370595932007,1.723825216293335,4.1961669921875,-6.3323974609375,-8.8348388671875
1.9499999,-9.758766174316406,-0.8619126081466675,1.6376339197158813,14.2669677734375,-3.3111572265625,-8.8348388671875
1.9699999,-9.701305389404297,-1.0965443849563599,1.5490485429763794,16.05224609375,-1.861572265625,-1.5716552734375
1.9899999,-9.739612579345703,-1.158793568611145,1.6041151285171509,8.8653564453125,-0.7476806640625,0.3814697265625
2.0099999,-9.849745750427246,-1.015141487121582,1.6831238269805908,0.3814697265625,2.044677734375,7.720947265625
2.0299999,-9.888052940368652,-0.7038952708244324,1.7717092037200928,-6.2103271484375,-6.8206787109375,9.429931640625
2.0499999,-9.962273597717285,-0.5027823448181152,1.8339585065841675,-9.796142578125,-7.7362060546875,6.805419921875
2.0699999,-9.84256362915039,-0.29209262132644653,1.8339585065841675,-10.223388671875,-10.040283203125,-0.1983642578125
2.0899999,-9.768342971801758,-0.2944868206977844,1.9057846069335938,-6.439208984375,-2.50244140625,-3.3721923828125
2.1099999,-9.674968719482422,-0.26336219906806946,1.9560627937316895,-2.38037109375,-0.732421875,0.7171630859375
2.1299999,-9.624691009521484,-0.27054479718208313,1.987187385559082,-4.5013427734375,-0.244140625,0.54931640625
2.1499999,-9.758766174316406,-0.3232172429561615,1.9129672050476074,-6.683349609375,2.1820068359375,5.0811767578125
2.1699999,-9.78989028930664,-0.2825157940387726,1.8291701078414917,-2.4871826171875,-8.5296630859375,4.791259765625
2.1899999,-9.919178009033203,-0.35913026332855225,1.7357962131500244,4.08935546875,-10.986328125,2.8076171875
2.2099999,-9.84256362915039,-0.44532153010368347,1.7357962131500244,7.2021484375,-13.916015625,-3.7689208984375
2.2299999,-9.782708168029785,-0.4405331015586853,1.8579005002975464,9.857177734375,-5.6915283203125,-7.049560546875
2.2499999,-9.696516990661621,-0.40940847992897034,2.1930887699127197,9.8724365234375,-0.3509521484375,-1.9378662109375
2.2699999,-9.564835548400879,-0.2777273952960968,2.5546131134033203,-3.143310546875,4.21142578125,-3.631591796875
2.2899999,-9.634267807006836,-0.12210428714752197,2.8993782997131348,-20.111083984375,16.7999267578125,1.6021728515625
2.3099999,-9.639056205749512,-0.019153613597154617,3.045424461364746,-26.42822265625,13.3056640625,2.899169921875
2.3299999,-9.725247383117676,-0.05027823522686958,2.911349296569824,-20.69091796875,11.9781494140625,-0.6256103515625
2.3499999,-9.684545516967773,-0.20111294090747833,2.47560453414917,-9.1705322265625,7.75146484375,-7.32421875
2.3699999,-9.749189376831055,-0.4692635238170624,1.920149803161621,5.55419921875,8.7890625,-12.02392578125
2.3899999,-9.77791976928711,-0.6775590777397156,1.5418659448623657,15.1824951171875,7.75146484375,-4.8065185546875
2.4099999,-9.77791976928711,-0.7541735172271729,1.2856862545013428,8.056640625,4.45556640625,-4.8675537109375
2.4299999,-9.931148529052734,-0.768538773059845,1.2234370708465576,-2.13623046875,11.1083984375,-1.953125
2.4499999,-9.907206535339355,-0.6488286852836609,1.3192051649093628,-1.739501953125,1.8157958984375,1.2969970703125
2.4699999,-9.943120002746582,-0.5889736413955688,1.4508862495422363,-0.5950927734375,-3.204345703125,0.91552734375
2.4899999,-9.84495735168457,-0.6248866319656372,1.6089035272598267,-4.150390625,-3.753662109375,-1.1444091796875
2.5099999,-9.806650161743164,-0.6967126727104187,1.721431016921997,-3.6468505859375,0.18310546875,-6.3323974609375
2.5299999,-9.80904483795166,-0.8188169598579407,1.889025092124939,2.6702880859375,5.3558349609375,1.6021728515625
2.5499999,-9.696516990661621,-0.8259995579719543,1.946485996246338,-1.0223388671875,1.28173828125,3.662109375
2.5699999,-9.770736694335938,-0.730231523513794,1.9488801956176758,-10.955810546875,9.4757080078125,5.43212890625
2.5899999,-9.847352027893066,-0.6009446382522583,1.7812861204147339,-11.077880859375,4.8675537109375,7.87353515625
2.6099999,-9.880870819091797,-0.5315127968788147,1.5538369417190552,0.0152587890625,-6.744384765625,5.279541015625
2.6299999,-10.019734382629395,-0.4884171485900879,1.2473790645599365,10.5133056640625,-14.0380859375,3.96728515625
2.6499999,-9.909601211547852,-0.5793967843055725,1.036689281463623,16.510009765625,-17.974853515625,-3.662109375
2.6699999,-9.952696800231934,-0.6320692300796509,1.0749965906143188,20.294189453125,-9.8419189453125,-0.823974609375
2.6899999,-9.744400978088379,-0.5578489899635315,1.3551181554794312,13.5955810546875,-12.6190185546875,2.2735595703125
2.7099999,-9.703699111938477,-0.45250412821769714,1.8531121015548706,-5.3253173828125,-5.3863525390625,4.1656494140625
2.7299999,-9.773131370544434,-0.45250412821769714,2.4396915435791016,-21.575927734375,2.593994140625,7.0953369140625
2.7499999,-9.624691009521484,-0.24660277366638184,2.7988216876983643,-26.1688232421875,0.7476806640625,6.4697265625
2.7699999,-9.758766174316406,-0.3495534360408783,2.829946517944336,-20.2178955078125,-0.8392333984375,4.33349609375
2.7899999,-9.749189376831055,-0.36152446269989014,2.6001031398773193,-2.3193359375,-7.720947265625,0.1373291015625
2.8099999,-9.715670585632324,-0.49799394607543945,2.094926595687866,15.68603515625,-9.002685546875,-7.598876953125
2.8299999,-9.873687744140625,-0.6344634294509888,1.7932571172714233,28.3966064453125,-3.2196044921875,-2.197265625
2.8499999,-9.816226959228516,-0.586579442024231,1.824381709098816,23.2696533203125,-7.2784423828125,0.5645751953125
2.8699999,-9.81143856048584,-0.3734954595565796,2.0877439975738525,-3.8604736328125,3.6468505859375,2.6702880859375
2.8899999,-9.730035781860352,0.014365210197865963,2.5306711196899414,-30.0445556640625,11.9781494140625,6.2713623046875
2.9099999,-9.615114212036133,0.3519476354122162,2.765302896499634,-35.2325439453125,8.85009765625,-1.3427734375
2.9299999,-9.653421401977539,0.42616790533065796,2.7006595134735107,-20.8587646484375,7.232666015625,-7.6141357421875
2.9499999,-9.643844604492188,0.2322375625371933,2.3127987384796143,-1.3427734375,1.03759765625,-15.2435302734375
2.9699999,-9.763554573059082,-0.19871874153614044,1.8962076902389526,15.6097412109375,5.67626953125,-14.8468017578125
2.9899999,-9.749189376831055,-0.6919242739677429,1.5897499322891235,24.200439453125,2.4566650390625,-7.9498291015625
3.0099999,-9.648633003234863,-1.1085153818130493,1.5418659448623657,18.49365234375,3.3721923828125,-4.9285888671875
3.0299999,-9.749189376831055,-1.2545616626739502,1.6950948238372803,5.2337646484375,8.697509765625,3.631591796875
3.0499999,-9.713275909423828,-1.2832920551300049,1.9321208000183105,-4.82177734375,3.0059814453125,6.9427490234375
3.0699999,-9.832986831665039,-1.05105459690094,2.0685901641845703,-7.6751708984375,3.021240234375,9.8114013671875
3.0899999,-9.794678688049316,-0.9002198576927185,2.0877439975738525,-7.3089599609375,-1.2054443359375,3.7841796875
3.1099999,-9.854534149169922,-0.6703764796257019,1.9369091987609863,-5.1116943359375,4.7607421875,0.1983642578125
3.1299999,-9.830592155456543,-0.5841852426528931,1.7860745191574097,-3.143310546875,4.0740966796875,6.3018798828125
3.1499999,-9.806650161743164,-0.47165772318840027,1.6831238269805908,-6.1798095703125,1.5411376953125,6.2408447265625
3.1699999,-9.859322547912598,-0.3974374830722809,1.6352397203445435,-9.246826171875,5.1727294921875,8.6669921875
3.1899999,-9.832986831665039,-0.35913026332855225,1.6065093278884888,-6.0272216796875,-2.2735595703125,8.636474609375
3.2099999,-9.911994934082031,-0.35673606395721436,1.5490485429763794,4.8370361328125,-7.3089599609375,6.317138671875
3.2299999,-9.888052940368652,-0.3734954595565796,1.5969325304031372,18.310546875,-12.4664306640625,0.8544921875
3.2499999,-9.840168952941895,-0.3232172429561615,1.7190368175506592,23.040771484375,-7.568359375,-4.3792724609375
3.2699999,-9.77791976928711,-0.23942017555236816,2.051830768585205,15.716552734375,4.0740966796875,0.5645751953125
3.2899999,-9.557653427124023,-0.08619125932455063,2.454056739807129,-0.48828125,7.99560546875,-0.518798828125
3.3099999,-9.603142738342285,0.1412578970193863,2.8610711097717285,-15.716552734375,18.0206298828125,0.18310546875
3.3299999000000002,-9.526528358459473,0.1867477297782898,3.002328872680664,-25.360107421875,17.4560546875,1.9683837890625
3.3499999,-9.619902610778809,0.17956513166427612,2.7988216876983643,-24.0325927734375,16.326904296875,1.678466796875
3.3699999,-9.68694019317627,-0.06224924325942993,2.3343467712402344,-10.467529296875,10.2081298828125,-4.5623779296875
3.3899999,-9.794678688049316,-0.35913026332855225,1.647210717201233,6.6070556640625,7.6904296875,-10.6048583984375
3.4099999,-9.950302124023438,-0.5985504388809204,1.1563993692398071,16.2811279296875,7.0953369140625,-3.90625
3.4299999,-9.926360130310059,-0.7972691655158997,0.8762778043746948,12.0849609375,2.5787353515625,-1.0833740234375
3.4499999,-10.050858497619629,-0.7852981686592102,0.8595184087753296,3.692626953125,8.30078125,0.54931640625
3.4699999,-9.926360130310059,-0.730231523513794,1.0630255937576294,2.044677734375,0.701904296875,3.6468505859375
3.4899999,-9.928754806518555,-0.6727706789970398,1.1540051698684692,4.2877197265625,-5.6610107421875,5.67626953125
3.5099999,-9.90241813659668,-0.6129156351089478,1.3239935636520386,8.453369140625,-9.4451904296875,2.3193359375
3.5299999,-9.828198432922363,-0.6392518281936646,1.381454348564148,14.5111083984375,-8.60595703125,-3.5247802734375
3.5499999,-9.883264541625977,-0.5793967843055725,1.4748282432556152,19.073486328125,-3.5400390625,0.823974609375
3.5699999,-9.765948295593262,-0.5291185975074768,1.625662922859192,15.8843994140625,-6.40869140625,3.23486328125
3.5899999,-9.816226959228516,-0.35434186458587646,1.7764976024627686,7.6904296875,0.457763671875,4.364013671875
3.6099999,-9.792284965515137,-0.19393034279346466,1.9800047874450684,0.0152587890625,-1.77001953125,7.293701171875
3.6299999,-9.785101890563965,-0.10534487664699554,2.142810583114624,-3.90625,-3.84521484375,8.758544921875
3.6499999,-9.768342971801758,-0.15801730751991272,2.2218191623687744,-3.9215087890625,-3.570556640625,6.4849853515625
3.6699999,-9.708487510681152,-0.17717093229293823,2.212242364883423,-0.091552734375,-1.1138916015625,0.1678466796875
3.6899999,-9.730035781860352,-0.33518823981285095,2.0901381969451904,4.45556640625,5.5694580078125,3.326416015625
3.7099999,-9.684545516967773,-0.2537853717803955,1.9943699836730957,3.2806396484375,2.0904541015625,6.5460205078125
3.7299999,-9.794678688049316,-0.22744916379451752,1.8746598958969116,-3.204345703125,7.2479248046875,5.7830810546875
3.7499999,-9.813833236694336,-0.08858546614646912,1.8483237028121948,-7.3699951171875,4.7149658203125,7.4462890625
3.7699999,-9.888052940368652,0.07900865375995636,1.8195933103561401,-6.7596435546875,0.0152587890625,7.2174072265625
3.7899999,-9.928754806518555,0.13407529890537262,1.7334020137786865,-0.9002685546875,-3.2806396484375,2.5634765625
3.8099999,-9.86889934539795,0.16759411990642548,1.6304513216018677,8.2855224609375,-5.3863525390625,-6.4697265625
3.8299999000000002,-9.885659217834473,0.07661445438861847,1.556231141090393,15.3350830078125,0.8697509765625,-7.50732421875
3.8499999,-9.758766174316406,0.09816227108240128,1.580173134803772,13.8092041015625,-0.946044921875,-4.5928955078125
3.8699999,-9.730035781860352,0.05027823522686958,1.7597382068634033,4.82177734375,4.2572021484375,-5.889892578125
3.8899999,-9.75637149810791,0.11252748221158981,1.9273324012756348,-3.1280517578125,6.5765380859375,-3.173828125
3.9099999,-9.763554573059082,0.10295066982507706,2.078166961669922,-5.2642822265625,2.3956298828125,-1.373291015625
3.9299999,-9.835380554199219,0.0454898327589035,2.0374655723571777,-3.72314453125,0.1220703125,-2.7313232421875
3.9499999,-9.818621635437012,-0.11252748221158981,1.9584569931030273,-1.068115234375,-2.1209716796875,-9.3536376953125
3.9699999,-9.813833236694336,-0.1843535304069519,1.824381709098816,2.9144287109375,4.3182373046875,-10.4522705078125
3.9899999,-9.765948295593262,-0.2825157940387726,1.7621324062347412,3.265380859375,4.2877197265625,-6.0577392578125
4.0099999,-9.770736694335938,-0.24181437492370605,1.7094600200653076,-2.0751953125,4.7454833984375,-6.77490234375
4.029999900000001,-9.832986831665039,-0.24899697303771973,1.6328455209732056,-5.18798828125,7.14111328125,-5.126953125
4.0499999,-9.897629737854004,-0.2298433631658554,1.4844050407409668,0.030517578125,-3.326416015625,-3.7841796875
4.069999900000001,-9.976638793945312,-0.26575639843940735,1.3479355573654175,7.568359375,-8.7432861328125,-4.669189453125
4.0899999000000005,-9.947908401489258,-0.4189853072166443,1.2186486721038818,13.0462646484375,-13.3819580078125,-9.7808837890625
4.1099999,-9.888052940368652,-0.5147533416748047,1.2186486721038818,19.04296875,-10.7269287109375,-14.22119140625
4.1299999000000005,-9.801861763000488,-0.6200982332229614,1.3982137441635132,23.13232421875,-8.23974609375,-8.9111328125
4.1499999,-9.670180320739746,-0.6320692300796509,1.7812861204147339,16.448974609375,-7.7056884765625,-5.523681640625
4.1699999000000005,-9.672574996948242,-0.6009446382522583,2.183511972427368,-0.0152587890625,4.2266845703125,-1.434326171875
4.1899999,-9.612719535827637,-0.4884171485900879,2.5306711196899414,-9.5672607421875,3.4942626953125,2.8533935546875
4.209999900000001,-9.68933391571045,-0.4381389021873474,2.7557260990142822,-14.404296875,1.46484375,4.6844482421875
4.2299999,-9.744400978088379,-0.40701428055763245,2.655169725418091,-18.341064453125,1.983642578125,3.631591796875
4.249999900000001,-9.727641105651855,-0.4644751250743866,2.4660277366638184,-15.716552734375,3.3111572265625,-1.6326904296875
4.2699999,-9.775525093078613,-0.5530605912208557,2.1068975925445557,-7.5836181640625,9.5367431640625,-0.152587890625
4.289999900000001,-9.761159896850586,-0.6177040338516235,1.764526605606079,-2.3956298828125,3.936767578125,2.44140625
4.3099999,-9.816226959228516,-0.586579442024231,1.4437036514282227,-1.373291015625,2.5787353515625,1.5106201171875
4.329999900000001,-9.983820915222168,-0.5171475410461426,1.1971008777618408,1.7852783203125,1.1444091796875,4.0435791015625
4.3499999,-9.99339771270752,-0.45010992884635925,1.0797849893569946,11.65771484375,-10.589599609375,4.1656494140625
4.369999900000001,-10.079588890075684,-0.38546648621559143,1.0079588890075684,21.2554931640625,-15.7928466796875,2.655029296875
4.3899999,-9.979032516479492,-0.40462008118629456,1.0534487962722778,27.6641845703125,-21.5301513671875,-3.814697265625
4.409999900000001,-9.837775230407715,-0.3926490843296051,1.3455413579940796,29.0679931640625,-15.380859375,-8.9263916015625
4.4299999,-9.751583099365234,-0.28730419278144836,1.7860745191574097,20.7672119140625,-8.60595703125,-3.9520263671875
4.449999900000001,-9.528923034667969,-0.1388636976480484,2.3702597618103027,3.5552978515625,-4.1656494140625,-3.143310546875
4.4699999,-9.564835548400879,-0.043095629662275314,2.8993782997131348,-12.3748779296875,7.6141357421875,-0.8544921875
4.489999900000001,-9.478644371032715,0.016759412363171577,3.251325845718384,-20.294189453125,7.7056884765625,1.6021728515625
4.5099999,-9.555258750915527,-0.08619125932455063,3.292027235031128,-20.843505859375,8.056640625,4.150390625
4.529999900000001,-9.653421401977539,-0.31842881441116333,3.0382418632507324,-11.53564453125,6.439208984375,1.8463134765625
4.5499999,-9.643844604492188,-0.5674257874488831,2.5067291259765625,2.44140625,4.669189453125,-4.913330078125
4.569999900000001,-9.801861763000488,-0.7350199222564697,1.9536685943603516,13.2904052734375,7.720947265625,-2.6397705078125
4.5899999000000005,-9.775525093078613,-0.7374141216278076,1.4963760375976562,14.0838623046875,0.91552734375,-0.79345703125
4.609999900000001,-9.859322547912598,-0.5267243981361389,1.3192051649093628,5.5999755859375,3.0670166015625,-0.3662109375
4.6299999000000005,-9.940725326538086,-0.3974374830722809,1.3120225667953491,-3.60107421875,4.2266845703125,3.41796875
4.6499999,-9.911994934082031,-0.16519992053508759,1.4508862495422363,-4.0283203125,-4.913330078125,2.716064453125
4.6699999000000005,-10.017339706420898,-0.2513911724090576,1.525106430053711,0.1373291015625,-8.4686279296875,3.1585693359375
4.6899999,-9.911994934082031,-0.3998316824436188,1.6041151285171509,7.110595703125,-12.87841796875,-0.6866455078125
4.709999900000001,-9.835380554199219,-0.5602431893348694,1.7262194156646729,15.56396484375,-6.2103271484375,-3.0059814453125
4.7299999,-9.744400978088379,-0.629675030708313,1.9321208000183105,15.6402587890625,-3.1890869140625,3.1890869140625
4.749999900000001,-9.576807022094727,-0.5746083855628967,2.1978771686553955,1.6937255859375,-1.77001953125,3.8909912109375
4.7699999,-9.619902610778809,-0.38307225704193115,2.4588451385498047,-13.8092041015625,6.6070556640625,6.89697265625
4.789999900000001,-9.586383819580078,-0.14365209639072418,2.6384103298187256,-22.0489501953125,4.547119140625,8.1787109375
4.8099999,-9.648633003234863,-0.06464344263076782,2.6455929279327393,-21.6064453125,3.35693359375,8.3160400390625
4.829999900000001,-9.739612579345703,-0.0694318488240242,2.4803929328918457,-12.725830078125,-0.213623046875,5.2642822265625
4.8499999,-9.6989107131958,-0.17717093229293823,2.1978771686553955,-0.9307861328125,-1.556396484375,-2.0904541015625
4.869999900000001,-9.804255485534668,-0.31842881441116333,1.9584569931030273,8.36181640625,5.7830810546875,0.1983642578125
4.8899999,-9.744400978088379,-0.3208230137825012,1.7764976024627686,7.5531005859375,2.2125244140625,1.28173828125
4.909999900000001,-9.792284965515137,-0.181959331035614,1.8291701078414917,-0.5950927734375,5.4931640625,-0.3509521484375
4.9299999,-9.821015357971191,-0.009576806798577309,1.9297266006469727,-8.9263916015625,7.568359375,1.8157958984375
4.949999900000001,-9.799467086791992,0.15322890877723694,2.073378562927246,-12.5885009765625,2.899169921875,-0.4425048828125
4.9699999,-9.892841339111328,0.21547815203666687,2.1068975925445557,-10.650634765625,1.9073486328125,-1.617431640625
4.989999900000001,-9.80904483795166,-0.011971008032560349,2.0015525817871094,-4.241943359375,-2.5482177734375,-7.232666015625
5.0099999,-9.832986831665039,-0.2537853717803955,1.86508309841156,6.9580078125,0.8087158203125,-10.1776123046875
5.029999900000001,-9.78989028930664,-0.5219359993934631,1.7812861204147339,14.6942138671875,2.3193359375,-4.058837890625
5.0499999,-9.732429504394531,-0.6991068720817566,1.800439715385437,10.1318359375,0.2288818359375,-1.1138916015625
5.069999900000001,-9.75637149810791,-0.6153098344802856,1.9560627937316895,-0.7476806640625,6.6986083984375,2.7923583984375
5.0899999000000005,-9.6989107131958,-0.507570743560791,2.185906171798706,-8.5296630859375,3.96728515625,5.401611328125
5.109999900000001,-9.749189376831055,-0.23702596127986908,2.360682964324951,-14.007568359375,4.0435791015625,3.662109375
5.1299999000000005,-9.785101890563965,-0.22744916379451752,2.3989901542663574,-16.5557861328125,4.364013671875,2.5634765625
5.1499999,-9.734824180603027,-0.1173158809542656,2.3032219409942627,-12.0086669921875,2.3651123046875,-3.570556640625
5.1699999000000005,-9.797073364257812,-0.2561795711517334,2.0590133666992188,-3.6163330078125,10.162353515625,-3.9215087890625
5.1899999,-9.725247383117676,-0.3208230137825012,1.7764976024627686,1.0833740234375,6.744384765625,-0.2899169921875
5.209999900000001,-9.773131370544434,-0.3926490843296051,1.4867992401123047,0.1373291015625,3.0975341796875,0.2899169921875
5.2299999,-9.873687744140625,-0.3256114423274994,1.2497732639312744,2.7618408203125,-7.080078125,1.77001953125
5.249999900000001,-9.99339771270752,-0.2585737705230713,1.2761094570159912,8.636474609375,-8.4228515625,0.42724609375
5.2699999,-9.955090522766113,-0.26336219906806946,1.4197616577148438,13.24462890625,-13.7176513671875,-4.4097900390625
5.289999900000001,-9.797073364257812,-0.26336219906806946,1.6065093278884888,15.56396484375,-11.71875,-10.68115234375
5.3099999,-9.794678688049316,-0.31364041566848755,1.8818424940109253,15.2587890625,-1.7242431640625,-7.6141357421875
5.329999900000001,-9.622296333312988,-0.2059013396501541,2.2840683460235596,7.598876953125,-0.091552734375,-4.4708251953125
5.3499999,-9.586383819580078,-0.2513911724090576,2.5929205417633057,-9.0789794921875,8.1634521484375,-2.86865234375
5.369999900000001,-9.612719535827637,-0.1364694982767105,2.8850131034851074,-20.8740234375,13.0157470703125,2.685546875
5.3899999,-9.59596061706543,-0.17956513166427612,2.9041666984558105,-22.7508544921875,8.7890625,2.044677734375
5.409999900000001,-9.732429504394531,-0.2944868206977844,2.6240451335906982,-17.27294921875,8.6822509765625,2.7923583984375
5.4299999,-9.739612579345703,-0.49559974670410156,2.118868589401245,-4.0283203125,1.1749267578125,-2.593994140625
5.449999900000001,-9.873687744140625,-0.6488286852836609,1.5729905366897583,10.894775390625,3.021240234375,-4.9591064453125
5.4699999,-9.916783332824707,-0.7589619159698486,1.1180921792984009,18.280029296875,0.2288818359375,-0.7781982421875
5.489999900000001,-9.914389610290527,-0.608127236366272,0.9768342971801758,14.5416259765625,-5.3558349609375,-1.5106201171875
5.5099999,-9.962273597717285,-0.3926490843296051,1.1204863786697388,3.1890869140625,-0.91552734375,-0.9002685546875
5.529999900000001,-9.86650562286377,-0.20350714027881622,1.3239935636520386,-4.425048828125,-5.218505859375,1.0223388671875
5.5499999,-9.931148529052734,-0.08379705995321274,1.6089035272598267,-1.1749267578125,-9.2926025390625,-0.9613037109375
5.569999900000001,-9.890447616577148,-0.1843535304069519,1.745373010635376,5.2642822265625,-11.5814208984375,-1.5716552734375
5.5899999000000005,-9.840168952941895,-0.35434186458587646,1.8986018896102905,10.162353515625,-14.09912109375,-5.5694580078125
5.609999900000001,-9.75637149810791,-0.5195417404174805,2.0446481704711914,12.5885009765625,-4.5928955078125,-5.6304931640625
5.6299999000000005,-9.641449928283691,-0.6200982332229614,2.252943754196167,11.199951171875,-0.518798828125,0.946044921875
5.6499999,-9.516951560974121,-0.6057330369949341,2.5019407272338867,-0.213623046875,0.4425048828125,2.74658203125
5.6699999000000005,-9.576807022094727,-0.3902548849582672,2.7269957065582275,-17.9290771484375,10.07080078125,6.2713623046875
5.6899999,-9.526528358459473,-0.2561795711517334,2.8562827110290527,-27.77099609375,7.6751708984375,6.9732666015625
5.709999900000001,-9.684545516967773,-0.11971008777618408,2.7485435009002686,-27.008056640625,7.965087890625,6.3629150390625
5.7299999,-9.797073364257812,-0.1364694982767105,2.434903144836426,-14.678955078125,2.2735595703125,2.0904541015625
5.749999900000001,-9.78989028930664,-0.28969839215278625,1.9393033981323242,4.3487548828125,-3.204345703125,-5.0506591796875
5.7699999,-9.959878921508789,-0.45010992884635925,1.4724340438842773,17.578125,2.166748046875,-3.173828125
5.789999900000001,-9.921571731567383,-0.49559974670410156,1.1827356815338135,22.7508544921875,-4.150390625,-1.9378662109375
5.8099999,-9.888052940368652,-0.4572925269603729,1.235408067703247,18.4173583984375,-5.767822265625,-2.3651123046875
5.829999900000001,-9.93593692779541,-0.23942017555236816,1.5275006294250488,3.2501220703125,-1.7242431640625,0.6866455078125
5.8499999,-9.782708168029785,-0.038307227194309235,1.9752163887023926,-9.70458984375,-4.21142578125,-1.89208984375
5.869999900000001,-9.799467086791992,-0.026336219161748886,2.298433542251587,-13.0767822265625,-1.068115234375,-1.1749267578125
5.8899999,-9.72285270690918,-0.090979665517807,2.5019407272338867,-8.30078125,-4.3792724609375,-3.326416015625
5.909999900000001,-9.63187313079834,-0.4405331015586853,2.451662540435791,0.3662109375,-1.312255859375,-6.011962890625
5.9299999,-9.66299819946289,-0.6751648783683777,2.33913516998291,7.4310302734375,6.195068359375,-0.335693359375
5.949999900000001,-9.588777542114258,-0.8164227604866028,2.229001760482788,8.880615234375,2.50244140625,3.3111572265625
5.9699999,-9.622296333312988,-0.7613561153411865,2.190694570541382,-0.5340576171875,5.218505859375,4.3792724609375
5.989999900000001,-9.691728591918945,-0.5027823448181152,2.248155355453491,-15.44189453125,8.1024169921875,7.9803466796875
6.0099999,-9.706093788146973,-0.2346317619085312,2.2170307636260986,-23.681640625,4.8675537109375,4.0435791015625
6.029999900000001,-9.86889934539795,-0.11252748221158981,2.099714994430542,-18.6309814453125,2.3040771484375,2.960205078125
6.0499999,-9.859322547912598,-0.15562310814857483,1.8531121015548706,-4.21142578125,-5.92041015625,-2.44140625
6.069999900000001,-9.880870819091797,-0.31364041566848755,1.5634137392044067,10.589599609375,-2.0294189453125,-5.5389404296875
6.0899999000000005,-9.914389610290527,-0.5363011956214905,1.3239935636520386,19.0887451171875,-1.0986328125,-2.1820068359375
6.109999900000001,-9.794678688049316,-0.5147533416748047,1.359906554222107,20.599365234375,-8.209228515625,-2.105712890625
6.1299999000000005,-9.821015357971191,-0.4692635238170624,1.599326729774475,10.1318359375,-3.0975341796875,1.4801025390625
6.149999900000001,-9.694122314453125,-0.31603461503982544,2.0183119773864746,-5.8746337890625,-0.48828125,4.39453125
6.1699999000000005,-9.679757118225098,-0.17956513166427612,2.477998733520508,-15.2130126953125,1.5106201171875,2.3956298828125
6.1899999,-9.691728591918945,-0.2777273952960968,2.698265314102173,-14.2974853515625,2.01416015625,2.8076171875
6.209999900000001,-9.643844604492188,-0.3902548849582672,2.7030537128448486,-6.3934326171875,1.0833740234375,-0.823974609375
6.2299999,-9.765948295593262,-0.5626373887062073,2.470816135406494,2.410888671875,9.3231201171875,0.4119873046875
6.249999900000001,-9.72285270690918,-0.6224924325942993,2.1811177730560303,6.5460205078125,6.9580078125,4.4403076171875
6.2699999,-9.758766174316406,-0.48602294921875,1.922544002532959,3.2806396484375,3.23486328125,3.204345703125
6.289999900000001,-9.84256362915039,-0.26575639843940735,1.7693150043487549,-6.2103271484375,5.584716796875,4.7149658203125
6.3099999,-9.785101890563965,0.033518824726343155,1.6615760326385498,-11.71875,-0.213623046875,1.739501953125
6.329999900000001,-9.914389610290527,0.07422025501728058,1.6160861253738403,-7.1868896484375,-3.0975341796875,-0.6256103515625
6.3499999,-9.849745750427246,0.07422025501728058,1.6663644313812256,1.495361328125,-8.0718994140625,-4.1046142578125
6.369999900000001,-9.80904483795166,-0.22266076505184174,1.6687586307525635,9.429931640625,-7.0953369140625,-7.781982421875
6.3899999,-9.804255485534668,-0.40701428055763245,1.824381709098816,15.045166015625,1.0833740234375,-4.7454833984375
6.409999900000001,-9.674968719482422,-0.5339069962501526,2.121262788772583,11.5966796875,0.640869140625,-0.823974609375
6.4299999,-9.586383819580078,-0.4429273009300232,2.492363929748535,-5.9051513671875,9.307861328125,0.91552734375
6.449999900000001,-9.636661529541016,-0.2082955539226532,2.832340717315674,-24.810791015625,16.8609619140625,4.3792724609375
6.4699999,-9.600749015808105,-0.002394201699644327,2.9496564865112305,-30.9906005859375,12.4969482421875,-0.18310546875
6.489999900000001,-9.751583099365234,0.028730420395731926,2.693476915359497,-24.59716796875,10.0555419921875,0.701904296875
6.5099999,-9.804255485534668,-0.16759411990642548,2.190694570541382,-9.246826171875,3.3721923828125,-3.7689208984375
6.529999900000001,-9.854534149169922,-0.4405331015586853,1.5634137392044067,7.9345703125,4.5623779296875,-6.3629150390625
6.5499999,-9.928754806518555,-0.7493851184844971,1.0869675874710083,16.4337158203125,2.044677734375,-2.532958984375
6.569999900000001,-9.897629737854004,-0.7972691655158997,0.8906430602073669,15.960693359375,-4.1961669921875,-1.52587890625
6.5899999000000005,-9.93593692779541,-0.7206547260284424,1.0295066833496094,8.270263671875,-0.5035400390625,2.471923828125
6.609999900000001,-9.890447616577148,-0.4812345504760742,1.3623007535934448,-1.2359619140625,-2.99072265625,3.3721923828125
6.6299999000000005,-9.847352027893066,-0.33758243918418884,1.7573440074920654,-2.349853515625,-4.669189453125,-0.54931640625
6.649999900000001,-9.835380554199219,-0.15562310814857483,2.078166961669922,1.03759765625,-5.6304931640625,0.1220703125
6.6699999000000005,-9.710882186889648,-0.2753331959247589,2.274491548538208,2.1820068359375,-5.462646484375,-3.5247802734375
6.6899999,-9.68933391571045,-0.3423708379268646,2.3056161403656006,3.631591796875,5.0201416015625,-4.6539306640625
6.709999900000001,-9.63187313079834,-0.5027823448181152,2.3343467712402344,4.4708251953125,6.1492919921875,1.2359619140625
6.7299999,-9.610325813293457,-0.5291185975074768,2.207453966140747,-0.1220703125,4.33349609375,2.5787353515625
6.749999900000001,-9.746794700622559,-0.4596867263317108,2.1475989818573,-7.781982421875,7.5836181640625,6.8817138671875
6.7699999,-9.732429504394531,-0.3016694188117981,1.98958158493042,-10.1165771484375,1.9989013671875,4.913330078125
6.789999900000001,-9.888052940368652,-0.2561795711517334,1.7980455160140991,-2.99072265625,-0.823974609375,2.838134765625
6.8099999,-9.897629737854004,-0.2346317619085312,1.6424223184585571,7.8582763671875,-8.392333984375,-1.6632080078125
6.829999900000001,-9.8784761428833,-0.3232172429561615,1.5155296325683594,14.3890380859375,-8.0718994140625,-6.6680908203125
6.8499999,-9.86650562286377,-0.40462008118629456,1.5466543436050415,15.2587890625,1.190185546875,-4.241943359375
6.869999900000001,-9.730035781860352,-0.33997663855552673,1.7980455160140991,10.7574462890625,0.274658203125,-0.274658203125
6.8899999,-9.651026725769043,-0.22744916379451752,2.1164743900299072,-3.0670166015625,4.7607421875,-1.2054443359375
6.909999900000001,-9.6989107131958,-0.10534487664699554,2.403778553009033,-15.2130126953125,8.575439453125,2.50244140625
6.9299999,-9.634267807006836,0.06703764945268631,2.5043349266052246,-18.402099609375,5.18798828125,-0.518798828125
6.949999900000001,-9.785101890563965,0.021547814831137657,2.3487119674682617,-13.00048828125,3.90625,-1.556396484375
6.9699999,-9.787496566772461,-0.16998831927776337,2.011129379272461,-1.8463134765625,-3.3721923828125,-7.26318359375
6.989999900000001,-9.821015357971191,-0.4165911078453064,1.5634137392044067,9.9334716796875,-2.197265625,-9.796142578125
7.0099999,-9.943120002746582,-0.7015010714530945,1.2952631711959839,19.134521484375,-1.3275146484375,-5.0506591796875
7.029999900000001,-9.859322547912598,-0.8643068075180054,1.2425906658172607,19.6533203125,-7.171630859375,-2.44140625
7.0499999,-9.892841339111328,-0.8595184087753296,1.479616641998291,5.3253173828125,-1.89208984375,3.0975341796875
7.069999900000001,-9.821015357971191,-0.7541735172271729,1.8531121015548706,-11.0321044921875,0.4730224609375,7.720947265625
7.0899999000000005,-9.727641105651855,-0.5746083855628967,2.367865562438965,-16.9677734375,-0.3814697265625,5.2032470703125
7.109999900000001,-9.672574996948242,-0.35673606395721436,2.693476915359497,-21.881103515625,4.7760009765625,8.2550048828125
7.1299999000000005,-9.624691009521484,-0.2585737705230713,2.80361008644104,-24.169921875,6.3934326171875,3.3721923828125
7.149999900000001,-9.588777542114258,-0.17956513166427612,2.5929205417633057,-16.9677734375,12.2222900390625,-1.3427734375
7.1699999000000005,-9.708487510681152,-0.2106897532939911,2.188300371170044,-5.8746337890625,11.9171142578125,2.105712890625
7.1899999,-9.765948295593262,-0.2537853717803955,1.7357962131500244,-1.9683837890625,2.86865234375,1.03759765625
7.209999900000001,-9.931148529052734,-0.31364041566848755,1.3503297567367554,-5.5999755859375,5.126953125,2.0904541015625
7.2299999,-9.99339771270752,-0.4189853072166443,1.1204863786697388,-4.608154296875,-1.0833740234375,6.4697265625
7.249999900000001,-9.995792388916016,-0.4836287498474121,0.9696516990661621,4.4708251953125,-10.5438232421875,3.7841796875
7.2699999,-10.038887977600098,-0.5770025849342346,0.9457096457481384,15.0909423828125,-14.801025390625,3.875732421875
7.289999900000001,-10.005369186401367,-0.5339069962501526,1.0845733880996704,21.453857421875,-20.4010009765625,-0.579833984375
7.3099999,-9.911994934082031,-0.36152446269989014,1.53707754611969,20.0958251953125,-12.8021240234375,-4.486083984375
7.329999900000001,-9.734824180603027,-0.07182604819536209,2.1811177730560303,3.143310546875,-0.030517578125,-1.8157958984375
7.3499999,-9.490615844726562,0.2082955539226532,2.96162748336792,-24.0478515625,8.11767578125,-0.5645751953125
7.369999900000001,-9.390059471130371,0.4118026793003082,3.512293815612793,-48.248291015625,21.0723876953125,-1.068115234375
7.3899999,-9.402029991149902,0.33997663855552673,3.6320040225982666,-53.192138671875,24.932861328125,3.4942626953125
7.409999900000001,-9.514557838439941,0.040701430290937424,3.2130186557769775,-36.7584228515625,17.4102783203125,2.5482177734375
7.4299999,-9.785101890563965,-0.4381389021873474,2.27209734916687,-8.9111328125,9.979248046875,1.4801025390625
7.449999900000001,-9.914389610290527,-0.9050082564353943,1.2880805730819702,22.52197265625,-3.23486328125,-2.4566650390625
7.4699999,-10.038887977600098,-1.0749965906143188,0.545877993106842,38.5894775390625,-8.514404296875,-4.08935546875
7.489999900000001,-10.06043529510498,-1.0079588890075684,0.35673606395721436,29.449462890625,-5.6304931640625,-2.410888671875
7.5099999,-9.955090522766113,-0.5554547905921936,0.7374141216278076,5.2337646484375,-3.4027099609375,-2.777099609375
7.529999900000001,-9.801861763000488,-0.035913024097681046,1.4891934394836426,-20.7672119140625,5.035400390625,-2.9754638671875
7.5499999,-9.732429504394531,0.2777273952960968,2.1547815799713135,-35.8428955078125,10.711669921875,-0.396728515625
7.569999900000001,-9.655815124511719,0.35673606395721436,2.585737943649292,-32.9742431640625,7.843017578125,-1.1749267578125
7.5899999000000005,-9.68694019317627,0.05985504388809204,2.655169725418091,-21.1029052734375,7.3394775390625,-1.8463134765625
7.609999900000001,-9.710882186889648,-0.31364041566848755,2.4660277366638184,-12.9852294921875,5.8441162109375,-1.1444091796875
7.6299999000000005,-9.674968719482422,-0.5770025849342346,2.3367409706115723,-17.39501953125,7.1868896484375,-1.617431640625
7.649999900000001,-9.612719535827637,-0.569819986820221,2.3965959548950195,-40.8477783203125,19.317626953125,1.1138916015625
7.6699999000000005,-9.569623947143555,-0.3998316824436188,2.5761611461639404,-71.71630859375,27.679443359375,3.96728515625
7.6899999,-9.404424667358398,-0.06464344263076782,2.9257144927978516,-94.4061279296875,31.3262939453125,5.8135986328125
7.709999900000001,-9.351752281188965,0.3423708379268646,3.2992098331451416,-119.293212890625,47.54638671875,6.3629150390625
7.7299999,-9.497797966003418,0.5578489899635315,3.1962592601776123,-161.834716796875,68.42041015625,6.6375732421875
7.749999900000001,-9.555258750915527,0.5626373887062073,2.7676970958709717,-171.4324951171875,66.070556640625,9.2620849609375
7.7699999,-9.373299598693848,0.07900865375995636,1.6065093278884888,-139.46533203125,56.5338134765625,9.1094970703125
7.789999900000001,-9.155426979064941,-0.9816226959228516,-0.9672574996948242,-63.2781982421875,45.3338623046875,14.3585205078125
7.8099999,-8.769960403442383,-2.011129379272461,-3.711012601852417,99.3499755859375,-7.293701171875,11.5203857421875
7.829999900000001,-8.868123054504395,-2.580949544906616,-5.995080947875977,237.4420166015625,-74.1119384765625,-4.4708251953125
7.8499999,-9.191340446472168,-2.169146776199341,-6.236895561218262,232.666015625,-95.855712890625,-11.4593505859375
7.869999900000001,-9.57201862335205,-0.9313444495201111,-4.010287761688232,125.3662109375,-67.3370361328125,1.9989013671875
7.8899999,-9.873687744140625,0.7805097699165344,-0.16519992053508759,13.3056640625,-28.62548828125,7.8582763671875
7.909999900000001,-9.612719535827637,1.941697597503662,3.529053211212158,-60.3790283203125,6.561279296875,-4.730224609375
7.9299999,-9.35654067993164,2.322375535964966,5.750872611999512,-86.73095703125,25.604248046875,0.42724609375
7.949999900000001,-9.124302864074707,1.7549498081207275,6.107608318328857,-79.9560546875,23.0255126953125,12.420654296875
7.9699999,-9.095572471618652,0.6200982332229614,5.049371242523193,-49.835205078125,12.908935546875,22.003173828125
7.989999900000001,-9.555258750915527,-0.2825157940387726,3.4739866256713867,-22.2015380859375,2.6702880859375,30.82275390625
8.0099999,-10.409989356994629,-0.8858546018600464,1.8339585065841675,-24.1241455078125,-6.9427490234375,34.5916748046875
8.0299999,-11.374852180480957,-1.0989385843276978,0.2561795711517334,-24.993896484375,-9.8419189453125,23.1475830078125
8.049999900000001,-12.320562362670898,-1.0438719987869263,-1.0223240852355957,27.2979736328125,-7.415771484375,-4.82177734375
8.069999900000001,-12.813767433166504,-0.9696516990661621,-1.9297266006469727,85.693359375,-31.9671630859375,-14.58740234375
8.0899999,-12.703634262084961,-0.751779317855835,-2.1140801906585693,112.823486328125,-51.5899658203125,-15.8843994140625
8.1099999,-12.124237060546875,-0.3423708379268646,-1.3096283674240112,104.91943359375,-49.102783203125,-13.702392578125
8.129999900000001,-11.013327598571777,0.14604631066322327,0.3016694188117981,69.03076171875,-34.8358154296875,-14.3280029296875
8.149999900000001,-9.86650562286377,0.5363011956214905,2.1739351749420166,26.0162353515625,-10.7421875,-14.95361328125
8.1699999,-8.83699893951416,0.6440402865409851,3.6798880100250244,-4.8370361328125,11.71875,-14.007568359375
8.1899999,-8.183381080627441,0.49799394607543945,4.376600742340088,-14.3890380859375,22.613525390625,-6.683349609375
8.2099999,-8.008605003356934,0.10055647045373917,4.129997730255127,-5.9356689453125,25.543212890625,-1.15966796875
8.229999900000001,-8.128314971923828,-0.3758896589279175,3.2417490482330322,10.498046875,17.2119140625,-2.1209716796875
8.2499999,-8.542511940002441,-0.7613561153411865,2.2170307636260986,23.98681640625,11.2457275390625,0.2593994140625
8.2699999,-8.966285705566406,-0.8140285611152649,1.3000515699386597,25.93994140625,7.9498291015625,3.753662109375
8.2899999,-9.342175483703613,-0.730231523513794,0.9361328482627869,17.08984375,7.171630859375,-0.3509521484375
8.309999900000001,-9.651026725769043,-0.43335050344467163,0.8954314589500427,4.7760009765625,11.65771484375,-0.9613037109375
8.3299999,-9.907206535339355,-0.2322375625371933,1.091755986213684,0.946044921875,16.4947509765625,-1.3580322265625
8.3499999,-10.1753568649292,-0.090979665517807,1.338358759880066,5.2490234375,15.2587890625,0.8087158203125
8.3699999,-10.462661743164062,-0.035913024097681046,1.4053963422775269,7.6904296875,11.3677978515625,0.8697509765625
8.389999900000001,-10.781089782714844,0.0454898327589035,1.2617442607879639,4.7149658203125,6.7901611328125,-3.1280517578125
8.4099999,-11.05402946472168,0.15322890877723694,0.9959878921508789,2.5634765625,-3.9825439453125,-6.3934326171875
8.4299999,-11.255142211914062,0.22266076505184174,0.751779317855835,2.166748046875,-10.2081298828125,-9.765625
8.4499999,-11.305420875549316,0.14844051003456116,0.6631938815116882,1.983642578125,-12.4359130859375,-8.636474609375
8.469999900000001,-11.1474027633667,0.06224924325942993,0.7781155705451965,1.678466796875,-12.3443603515625,-8.758544921875
8.4899999,-10.740388870239258,-0.05027823522686958,1.1300631761550903,0.0762939453125,-10.1318359375,-10.1318359375
8.5099999,-10.132261276245117,-0.22744916379451752,1.558625340461731,-3.7078857421875,-5.0201416015625,-10.3759765625
8.5299999,-9.445125579833984,-0.3998316824436188,1.9488801956176758,-5.279541015625,2.6397705078125,-8.3160400390625
8.549999900000001,-8.863334655761719,-0.5722141861915588,2.2433669567108154,-4.45556640625,10.223388671875,-3.7384033203125
8.569999900000001,-8.461109161376953,-0.7015010714530945,2.3367409706115723,-5.950927734375,14.9993896484375,-1.220703125
8.5899999,-8.339004516601562,-0.8355764150619507,2.1499931812286377,-6.77490234375,18.1427001953125,-0.640869140625
8.6099999,-8.688557624816895,-0.933738648891449,1.742978811264038,3.448486328125,16.845703125,1.9989013671875
8.629999900000001,-9.279925346374512,-0.8547300100326538,1.278503656387329,18.6767578125,7.476806640625,2.5634765625
8.649999900000001,-10.11789608001709,-0.7230489253997803,0.8954314589500427,16.2353515625,3.631591796875,1.3580322265625
8.6699999,-10.931924819946289,-0.3064578175544739,0.730231523513794,3.3416748046875,5.767822265625,-4.1046142578125
8.6899999,-11.525687217712402,0.028730420395731926,0.7493851184844971,-6.40869140625,4.608154296875,-9.6893310546875
8.709999900000001,-11.88002872467041,0.2513911724090576,0.7972691655158997,-9.27734375,-2.8228759765625,-12.5885009765625
8.729999900000001,-11.865663528442383,0.07182604819536209,0.7158663272857666,1.312255859375,-8.1024169921875,-11.90185546875
8.7499999,-11.403582572937012,-0.30885201692581177,0.7086837291717529,28.3050537109375,-11.810302734375,-7.3089599609375
8.7699999,-10.649409294128418,-0.8451532125473022,0.7134721279144287,46.44775390625,-20.3704833984375,-4.730224609375
8.7899999,-9.406818389892578,-1.2737152576446533,0.9744400978088379,42.236328125,-13.5498046875,0.823974609375
8.809999900000001,-8.406042098999023,-1.3551181554794312,1.3766659498214722,35.7208251953125,-0.4730224609375,7.415771484375
8.8299999,-7.618350028991699,-1.0606313943862915,1.9776105880737305,25.054931640625,4.9591064453125,6.500244140625
8.8499999,-7.474697589874268,-0.4620809257030487,2.3558945655822754,2.3956298828125,18.3563232421875,2.0599365234375
8.8699999,-7.965508937835693,-0.016759412363171577,2.604891538619995,-13.2293701171875,23.0712890625,-2.197265625
8.889999900000001,-8.913613319396973,0.4165911078453064,2.604891538619995,-21.6217041015625,20.2484130859375,-6.6680908203125
8.9099999,-9.804255485534668,0.4189853072166443,2.2697031497955322,-33.416748046875,23.8494873046875,-8.7127685546875
8.9299999,-10.934319496154785,0.2801215946674347,1.7286136150360107,-32.5927734375,27.52685546875,0.335693359375
8.9499999,-11.444284439086914,-0.040701430290937424,0.9289502501487732,-18.829345703125,12.359619140625,-7.87353515625
8.969999900000001,-11.973402976989746,-0.37828385829925537,0.1628057211637497,4.9896240234375,-3.5247802734375,-7.8887939453125
8.9899999,-12.102689743041992,-0.6440402865409851,-0.4692635238170624,21.97265625,-15.0146484375,-12.26806640625
9.0099999,-11.681309700012207,-0.7254431247711182,-0.5770025849342346,29.3426513671875,-13.3819580078125,-7.0343017578125
9.0299999,-11.54005241394043,-0.6392518281936646,-0.23942017555236816,20.4925537109375,-14.3280029296875,-12.6495361328125
9.049999900000001,-10.991780281066895,-0.5913678407669067,0.43095630407333374,6.40869140625,-13.00048828125,-15.167236328125
9.069999900000001,-10.735600471496582,-0.586579442024231,1.1683704853057861,-5.3558349609375,2.166748046875,-18.524169921875
9.0899999,-10.431536674499512,-0.7541735172271729,1.6400281190872192,-8.8348388671875,20.3094482421875,-13.092041015625
9.1099999,-9.950302124023438,-0.912190854549408,1.7860745191574097,-4.9896240234375,15.1824951171875,-6.317138671875
9.129999900000001,-9.32541561126709,-1.1779472827911377,1.5825673341751099,0.6866455078125,3.7689208984375,-5.0811767578125
9.149999900000001,-8.580819129943848,-1.2880805730819702,1.3934253454208374,6.3323974609375,4.4097900390625,-2.5634765625
9.1699999,-7.412448406219482,-1.4987702369689941,1.1300631761550903,-6.53076171875,31.79931640625,3.96728515625
9.1899999,-7.343016624450684,-1.5107412338256836,1.0606313943862915,-0.823974609375,15.777587890625,1.6021728515625
9.209999900000001,-7.704541206359863,-1.4460978507995605,0.9720458984375,5.9967041015625,-15.5029296875,-0.8697509765625
9.229999900000001,-8.2312650680542,-1.3407529592514038,0.9289502501487732,9.6435546875,-27.1759033203125,-3.326416015625
9.2499999,-8.736441612243652,-1.1635819673538208,1.048660397529602,10.4217529296875,-17.7459716796875,-3.021240234375
9.2699999,-9.131484985351562,-0.9768342971801758,1.2449848651885986,6.7596435546875,-0.946044921875,-1.7852783203125
9.2899999,-9.428366661071777,-0.7541735172271729,1.4748282432556152,-0.701904296875,1.2054443359375,0.640869140625
9.309999900000001,-9.715670585632324,-0.5267243981361389,1.6112977266311646,-8.6669921875,-6.65283203125,2.74658203125
9.3299999,-9.93354320526123,-0.33279404044151306,1.6424223184585571,-14.7705078125,-12.481689453125,3.204345703125
9.3499999,-10.0580415725708,-0.22505496442317963,1.5825673341751099,-18.3563232421875,-10.25390625,3.6468505859375
9.3699999,-9.971850395202637,-0.16519992053508759,1.5442601442337036,-18.24951171875,-0.3509521484375,5.7525634765625
9.389999900000001,-9.945513725280762,-0.28969839215278625,1.2856862545013428,-14.312744140625,36.6058349609375,0.213623046875
9.4099999,-9.967061996459961,-0.4189853072166443,0.9911994934082031,-3.7994384765625,34.5611572265625,-3.7689208984375
9.4299999,-10.065223693847656,-0.6536170840263367,0.6344634294509888,1.8157958984375,-3.7994384765625,-2.9449462890625
9.4499999,-10.237606048583984,-0.8355764150619507,0.3878606855869293,3.509521484375,-13.9312744140625,1.1444091796875
9.469999900000001,-10.335768699645996,-0.9696516990661621,0.33758243918418884,3.72314453125,6.2103271484375,-2.4261474609375
9.4899999,-10.292673110961914,-1.0654197931289673,0.4644751250743866,3.90625,14.9078369140625,-7.87353515625
9.5099999,-10.223240852355957,-1.1228805780410767,0.646434485912323,2.4261474609375,6.256103515625,-3.3111572265625
9.5299999,-10.170568466186523,-1.158793568611145,0.7852981686592102,1.220703125,-0.42724609375,5.4779052734375
9.549999900000001,-10.125079154968262,-1.158793568611145,0.8834604024887085,3.5858154296875,-5.584716796875,6.9732666015625
9.569999900000001,-10.050858497619629,-1.115697979927063,0.9792284965515137,6.2713623046875,-11.53564453125,2.6702880859375
9.5899999,-9.995792388916016,-0.993593692779541,1.0797849893569946,3.47900390625,-10.406494140625,1.6632080078125
9.6099999,-9.911994934082031,-0.8307880163192749,1.194706678390503,-2.777099609375,-3.5247802734375,2.3193359375
9.629999900000001,-9.75637149810791,-0.6607996821403503,1.3072341680526733,-7.965087890625,-2.0599365234375,2.0751953125
9.649999900000001,-9.5624418258667,-0.5219359993934631,1.338358759880066,-9.3994140625,2.105712890625,4.08935546875
9.6699999,-9.406818389892578,-0.42377370595932007,1.2832920551300049,-8.5601806640625,13.336181640625,8.819580078125
9.6899999,-9.813833236694336,-0.4118026793003082,1.173158884048462,-7.415771484375,13.671875,6.77490234375
9.709999900000001,-9.983820915222168,-0.4812345504760742,0.9792284965515137,-7.232666015625,-8.1634521484375,-8.48388671875
9.729999900000001,-10.6925048828125,-0.5793967843055725,0.8188169598579407,-0.274658203125,0.030517578125,7.659912109375
9.7499999,-10.773907661437988,-0.6799532771110535,0.6536170840263367,10.4522705078125,-1.4495849609375,12.0086669921875
9.7699999,-10.740388870239258,-0.7350199222564697,0.5147533416748047,17.8680419921875,-6.9732666015625,8.1329345703125
9.7899999,-10.414777755737305,-0.790086567401886,0.48602294921875,20.9503173828125,-11.0321044921875,3.875732421875
9.809999900000001,-10.141838073730469,-0.8164227604866028,0.6248866319656372,14.862060546875,-14.312744140625,0.6103515625
9.8299999,-9.914389610290527,-0.7493851184844971,0.8858546018600464,5.218505859375,-10.55908203125,7.598876953125
9.8499999,-9.775525093078613,-0.6200982332229614,1.2401964664459229,-2.8076171875,-5.7220458984375,9.613037109375
9.8699999,-9.674968719482422,-0.36152446269989014,1.5490485429763794,-8.3465576171875,-2.9754638671875,5.340576171875
9.889999900000001,-9.651026725769043,-0.0694318488240242,1.702277421951294,-12.3291015625,-1.5869140625,0.885009765625
9.9099999,-9.715670585632324,0.14604631066322327,1.699883222579956,-10.711669921875,-0.9307861328125,-3.8299560546875
9.9299999,-9.840168952941895,0.23702596127986908,1.6927006244659424,-4.547119140625,0.06103515625,-6.6375732421875
9.9499999,-9.888052940368652,0.11252748221158981,1.6328455209732056,-5.1422119140625,3.11279296875,-6.7138671875
9.969999900000001,-9.897629737854004,-0.1364694982767105,1.5705963373184204,-14.1143798828125,5.4779052734375,-4.974365234375
9.9899999,-9.861717224121094,-0.5051765441894531,1.4700398445129395,-23.529052734375,7.4462890625,-3.204345703125
10.0099999,-9.871294021606445,-0.9074024558067322,1.3000515699386597,-23.4375,6.5460205078125,-1.2969970703125
10.0299999,-9.923966407775879,-1.0797849893569946,1.0558429956436157,-19.439697265625,5.035400390625,4.058837890625
10.049999900000001,-10.036493301391602,-1.3072341680526733,0.727837324142456,-6.4239501953125,-0.5645751953125,10.772705078125
10.069999900000001,-10.101137161254883,-1.2737152576446533,0.395043283700943,16.4337158203125,-10.4217529296875,9.765625
10.0899999,-10.160991668701172,-1.139639973640442,0.16998831927776337,34.6221923828125,-20.3399658203125,3.2196044921875
10.1099999,-10.160991668701172,-0.9481038451194763,0.16759411990642548,35.82763671875,-22.552490234375,-1.678466796875
10.129999900000001,-10.055646896362305,-0.5410895943641663,0.42616790533065796,26.0772705078125,-18.035888671875,-3.662109375
10.149999900000001,-9.93593692779541,-0.14844051003456116,0.9600749015808105,14.70947265625,-10.7421875,-5.06591796875
10.1699999,-9.782708168029785,0.10773907601833344,1.5131354331970215,1.9073486328125,-5.5694580078125,-7.2021484375
10.1899999,-9.75637149810791,0.2585737705230713,1.941697597503662,-4.364013671875,-3.4332275390625,-5.6304931640625
10.209999900000001,-9.742006301879883,0.1604115068912506,2.2218191623687744,-0.8392333984375,-5.828857421875,-0.8697509765625
10.229999900000001,-9.751583099365234,-0.05985504388809204,2.2864625453948975,2.86865234375,-6.5155029296875,-5.767822265625
10.2499999,-9.734824180603027,-0.33997663855552673,2.2170307636260986,2.1209716796875,-1.7242431640625,-12.0697021484375
10.2699999,-9.718064308166504,-0.751779317855835,2.0422539710998535,2.3193359375,3.6163330078125,-12.176513671875
10.2899999,-9.730035781860352,-1.0055646896362305,1.9273324012756348,5.096435546875,5.4931640625,-4.0130615234375
10.309999900000001,-9.749189376831055,-1.0869675874710083,1.8531121015548706,0.762939453125,8.148193359375,3.4332275390625
10.3299999,-9.861717224121094,-1.1276689767837524,1.7310078144073486,-8.4686279296875,9.3231201171875,8.8043212890625
10.3499999,-9.897629737854004,-1.0127472877502441,1.4532804489135742,-8.026123046875,0.91552734375,3.4027099609375
10.3699999,-9.998186111450195,-0.9097966551780701,1.0797849893569946,5.096435546875,-6.4849853515625,-0.6103515625
10.389999900000001,-10.029311180114746,-0.9744400978088379,0.6799532771110535,14.83154296875,-9.246826171875,-2.0599365234375
10.4099999,-10.041281700134277,-0.9097966551780701,0.42616790533065796,13.7176513671875,-6.683349609375,1.556396484375
10.4299999,-10.010157585144043,-0.8523358106613159,0.4189853072166443,8.148193359375,-11.0931396484375,4.1351318359375
10.4499999,-10.070012092590332,-0.8044517636299133,0.5937620401382446,6.5155029296875,-17.4102783203125,11.0931396484375
10.469999900000001,-9.93354320526123,-0.629675030708313,1.0199298858642578,3.4637451171875,-22.8729248046875,11.3983154296875
10.4899999,-9.904812812805176,-0.5386953949928284,1.4915876388549805,-5.1727294921875,-18.1121826171875,6.3934326171875
10.5099999,-9.730035781860352,-0.4165911078453064,1.9991583824157715,-10.0555419921875,-11.8255615234375,0.9765625
10.5299999,-9.655815124511719,-0.3758896589279175,2.434903144836426,-9.246826171875,-3.3416748046875,2.6092529296875
10.549999900000001,-9.579200744628906,-0.3208230137825012,2.5474305152893066,-11.1846923828125,-0.2288818359375,6.9732666015625
10.569999900000001,-9.674968719482422,-0.363918662071228,2.4899697303771973,-14.801025390625,1.2054443359375,10.4827880859375
10.5899999,-9.734824180603027,-0.3998316824436188,2.207453966140747,-9.7808837890625,-6.378173828125,11.993408203125
10.6099999,-9.830592155456543,-0.4357447028160095,1.98958158493042,-1.5106201171875,-11.566162109375,8.2244873046875
10.629999900000001,-9.785101890563965,-0.44771572947502136,1.8315643072128296,-3.23486328125,-10.009765625,4.2572021484375
10.649999900000001,-9.832986831665039,-0.45489832758903503,1.7932571172714233,-10.25390625,-0.3814697265625,2.197265625
10.6699999,-9.727641105651855,-0.42616790533065796,1.8195933103561401,-7.7056884765625,0.0152587890625,4.0130615234375
10.6899999,-9.799467086791992,-0.3256114423274994,1.845929503440857,-0.3662109375,-3.6773681640625,8.9111328125
10.709999900000001,-9.81143856048584,-0.2753331959247589,1.8746598958969116,-0.0152587890625,-6.8817138671875,13.0615234375
10.729999900000001,-9.859322547912598,-0.0454898327589035,1.889025092124939,-3.96728515625,-7.87353515625,3.814697265625
10.7499999,-9.80904483795166,-0.038307227194309235,1.9177556037902832,-1.15966796875,-8.4381103515625,-4.21142578125
10.7699999,-9.792284965515137,-0.05746084079146385,2.054224967956543,4.7760009765625,-4.8828125,-6.378173828125
10.7899999,-9.6989107131958,-0.026336219161748886,2.2625205516815186,2.6702880859375,2.25830078125,-1.6632080078125
10.809999900000001,-9.579200744628906,-0.07900865375995636,2.626439332962036,-13.427734375,9.0789794921875,0.3204345703125
10.8299999,-9.624691009521484,0.0071826050989329815,2.849100112915039,-27.496337890625,14.09912109375,4.69970703125
10.8499999,-9.57441234588623,-0.028730420395731926,2.849100112915039,-26.1688232421875,9.1705322265625,0.732421875
10.8699999,-9.720458984375,-0.2825157940387726,2.47560453414917,-11.566162109375,5.9356689453125,-1.983642578125
10.889999900000001,-9.78989028930664,-0.5889736413955688,1.8483237028121948,4.2877197265625,4.180908203125,-3.23486328125
10.9099999,-9.909601211547852,-0.933738648891449,1.256955862045288,17.5018310546875,2.8839111328125,2.2735595703125
10.9299999,-9.931148529052734,-1.0247182846069336,0.8667010068893433,20.93505859375,-6.1798095703125,5.9356689453125
10.9499999,-10.041281700134277,-0.8451532125473022,0.7852981686592102,13.580322265625,-8.85009765625,12.0849609375
10.969999900000001,-9.971850395202637,-0.6033388376235962,0.993593692779541,3.1890869140625,-14.007568359375,10.7574462890625
10.9899999,-9.99100399017334,-0.21787235140800476,1.3958195447921753,-2.8076171875,-13.5345458984375,4.9285888671875
11.0099999,-9.770736694335938,0.021547814831137657,1.8195933103561401,-5.18798828125,-12.51220703125,0.2288818359375
11.0299999,-9.746794700622559,0.0454898327589035,2.2601263523101807,-6.1187744140625,-1.983642578125,0.6561279296875
11.049999900000001,-9.545681953430176,0.07661445438861847,2.6024973392486572,-9.246826171875,1.5411376953125,3.3416748046875
11.069999900000001,-9.555258750915527,0.023942016065120697,2.8203697204589844,-15.80810546875,5.0201416015625,7.080078125
11.0899999,-9.560047149658203,0.004788403399288654,2.846705913543701,-17.27294921875,2.7313232421875,10.80322265625
11.1099999,-9.634267807006836,-0.035913024097681046,2.782062292098999,-14.0380859375,0.5035400390625,4.3182373046875
11.129999900000001,-9.651026725769043,-0.033518824726343155,2.557007312774658,-11.5509033203125,3.4637451171875,-1.953125
11.149999900000001,-9.727641105651855,-0.043095629662275314,2.3319525718688965,-7.1258544921875,8.819580078125,-6.072998046875
11.1699999,-9.785101890563965,0.002394201699644327,2.0614075660705566,2.1209716796875,9.0789794921875,-3.4027099609375
11.1899999,-9.792284965515137,0.016759412363171577,1.8100165128707886,4.638671875,4.82177734375,-4.6234130859375
11.209999900000001,-9.940725326538086,0.0454898327589035,1.5921441316604614,4.08935546875,3.5552978515625,0.3662109375
11.229999900000001,-9.931148529052734,-0.019153613597154617,1.4676456451416016,7.5836181640625,-5.2642822265625,-2.349853515625
11.2499999,-9.947908401489258,-0.15562310814857483,1.4460978507995605,12.4359130859375,-6.1798095703125,-5.8135986328125
11.2699999,-9.861717224121094,-0.29209262132644653,1.556231141090393,13.519287109375,-6.8511962890625,-8.5601806640625
11.2899999,-9.80904483795166,-0.47405192255973816,1.8483237028121948,10.1470947265625,1.129150390625,-3.4027099609375
11.309999900000001,-9.646238327026367,-0.4884171485900879,2.2218191623687744,-5.035400390625,5.1422119140625,2.227783203125
11.3299999,-9.62947940826416,-0.4357447028160095,2.5234885215759277,-22.9644775390625,12.2833251953125,6.8817138671875
11.3499999,-9.648633003234863,-0.40222588181495667,2.5330653190612793,-24.8870849609375,7.75146484375,8.941650390625
11.3699999,-9.734824180603027,-0.3423708379268646,2.3582887649536133,-10.9100341796875,1.3427734375,4.21142578125
11.389999900000001,-9.787496566772461,-0.33997663855552673,1.9728221893310547,2.9449462890625,-2.471923828125,-0.54931640625
11.4099999,-9.931148529052734,-0.3711012601852417,1.558625340461731,11.962890625,-0.0152587890625,-3.326416015625
11.4299999,-9.952696800231934,-0.2537853717803955,1.4077905416488647,16.11328125,-3.2196044921875,-0.091552734375
11.4499999,-9.84495735168457,-0.10773907601833344,1.3982137441635132,5.157470703125,-4.913330078125,0.640869140625
11.469999900000001,-9.90241813659668,0.043095629662275314,1.6160861253738403,-9.1705322265625,-1.9073486328125,5.3558349609375
11.4899999,-9.768342971801758,0.10773907601833344,1.9033904075622559,-11.5203857421875,-6.011962890625,1.64794921875
11.5099999,-9.761159896850586,0.047884032130241394,2.183511972427368,-3.7384033203125,-4.4403076171875,-2.44140625
11.5299999,-9.679757118225098,-0.06703764945268631,2.2888567447662354,2.655029296875,-3.3111572265625,-7.293701171875
11.549999900000001,-9.744400978088379,-0.17477671802043915,2.387019157409668,8.6669921875,5.1422119140625,-5.37109375
11.569999900000001,-9.62947940826416,-0.10773907601833344,2.3965959548950195,8.3770751953125,4.2877197265625,-4.2572021484375
11.5899999,-9.6989107131958,0.05506663769483566,2.434903144836426,-3.0364990234375,8.8348388671875,-2.6702880859375
11.6099999,-9.708487510681152,0.19871874153614044,2.408566951751709,-13.6260986328125,7.7362060546875,-1.0223388671875
11.629999900000001,-9.706093788146973,0.22505496442317963,2.3104045391082764,-12.3443603515625,4.638671875,-6.561279296875
11.649999900000001,-9.773131370544434,0.016759412363171577,2.0925323963165283,-2.2125244140625,3.23486328125,-11.9171142578125
11.6699999,-9.785101890563965,-0.2992752194404602,1.8602946996688843,9.2315673828125,3.2501220703125,-14.312744140625
11.6899999,-9.849745750427246,-0.5147533416748047,1.7262194156646729,14.8773193359375,5.096435546875,-7.3089599609375
11.709999900000001,-9.804255485534668,-0.6727706789970398,1.6496049165725708,7.5531005859375,4.486083984375,-5.1422119140625
11.729999900000001,-9.931148529052734,-0.706289529800415,1.625662922859192,0.18310546875,6.317138671875,1.03759765625
11.7499999,-9.84495735168457,-0.6560112833976746,1.6160861253738403,0.6561279296875,-4.5166015625,2.838134765625
11.7699999,-9.907206535339355,-0.6057330369949341,1.556231141090393,2.9144287109375,-6.744384765625,0.6866455078125
11.7899999,-9.818621635437012,-0.6536170840263367,1.5873557329177856,3.753662109375,-7.2479248046875,-3.1890869140625
11.809999900000001,-9.799467086791992,-0.5650315880775452,1.7094600200653076,3.8909912109375,0.1220703125,-2.0751953125
11.8299999,-9.684545516967773,-0.5722141861915588,1.946485996246338,-0.9765625,0.396728515625,2.349853515625
11.8499999,-9.653421401977539,-0.45489832758903503,2.1523873805999756,-11.383056640625,3.0364990234375,4.1961669921875
11.8699999,-9.720458984375,-0.38546648621559143,2.2840683460235596,-17.2119140625,5.1422119140625,9.2315673828125
11.889999900000001,-9.713275909423828,-0.26815059781074524,2.22660756111145,-12.115478515625,-2.4566650390625,6.6375732421875
11.9099999,-9.856928825378418,-0.2849099934101105,2.1116859912872314,-2.1820068359375,-4.5166015625,1.983642578125
11.9299999,-9.852140426635742,-0.31364041566848755,1.8842366933822632,4.1046142578125,-4.94384765625,-3.570556640625
11.9499999,-9.923966407775879,-0.35673606395721436,1.7717092037200928,9.6588134765625,1.8310546875,-1.220703125
11.969999900000001,-9.75397777557373,-0.3734954595565796,1.824381709098816,6.195068359375,-1.220703125,0.518798828125
11.9899999,-9.727641105651855,-0.17238251864910126,2.0231003761291504,-9.8876953125,4.2266845703125,1.03759765625
12.0099999,-9.653421401977539,-0.10055647045373917,2.2218191623687744,-20.93505859375,7.9345703125,4.425048828125
12.0299999,-9.655815124511719,0.05985504388809204,2.367865562438965,-13.97705078125,2.7313232421875,1.15966796875
12.049999900000001,-9.763554573059082,-0.043095629662275314,2.300827741622925,-2.105712890625,1.9073486328125,-3.7078857421875
12.069999900000001,-9.818621635437012,-0.2298433631658554,2.073378562927246,6.866455078125,0.3509521484375,-8.0413818359375
12.0899999,-9.892841339111328,-0.3974374830722809,1.8986018896102905,12.3138427734375,6.103515625,-4.119873046875
12.1099999,-9.782708168029785,-0.4596867263317108,1.7836803197860718,4.974365234375,4.486083984375,-2.4261474609375
12.129999900000001,-9.80904483795166,-0.4213795065879822,1.7405846118927002,-8.4381103515625,7.87353515625,0.1678466796875
12.149999900000001,-9.77791976928711,-0.40222588181495667,1.647210717201233,-9.2620849609375,0.2593994140625,3.5552978515625
12.1699999,-9.837775230407715,-0.42616790533065796,1.5753847360610962,1.861572265625,-6.500244140625,1.8310546875
12.1899999,-9.837775230407715,-0.5386953949928284,1.4867992401123047,11.16943359375,-8.392333984375,-1.8157958984375
12.209999900000001,-9.847352027893066,-0.524330198764801,1.5418659448623657,14.862060546875,-6.4697265625,-4.9591064453125
12.229999900000001,-9.883264541625977,-0.507570743560791,1.7142484188079834,12.7105712890625,-1.129150390625,-0.030517578125
12.2499999,-9.751583099365234,-0.33997663855552673,2.0254945755004883,-1.922607421875,-0.3204345703125,1.4495849609375
12.2699999,-9.81143856048584,-0.2346317619085312,2.298433542251587,-17.8375244140625,6.16455078125,6.34765625
12.289999900000002,-9.734824180603027,-0.22026655077934265,2.4444799423217773,-22.6898193359375,2.6702880859375,8.331298828125
12.309999900000001,-9.742006301879883,-0.2801215946674347,2.3965959548950195,-15.9759521484375,1.7852783203125,5.279541015625
12.3299999,-9.737217903137207,-0.45489832758903503,2.1499931812286377,-3.1890869140625,-2.227783203125,0.823974609375
12.3499999,-9.758766174316406,-0.5554547905921936,1.9249382019042969,7.7362060546875,-0.518798828125,0.0457763671875
12.3699999,-9.797073364257812,-0.49320554733276367,1.8315643072128296,7.5531005859375,2.5482177734375,4.69970703125
12.389999900000001,-9.730035781860352,-0.2992752194404602,1.8914192914962769,-5.67626953125,5.4473876953125,2.9754638671875
12.4099999,-9.847352027893066,-0.047884032130241394,1.9776105880737305,-15.2130126953125,8.11767578125,3.875732421875
12.4299999,-9.775525093078613,0.17477671802043915,2.1356279850006104,-14.251708984375,0.6256103515625,2.8533935546875
12.4499999,-9.84256362915039,0.20350714027881622,2.123656988143921,-11.3067626953125,3.7384033203125,-2.5482177734375
12.469999900000001,-9.751583099365234,0.09576806426048279,2.1116859912872314,-6.6680908203125,4.4097900390625,-9.552001953125
12.4899999,-9.782708168029785,-0.06224924325942993,2.0661959648132324,0.5950927734375,9.1705322265625,-9.979248046875
12.5099999,-9.6989107131958,-0.2992752194404602,2.006340980529785,1.0986328125,8.85009765625,-3.60107421875
12.5299999,-9.710882186889648,-0.42377370595932007,1.9033904075622559,-5.5694580078125,11.505126953125,-1.068115234375
12.549999900000001,-9.861717224121094,-0.5817909836769104,1.7046716213226318,-2.9144287109375,7.659912109375,2.8228759765625
12.569999900000001,-9.864110946655273,-0.6512228846549988,1.4963760375976562,7.62939453125,-5.706787109375,2.9754638671875
12.5899999,-10.019734382629395,-0.6416460275650024,1.2042834758758545,13.885498046875,-8.026123046875,-0.4119873046875
12.6099999,-9.950302124023438,-0.6200982332229614,1.0462661981582642,16.021728515625,-11.16943359375,-5.2642822265625
12.629999900000001,-9.95748519897461,-0.49559974670410156,1.1228805780410767,17.51708984375,-7.2021484375,-5.2337646484375
12.649999900000001,-9.816226959228516,-0.2753331959247589,1.5538369417190552,6.9580078125,-6.6375732421875,-0.5950927734375
12.6699999,-9.710882186889648,-0.07422025501728058,2.1380221843719482,-20.4925537109375,3.1890869140625,0.640869140625
12.6899999,-9.703699111938477,0.05027823522686958,2.738966703414917,-41.5496826171875,11.9171142578125,5.18798828125
12.709999900000001,-9.615114212036133,-0.0071826050989329815,3.0142998695373535,-44.4183349609375,9.5977783203125,6.9732666015625
12.729999900000001,-9.713275909423828,-0.2992752194404602,2.7916390895843506,-31.036376953125,9.521484375,4.8828125
12.7499999,-9.72285270690918,-0.6703764796257019,2.2385785579681396,-7.171630859375,3.7078857421875,0.640869140625
12.7699999,-9.86650562286377,-0.8882488012313843,1.5682021379470825,14.4500732421875,3.4942626953125,2.8076171875
12.789999900000002,-9.81143856048584,-0.8930372595787048,1.161187767982483,19.8516845703125,-1.983642578125,5.4931640625
12.809999900000001,-9.876082420349121,-0.6272808313369751,1.0295066833496094,10.2386474609375,0.6103515625,3.23486328125
12.8299999,-9.86889934539795,-0.2298433631658554,1.235408067703247,1.15966796875,-0.2288818359375,2.716064453125
12.8499999,-9.84256362915039,0.1604115068912506,1.4915876388549805,-1.5106201171875,-5.4168701171875,-1.251220703125
12.8699999,-9.86889934539795,0.33039984107017517,1.742978811264038,2.3956298828125,-3.4332275390625,-6.866455078125
12.889999900000001,-9.797073364257812,0.304063618183136,1.8602946996688843,11.2457275390625,-3.936767578125,-12.0697021484375
12.9099999,-9.816226959228516,0.011971008032560349,1.922544002532959,19.0582275390625,1.8768310546875,-9.490966796875
12.9299999,-9.6989107131958,-0.2944868206977844,2.0422539710998535,15.7928466796875,0.91552734375,-4.9591064453125
12.9499999,-9.770736694335938,-0.5626373887062073,2.0183119773864746,5.67626953125,6.988525390625,-1.220703125
12.969999900000001,-9.770736694335938,-0.6847416758537292,2.0590133666992188,2.7008056640625,2.62451171875,2.5482177734375
12.9899999,-9.856928825378418,-0.727837324142456,1.8914192914962769,5.126953125,-4.57763671875,2.8076171875
13.0099999,-9.892841339111328,-0.7852981686592102,1.6663644313812256,12.63427734375,-6.0882568359375,-0.1678466796875
13.0299999,-9.895236015319824,-0.7637503147125244,1.4437036514282227,24.4293212890625,-8.2244873046875,-2.838134765625
13.049999900000001,-9.895236015319824,-0.6775590777397156,1.3982137441635132,27.2369384765625,-5.523681640625,-0.1678466796875
13.069999900000001,-9.768342971801758,-0.507570743560791,1.5705963373184204,13.1988525390625,-4.486083984375,3.0059814453125
13.0899999,-9.75637149810791,-0.22266076505184174,1.968033790588379,-6.6070556640625,3.9520263671875,5.18798828125
13.1099999,-9.66299819946289,-0.019153613597154617,2.3726539611816406,-17.974853515625,3.90625,6.1187744140625
13.129999900000001,-9.648633003234863,0.08379705995321274,2.583343744277954,-11.77978515625,4.8065185546875,0.8087158203125
13.149999900000001,-9.703699111938477,-0.090979665517807,2.31758713722229,-0.518798828125,6.8359375,-3.2958984375
13.1699999,-9.799467086791992,-0.2849099934101105,2.051830768585205,6.805419921875,7.87353515625,0.457763671875
13.1899999,-9.813833236694336,-0.3687070608139038,1.8387469053268433,2.0751953125,7.0343017578125,1.6937255859375
13.209999900000001,-9.888052940368652,-0.3998316824436188,1.7477672100067139,-5.18798828125,11.77978515625,5.3253173828125
13.229999900000001,-9.919178009033203,-0.26096799969673157,1.647210717201233,-4.3792724609375,5.0048828125,5.279541015625
13.2499999,-9.90241813659668,-0.17477671802043915,1.534683346748352,3.72314453125,-2.1209716796875,2.349853515625
13.2699999,-9.888052940368652,-0.18914192914962769,1.400607943534851,10.1165771484375,-5.615234375,-3.7384033203125
13.289999900000002,-9.890447616577148,-0.14604631066322327,1.3239935636520386,12.6190185546875,0.7171630859375,-6.1187744140625
13.309999900000001,-9.849745750427246,-0.18914192914962769,1.3670891523361206,11.0015869140625,0.335693359375,-3.997802734375
13.3299999,-9.816226959228516,-0.11971008777618408,1.4963760375976562,4.2877197265625,-1.8157958984375,-5.035400390625
13.3499999,-9.847352027893066,-0.05985504388809204,1.6400281190872192,-1.6937255859375,0.091552734375,-0.7781982421875
13.3699999,-9.876082420349121,-0.040701430290937424,1.7956513166427612,-2.0294189453125,-3.8604736328125,1.0986328125
13.389999900000001,-9.84495735168457,-0.090979665517807,1.9057846069335938,0.4730224609375,-4.8065185546875,-2.1209716796875
13.4099999,-9.835380554199219,-0.24181437492370605,1.9752163887023926,1.3580322265625,-5.157470703125,-6.2103271484375
13.4299999,-9.768342971801758,-0.40701428055763245,1.9967641830444336,3.0364990234375,2.3345947265625,-6.5765380859375
13.4499999,-9.715670585632324,-0.45250412821769714,1.9943699836730957,1.9683837890625,3.1280517578125,-2.3956298828125
13.469999900000001,-9.66539192199707,-0.4381389021873474,1.9752163887023926,-5.828857421875,3.8604736328125,-0.1678466796875
13.4899999,-9.737217903137207,-0.3016694188117981,1.8818424940109253,-10.9710693359375,4.1656494140625,3.2501220703125
13.5099999,-9.813833236694336,-0.19153612852096558,1.8698714971542358,-7.7362060546875,-2.6397705078125,2.5482177734375
13.5299999,-9.904812812805176,-0.22266076505184174,1.6974890232086182,-1.068115234375,-5.0811767578125,-2.288818359375
13.549999900000001,-9.90241813659668,-0.2777273952960968,1.5873557329177856,9.002685546875,-8.7127685546875,-6.591796875
13.569999900000001,-9.883264541625977,-0.38307225704193115,1.5466543436050415,17.3492431640625,-4.0283203125,-7.781982421875
13.5899999,-9.804255485534668,-0.4189853072166443,1.5921441316604614,14.923095703125,-2.410888671875,-5.0506591796875
13.6099999,-9.737217903137207,-0.30885201692581177,1.8507179021835327,1.708984375,0.579833984375,-3.11279296875
13.629999900000001,-9.708487510681152,-0.2106897532939911,2.1763293743133545,-12.451171875,4.4097900390625,1.15966796875
13.649999900000001,-9.670180320739746,-0.11971008777618408,2.456450939178467,-19.317626953125,4.0435791015625,2.7313232421875
13.6699999,-9.643844604492188,-0.11252748221158981,2.5689783096313477,-18.951416015625,7.171630859375,-1.434326171875
13.6899999,-9.667786598205566,-0.26815059781074524,2.5761611461639404,-13.0462646484375,8.72802734375,-6.4697265625
13.709999900000001,-9.648633003234863,-0.38307225704193115,2.5282769203186035,-9.6893310546875,14.2822265625,-6.561279296875
13.729999900000001,-9.691728591918945,-0.5171475410461426,2.4181437492370605,-12.20703125,20.0958251953125,-0.48828125
13.7499999,-9.670180320739746,-0.6009446382522583,2.2888567447662354,-18.9208984375,21.7437744140625,1.8768310546875
13.7699999,-9.780313491821289,-0.6823474764823914,1.9752163887023926,-20.355224609375,22.3236083984375,7.5225830078125
13.789999900000002,-9.859322547912598,-0.7709329724311829,1.4963760375976562,-11.1083984375,10.3607177734375,10.8642578125
13.809999900000001,-10.029311180114746,-0.8523358106613159,0.9074024558067322,2.471923828125,2.3956298828125,7.476806640625
13.8299999,-10.139444351196289,-0.768538773059845,0.4596867263317108,14.5416259765625,-5.8746337890625,0.9613037109375
13.8499999,-10.091560363769531,-0.5626373887062073,0.2968810200691223,15.960693359375,-4.7149658203125,-2.960205078125
13.8699999,-10.127472877502441,-0.19153612852096558,0.48602294921875,4.5166015625,-3.0517578125,-2.99072265625
13.889999900000001,-9.952696800231934,0.10534487664699554,0.9648633003234863,-10.9710693359375,-2.6092529296875,-3.631591796875
13.9099999,-9.914389610290527,0.29209262132644653,1.3742717504501343,-21.484375,1.007080078125,-0.6256103515625
13.9299999,-9.80904483795166,0.1843535304069519,1.7262194156646729,-18.9208984375,-4.486083984375,0.030517578125
13.9499999,-9.787496566772461,-0.009576806798577309,1.7573440074920654,-7.2021484375,-6.34765625,-3.7689208984375
13.969999900000001,-9.806650161743164,-0.40701428055763245,1.6184803247451782,9.9639892578125,-9.8724365234375,-8.48388671875
13.9899999,-9.818621635437012,-0.6177040338516235,1.5705963373184204,25.32958984375,-9.4451904296875,-10.772705078125
14.0099999,-9.818621635437012,-0.7493851184844971,1.6831238269805908,22.9949951171875,-2.044677734375,-4.4403076171875
14.0299999,-9.773131370544434,-0.5985504388809204,2.008735179901123,1.5869140625,2.6397705078125,-1.4495849609375
14.049999900000001,-9.715670585632324,-0.4596867263317108,2.3511061668395996,-19.287109375,11.383056640625,1.1749267578125
14.069999900000001,-9.718064308166504,-0.2777273952960968,2.52109432220459,-24.3988037109375,7.904052734375,2.2430419921875
14.0899999,-9.746794700622559,-0.3208230137825012,2.3271639347076416,-19.195556640625,4.8828125,-0.5340576171875
14.1099999,-9.81143856048584,-0.44532153010368347,1.8938134908676147,-3.4942626953125,1.8157958984375,-4.6844482421875
14.129999900000001,-9.885659217834473,-0.6703764796257019,1.3263877630233765,15.869140625,-0.5340576171875,-6.5765380859375
14.149999900000001,-9.96945571899414,-0.730231523513794,1.0079588890075684,24.4598388671875,-1.89208984375,-4.8675537109375
14.1699999,-9.943120002746582,-0.8068459630012512,0.9217676520347595,16.7236328125,-5.767822265625,-0.1983642578125
14.1899999,-9.971850395202637,-0.7206547260284424,1.0893617868423462,0.2899169921875,-0.5340576171875,4.9285888671875
14.209999900000001,-9.890447616577148,-0.6320692300796509,1.455674648284912,-6.28662109375,-2.8839111328125,5.6304931640625
14.229999900000001,-9.873687744140625,-0.569819986820221,1.721431016921997,-5.2337646484375,-6.3934326171875,3.7078857421875
14.2499999,-9.828198432922363,-0.5123591423034668,1.8555063009262085,-2.50244140625,-5.584716796875,0.5645751953125
14.2699999,-9.782708168029785,-0.5554547905921936,1.8579005002975464,5.8135986328125,-3.8909912109375,-2.1209716796875
14.289999900000002,-9.797073364257812,-0.49559974670410156,1.8962076902389526,10.2691650390625,2.13623046875,1.1749267578125
14.309999900000001,-9.658209800720215,-0.4572925269603729,2.0183119773864746,-3.0059814453125,1.9378662109375,2.960205078125
14.3299999,-9.710882186889648,-0.2513911724090576,2.2026655673980713,-25.2685546875,9.9945068359375,5.218505859375
14.3499999,-9.679757118225098,-0.15801730751991272,2.293645143508911,-34.7137451171875,11.4593505859375,6.0882568359375
14.3699999,-9.797073364257812,-0.10773907601833344,2.099714994430542,-23.956298828125,3.662109375,3.7841796875
14.389999900000001,-9.895236015319824,-0.31842881441116333,1.6352397203445435,-1.251220703125,-1.6326904296875,-0.3204345703125
14.4099999,-9.962273597717285,-0.524330198764801,1.039083480834961,21.5911865234375,-7.2784423828125,-3.9520263671875
14.4299999,-10.050858497619629,-0.7829039692878723,0.6847416758537292,34.515380859375,-5.828857421875,-3.082275390625
14.4499999,-9.921571731567383,-0.6799532771110535,0.7493851184844971,28.9459228515625,-10.2081298828125,0.1068115234375
14.469999900000001,-9.90241813659668,-0.5051765441894531,1.1516109704971313,4.0435791015625,-5.37109375,2.44140625
14.4899999,-9.849745750427246,-0.14604631066322327,1.7621324062347412,-17.730712890625,-0.274658203125,2.8839111328125
14.5099999,-9.746794700622559,-0.016759412363171577,2.2697031497955322,-21.2249755859375,-2.716064453125,0.640869140625
14.5299999,-9.830592155456543,-0.040701430290937424,2.4588451385498047,-14.7705078125,0.335693359375,-1.190185546875
14.549999900000001,-9.701305389404297,-0.363918662071228,2.3774423599243164,-1.40380859375,-0.67138671875,-3.936767578125
14.569999900000001,-9.739612579345703,-0.6129156351089478,2.190694570541382,10.68115234375,5.6304931640625,-2.38037109375
14.5899999,-9.68933391571045,-0.727837324142456,1.9823989868164062,8.7738037109375,6.6070556640625,2.7313232421875
14.6099999,-9.694122314453125,-0.6200982332229614,1.9033904075622559,-4.547119140625,6.8511962890625,4.4097900390625
14.629999900000001,-9.806650161743164,-0.4596867263317108,1.7884687185287476,-13.0462646484375,7.293701171875,5.9967041015625
14.649999900000001,-9.806650161743164,-0.22744916379451752,1.7621324062347412,-13.4735107421875,-0.1373291015625,3.3416748046875
14.6699999,-9.95748519897461,-0.1604115068912506,1.5945383310317993,-9.3841552734375,0.3662109375,-0.1678466796875
14.6899999,-9.928754806518555,-0.2298433631658554,1.4508862495422363,0.3662109375,-2.7923583984375,-5.279541015625
14.709999900000001,-9.93354320526123,-0.3064578175544739,1.3455413579940796,8.9569091796875,0.244140625,-7.75146484375
14.729999900000001,-9.928754806518555,-0.3687070608139038,1.4317326545715332,7.843017578125,2.3040771484375,-2.8228759765625
14.7499999,-9.792284965515137,-0.38546648621559143,1.6280571222305298,-5.4168701171875,3.3416748046875,-0.152587890625
14.7699999,-9.813833236694336,-0.37828385829925537,1.8124107122421265,-13.7176513671875,8.36181640625,3.0059814453125
14.789999900000002,-9.749189376831055,-0.3878606855869293,1.98958158493042,-7.4005126953125,0.8087158203125,2.0294189453125
14.809999900000001,-9.751583099365234,-0.524330198764801,1.8722656965255737,-3.082275390625,0.030517578125,1.3275146484375
14.8299999,-9.81143856048584,-0.6344634294509888,1.6615760326385498,3.875732421875,-2.1514892578125,-2.5177001953125
14.8499999,-9.818621635437012,-0.7637503147125244,1.3694833517074585,15.9912109375,-2.3040771484375,-5.9661865234375
14.8699999,-9.885659217834473,-0.6847416758537292,1.1540051698684692,21.148681640625,-3.0670166015625,-2.2125244140625
14.889999900000001,-9.876082420349121,-0.4692635238170624,1.2186486721038818,9.5977783203125,-7.6446533203125,1.46484375
14.9099999,-9.923966407775879,-0.2777273952960968,1.3694833517074585,-11.1846923828125,-1.8157958984375,2.3651123046875
14.9299999,-9.847352027893066,-0.11252748221158981,1.7286136150360107,-16.4031982421875,-3.72314453125,1.007080078125
14.9499999,-9.861717224121094,-0.181959331035614,1.9297266006469727,-8.85009765625,-6.3018798828125,-0.0457763671875
14.969999900000001,-9.84495735168457,-0.43095630407333374,1.9297266006469727,2.2125244140625,-6.65283203125,-1.800537109375
14.9899999,-9.792284965515137,-0.6631938815116882,1.8842366933822632,16.204833984375,-7.3394775390625,-4.1961669921875
15.0099999,-9.81143856048584,-0.7398083209991455,1.9177556037902832,18.646240234375,-0.457763671875,0.1983642578125
15.0299999,-9.68933391571045,-0.6775590777397156,2.0685901641845703,1.1749267578125,2.2735595703125,4.5166015625
15.049999900000001,-9.703699111938477,-0.38307225704193115,2.279279947280884,-18.6309814453125,8.8348388671875,5.9814453125
15.069999900000001,-9.68933391571045,-0.181959331035614,2.3989901542663574,-21.17919921875,7.7667236328125,3.6163330078125
15.0899999,-9.78989028930664,-0.0454898327589035,2.27209734916687,-11.444091796875,0.885009765625,0.1373291015625
15.1099999,-9.890447616577148,-0.0694318488240242,1.9560627937316895,1.1749267578125,0.701904296875,-3.448486328125
15.129999900000001,-9.9000244140625,-0.30885201692581177,1.5514427423477173,15.56396484375,-2.4871826171875,-7.293701171875
15.149999900000001,-9.947908401489258,-0.49799394607543945,1.3192051649093628,22.918701171875,1.2969970703125,-5.1116943359375
15.1699999,-9.816226959228516,-0.5793967843055725,1.3742717504501343,13.092041015625,-0.244140625,0.1373291015625
15.1899999,-9.799467086791992,-0.5554547905921936,1.5514427423477173,-6.7138671875,3.7689208984375,2.2125244140625
15.209999900000001,-9.801861763000488,-0.35673606395721436,1.8698714971542358,-15.0146484375,5.8746337890625,1.953125
15.229999900000001,-9.770736694335938,-0.2849099934101105,2.0470423698425293,-9.246826171875,-0.8697509765625,-0.67138671875
15.2499999,-9.897629737854004,-0.24899697303771973,1.968033790588379,-3.6468505859375,0.2899169921875,-2.2430419921875
15.2699999,-9.818621635437012,-0.4381389021873474,1.7621324062347412,4.364013671875,-2.50244140625,-5.7373046875
15.289999900000002,-9.914389610290527,-0.6177040338516235,1.53707754611969,13.0462646484375,2.0751953125,-4.638671875
15.309999900000001,-9.806650161743164,-0.6440402865409851,1.4197616577148438,12.8021240234375,-1.28173828125,0.5035400390625
15.3299999,-9.78989028930664,-0.6129156351089478,1.50355863571167,1.7242431640625,-2.6397705078125,2.5787353515625
15.3499999,-9.840168952941895,-0.45489832758903503,1.6424223184585571,-8.1939697265625,1.3885498046875,3.8604736328125
15.3699999,-9.787496566772461,-0.31842881441116333,1.8722656965255737,-7.26318359375,-4.2266845703125,1.9683837890625
15.389999900000001,-9.873687744140625,-0.3208230137825012,1.9297266006469727,-4.8675537109375,-2.9449462890625,0.1678466796875
15.4099999,-9.806650161743164,-0.40701428055763245,1.9488801956176758,0.274658203125,-3.72314453125,-3.173828125
15.4299999,-9.792284965515137,-0.4812345504760742,1.9536685943603516,5.5084228515625,3.997802734375,-3.570556640625
15.4499999,-9.780313491821289,-0.47644615173339844,1.9752163887023926,1.4190673828125,6.6070556640625,1.251220703125
15.469999900000001,-9.725247383117676,-0.3663128614425659,2.0231003761291504,-8.2855224609375,4.6234130859375,1.52587890625
15.4899999,-9.835380554199219,-0.24181437492370605,1.9919757843017578,-11.505126953125,6.256103515625,3.173828125
15.5099999,-9.816226959228516,-0.17717093229293823,1.941697597503662,-5.828857421875,0,0.274658203125
15.5299999,-9.871294021606445,-0.2825157940387726,1.6759412288665771,3.41796875,-2.3651123046875,-2.3956298828125
15.549999900000001,-9.854534149169922,-0.4572925269603729,1.4987702369689941,13.702392578125,-6.317138671875,-5.2032470703125
15.569999900000001,-9.799467086791992,-0.5650315880775452,1.4700398445129395,16.632080078125,-3.0670166015625,-6.591796875
15.5899999,-9.77791976928711,-0.5746083855628967,1.6927006244659424,4.0130615234375,5.828857421875,-1.3885498046875
15.6099999,-9.682151794433594,-0.3998316824436188,2.0207061767578125,-17.8070068359375,7.5225830078125,2.5787353515625
15.629999900000001,-9.720458984375,-0.2801215946674347,2.363077163696289,-33.63037109375,13.397216796875,4.730224609375
15.649999900000001,-9.715670585632324,-0.26575639843940735,2.3343467712402344,-29.0679931640625,9.6893310546875,4.913330078125
15.6699999,-9.816226959228516,-0.47884035110473633,1.9919757843017578,-11.0931396484375,1.9989013671875,2.197265625
15.6899999,-9.93593692779541,-0.7422025203704834,1.4053963422775269,12.8326416015625,-4.119873046875,-0.823974609375
15.709999900000001,-9.971850395202637,-0.9768342971801758,0.8547300100326538,31.494140625,-12.4969482421875,-2.86865234375
15.729999900000001,-10.08198356628418,-0.9624691009521484,0.6248866319656372,31.2957763671875,-8.3465576171875,-1.861572265625
15.7499999,-9.95748519897461,-0.6799532771110535,0.8355764150619507,16.6015625,-9.70458984375,2.9144287109375
15.7699999,-9.873687744140625,-0.2825157940387726,1.4221558570861816,-7.4310302734375,-6.1187744140625,3.41796875
15.789999900000002,-9.792284965515137,0.035913024097681046,2.056619167327881,-23.193359375,1.922607421875,3.692626953125
15.809999900000001,-9.658209800720215,0.17477671802043915,2.537853717803955,-21.42333984375,0.67138671875,2.4261474609375
15.8299999,-9.694122314453125,0.047884032130241394,2.6384103298187256,-13.7481689453125,3.1585693359375,0
15.8499999,-9.66539192199707,-0.24181437492370605,2.6001031398773193,-6.6986083984375,0.9613037109375,-1.251220703125
15.869999900000002,-9.66539192199707,-0.3974374830722809,2.4636335372924805,-10.589599609375,8.544921875,-1.983642578125
15.889999900000001,-9.612719535827637,-0.42856210470199585,2.449268341064453,-24.8260498046875,16.8914794921875,1.983642578125
15.9099999,-9.485827445983887,-0.10295066982507706,2.7222073078155518,-48.3245849609375,18.6920166015625,4.8675537109375
15.9299999,-9.224859237670898,0.5410895943641663,3.5194764137268066,-97.076416015625,29.5562744140625,4.4708251953125
15.9499999,-9.172186851501465,0.8619126081466675,3.928884983062744,-178.5125732421875,60.7757568359375,5.2337646484375
15.969999900000001,-9.38048267364502,0.7445967197418213,3.6727054119110107,-199.371337890625,74.798583984375,5.4473876953125
15.9899999,-9.725247383117676,0.14844051003456116,2.5737667083740234,-125.946044921875,54.718017578125,19.2108154296875
16.0099999,-10.278307914733887,-0.8451532125473022,0.5530605912208557,-61.6912841796875,28.3660888671875,23.223876953125
16.0299999,-10.508151054382324,-1.1037269830703735,-0.7015010714530945,-26.580810546875,11.5814208984375,15.8538818359375
16.0499999,-10.553641319274902,-1.1276689767837524,-1.8483237028121948,-51.9561767578125,21.270751953125,12.725830078125
16.0699999,-9.90241813659668,-0.6871358752250671,-1.9943699836730957,-45.257568359375,13.641357421875,8.056640625
16.089999900000002,-9.59835433959961,-0.40462008118629456,-2.032677173614502,18.4478759765625,-23.4832763671875,4.9896240234375
16.109999900000002,-8.925583839416504,-0.3495534360408783,-1.6304513216018677,51.361083984375,-38.4521484375,0.732421875
16.1299999,-8.832210540771484,-0.3519476354122162,-0.6248866319656372,32.4554443359375,-33.8287353515625,9.82666015625
16.1499999,-8.911218643188477,-0.22266076505184174,1.0247182846069336,-1.8768310546875,-13.671875,4.7760009765625
16.1699999,-9.330204010009766,-0.07661445438861847,2.4229321479797363,-54.6112060546875,26.2908935546875,2.7008056640625
16.1899999,-10.038887977600098,-0.26336219906806946,2.6839001178741455,-72.967529296875,46.7376708984375,-0.1068115234375
16.2099999,-10.824186325073242,-0.5315127968788147,1.9153614044189453,-2.716064453125,14.2059326171875,-0.9765625
16.2299999,-11.520898818969727,-0.7589619159698486,0.5410895943641663,59.814453125,-19.2718505859375,-3.082275390625
16.249999900000002,-11.78665542602539,-0.7015010714530945,-0.3447650372982025,41.32080078125,-19.71435546875,-7.4462890625
16.269999900000002,-11.453861236572266,-0.38067805767059326,-0.2537853717803955,-16.387939453125,-1.3885498046875,-9.5367431640625
16.2899999,-10.740388870239258,-0.17956513166427612,0.47165772318840027,-40.252685546875,12.359619140625,-6.2408447265625
16.3099999,-9.931148529052734,-0.2992752194404602,0.9792284965515137,-16.05224609375,13.5955810546875,-0.274658203125
16.3299999,-9.27034854888916,-0.6560112833976746,1.213860273361206,17.6849365234375,4.9591064453125,0.6866455078125
16.3499999,-8.9064302444458,-0.7972691655158997,1.1755530834197998,22.7203369140625,3.875732421875,0.396728515625
16.3699999,-8.889671325683594,-0.7733271718025208,1.137245774269104,0.091552734375,12.8173828125,0.213623046875
16.3899999,-9.191340446472168,-0.5482721924781799,1.0749965906143188,-19.0277099609375,19.500732421875,0.579833984375
16.4099999,-9.732429504394531,-0.33039984107017517,0.8307880163192749,-13.3056640625,13.6871337890625,-0.67138671875
16.429999900000002,-10.285490036010742,-0.26575639843940735,0.3711012601852417,8.3160400390625,2.74658203125,-6.072998046875
16.4499999,-10.673351287841797,-0.21547815203666687,-0.004788403399288654,18.0206298828125,-4.2724609375,-8.30078125
16.4699999,-10.771512985229492,-0.21547815203666687,-0.07182604819536209,1.64794921875,-5.0506591796875,-6.53076171875
16.4899999,-10.673351287841797,-0.33758243918418884,0.1604115068912506,-22.552490234375,0.1220703125,-2.8839111328125
16.5099999,-10.522516250610352,-0.5746083855628967,0.4165911078453064,-27.679443359375,4.2877197265625,2.1514892578125
16.5299999,-10.350133895874023,-0.9193734526634216,0.47884035110473633,-11.65771484375,0.8697509765625,5.218505859375
16.5499999,-10.189722061157227,-1.1492167711257935,0.3734954595565796,6.34765625,-7.904052734375,6.8359375
16.5699999,-9.979032516479492,-1.161187767982483,0.2968810200691223,12.7105712890625,-10.101318359375,5.4168701171875
16.589999900000002,-9.72285270690918,-0.8882488012313843,0.4884171485900879,6.3018798828125,-3.3721923828125,2.9754638671875
16.609999900000002,-9.433155059814453,-0.5339069962501526,0.912190854549408,-6.2713623046875,5.4931640625,2.5482177734375
16.6299999,-9.251194953918457,-0.3423708379268646,1.2545616626739502,-12.87841796875,12.8173828125,5.828857421875
16.6499999,-9.210494041442871,-0.2825157940387726,1.3024457693099976,-5.92041015625,13.6260986328125,6.40869140625
16.6699999,-9.399636268615723,-0.38067805767059326,0.9217676520347595,6.04248046875,7.9498291015625,4.3487548828125
16.6899999,-9.804255485534668,-0.5315127968788147,0.11252748221158981,24.8260498046875,-2.0294189453125,-0.42724609375
16.7099999,-10.273519515991211,-0.5267243981361389,-0.6129156351089478,63.1256103515625,-18.524169921875,-4.852294921875
16.7299999,-10.740388870239258,-0.5219359993934631,-1.161187767982483,84.3505859375,-26.6876220703125,-5.035400390625
16.749999900000002,-11.12106704711914,-0.3064578175544739,-1.1252747774124146,77.8045654296875,-29.5867919921875,-8.0413818359375
16.769999900000002,-11.168951034545898,-0.38546648621559143,-0.6703764796257019,58.53271484375,-21.8658447265625,-12.237548828125
16.7899999,-10.884040832519531,-0.3256114423274994,-0.0933738648891449,61.8133544921875,-11.1846923828125,-19.59228515625
16.8099999,-10.852916717529297,-0.4620809257030487,0.4596867263317108,79.77294921875,-4.33349609375,-18.310546875
16.8299999,-10.27591323852539,-0.4644751250743866,0.912190854549408,82.9315185546875,-6.9427490234375,-23.4832763671875
16.8499999,-10.06043529510498,-0.3926490843296051,1.2737152576446533,55.9539794921875,-13.397216796875,-13.580322265625
16.8699999,-9.5624418258667,-0.26336219906806946,1.8267759084701538,35.7513427734375,-19.0277099609375,-5.67626953125
16.8899999,-9.023746490478516,-0.20350714027881622,2.4827871322631836,22.1405029296875,-8.3770751953125,0.244140625
16.9099999,-8.616731643676758,-0.181959331035614,2.9927520751953125,-0.823974609375,6.103515625,-0.9613037109375
16.929999900000002,-8.518569946289062,-0.10773907601833344,3.2968156337738037,-16.0980224609375,17.8375244140625,0.518798828125
16.9499999,-8.741230010986328,-0.06464344263076782,3.138798475265503,-26.0009765625,24.59716796875,-2.4871826171875
16.9699999,-9.428366661071777,-0.05267243832349777,2.652775526046753,-29.6630859375,23.681640625,-5.096435546875
16.9899999,-12.0021333694458,-0.49799394607543945,1.1971008777618408,-29.4189453125,7.1258544921875,-19.6990966796875
17.0099999,-13.144166946411133,-0.9050082564353943,0.4405331015586853,-10.1776123046875,-6.89697265625,-27.6947021484375
17.0299999,-13.46259593963623,-1.2761094570159912,-0.21308395266532898,18.402099609375,-10.8642578125,-24.261474609375
17.0499999,-12.871228218078613,-1.403002142906189,-0.6392518281936646,38.0401611328125,-7.720947265625,-16.8304443359375
17.0699999,-11.647790908813477,-1.2880805730819702,-0.7613561153411865,37.841796875,-4.0283203125,-13.916015625
17.089999900000002,-10.170568466186523,-0.9792284965515137,-0.5363011956214905,24.6429443359375,-3.23486328125,-15.045166015625
17.109999900000002,-8.688557624816895,-0.6512228846549988,-0.1364694982767105,13.9312744140625,6.500244140625,-11.077880859375
17.1299999,-7.41484260559082,-0.4884171485900879,0.2801215946674347,8.2855224609375,23.49853515625,-0.5035400390625
17.1499999,-6.361393928527832,-0.47884035110473633,0.5363011956214905,1.5411376953125,37.0635986328125,12.14599609375
17.1699999,-5.901707172393799,-0.569819986820221,0.545877993106842,-2.5177001953125,41.1224365234375,24.2462158203125
17.1899999,-6.074089527130127,-0.6703764796257019,0.3519476354122162,5.9356689453125,35.186767578125,24.1546630859375
17.2099999,-6.835445880889893,-0.7805097699165344,0.08858546614646912,16.7083740234375,15.1519775390625,8.97216796875
17.2299999,-7.9415669441223145,-0.912190854549408,-0.10773907601833344,24.3988037109375,-6.2103271484375,-0.640869140625
17.249999900000002,-9.011775016784668,-1.0438719987869263,-0.038307227194309235,29.296875,-14.7552490234375,0.4425048828125
17.269999900000002,-9.837775230407715,-1.1540051698684692,0.2537853717803955,29.78515625,-2.349853515625,-0.7781982421875
17.2899999,-10.362105369567871,-1.1899182796478271,0.7086837291717529,25.4058837890625,10.2081298828125,-5.035400390625
17.3099999,-10.687716484069824,-1.1276689767837524,1.1540051698684692,16.7694091796875,7.965087890625,-3.9215087890625
17.3299999,-10.855310440063477,-1.0223240852355957,1.4748282432556152,10.2691650390625,-0.3662109375,0.0457763671875
17.3499999,-10.924742698669434,-0.9193734526634216,1.6089035272598267,8.1939697265625,-0.54931640625,-1.6632080078125
17.3699999,-10.886435508728027,-0.8547300100326538,1.5753847360610962,7.7667236328125,0.67138671875,-0.6103515625
17.3899999,-10.793061256408691,-0.8188169598579407,1.3982137441635132,6.77490234375,-1.64794921875,6.378173828125
17.409999900000003,-10.654197692871094,-0.7852981686592102,1.1516109704971313,5.9356689453125,-3.3416748046875,6.28662109375
17.429999900000002,-10.505757331848145,-0.7637503147125244,0.8643068075180054,6.53076171875,1.373291015625,-3.204345703125
17.4499999,-10.38844108581543,-0.7445967197418213,0.6105214357376099,9.2010498046875,6.04248046875,-8.8043212890625
17.4699999,-10.292673110961914,-0.7589619159698486,0.37828385829925537,12.0697021484375,1.373291015625,-7.01904296875
17.4899999,-10.177751541137695,-0.7948749661445618,0.2585737705230713,17.39501953125,-9.124755859375,-5.9814453125
17.5099999,-10.02452278137207,-0.8595184087753296,0.22505496442317963,21.8658447265625,-11.810302734375,-4.57763671875
17.5299999,-9.835380554199219,-0.8643068075180054,0.33279404044151306,21.54541015625,-9.5062255859375,2.7008056640625
17.5499999,-9.641449928283691,-0.8140285611152649,0.545877993106842,14.46533203125,-7.32421875,8.056640625
17.5699999,-9.514557838439941,-0.6751648783683777,0.8212111592292786,3.6468505859375,-3.1280517578125,6.134033203125
17.589999900000002,-9.466673851013184,-0.5530605912208557,1.0582371950149536,-5.615234375,5.4168701171875,0.732421875
17.609999900000002,-9.557653427124023,-0.47405192255973816,1.1563993692398071,-8.209228515625,13.12255859375,1.03759765625
17.6299999,-9.737217903137207,-0.4884171485900879,1.1109095811843872,-5.37109375,6.89697265625,6.28662109375
17.6499999,-9.96945571899414,-0.5770025849342346,0.9385270476341248,-2.166748046875,-5.4473876953125,9.5062255859375
17.6699999,-10.201693534851074,-0.6727706789970398,0.7206547260284424,0.67138671875,-11.90185546875,9.1552734375
17.6899999,-10.307038307189941,-0.7661445140838623,0.5410895943641663,5.2337646484375,-15.228271484375,8.36181640625
17.7099999,-10.290278434753418,-0.7876923680305481,0.42377370595932007,10.589599609375,-16.29638671875,9.5672607421875
17.7299999,-10.158597946166992,-0.790086567401886,0.38067805767059326,15.106201171875,-14.1448974609375,8.1939697265625
17.749999900000002,-10.02452278137207,-0.7110779285430908,0.4118026793003082,17.333984375,-17.1966552734375,5.279541015625
17.769999900000002,-9.892841339111328,-0.5937620401382446,0.5554547905921936,15.3656005859375,-26.123046875,1.0528564453125
17.7899999,-9.80904483795166,-0.4692635238170624,0.7876923680305481,10.1776123046875,-17.1966552734375,-7.75146484375
17.8099999,-9.641449928283691,-0.363918662071228,1.1109095811843872,2.8533935546875,1.64794921875,-11.16943359375
17.8299999,-9.612719535827637,-0.35913026332855225,1.2952631711959839,-5.126953125,27.2979736328125,-5.1422119140625
17.8499999,-9.670180320739746,-0.33997663855552673,1.4077905416488647,-9.1400146484375,27.9388427734375,-1.617431640625
17.8699999,-9.849745750427246,-0.45250412821769714,1.280897855758667,-11.871337890625,12.3138427734375,-10.345458984375
17.8899999,-10.086771965026855,-0.5434837937355042,1.070208191871643,-10.6048583984375,9.185791015625,-15.93017578125
17.909999900000003,-10.192116737365723,-0.6823474764823914,0.8355764150619507,-7.7362060546875,8.0413818359375,-8.36181640625
17.929999900000002,-10.319009780883789,-0.8690952062606812,0.6584054827690125,-4.4097900390625,-1.1749267578125,6.6986083984375
17.9499999,-10.316615104675293,-1.0558429956436157,0.5195417404174805,0.4730224609375,-2.8533935546875,4.302978515625
17.9699999,-10.33098030090332,-1.1348515748977661,0.4572925269603729,8.331298828125,-5.7830810546875,1.922607421875
17.9899999,-10.378864288330078,-1.137245774269104,0.40940847992897034,14.6484375,-12.542724609375,13.153076171875
18.0099999,-10.230423927307129,-1.0199298858642578,0.35434186458587646,17.6544189453125,-8.5906982421875,5.5389404296875
18.0299999,-10.144232749938965,-0.8475474119186401,0.31364041566848755,21.820068359375,-10.1470947265625,-0.5950927734375
18.0499999,-10.036493301391602,-0.6871358752250671,0.30885201692581177,28.80859375,-14.70947265625,2.197265625
18.0699999,-9.93593692779541,-0.545877993106842,0.35673606395721436,32.1502685546875,-17.8375244140625,2.197265625
18.089999900000002,-9.904812812805176,-0.4884171485900879,0.49559974670410156,28.778076171875,-19.2413330078125,3.814697265625
18.109999900000002,-9.892841339111328,-0.40940847992897034,0.706289529800415,21.484375,-19.500732421875,5.218505859375
18.1299999,-9.84495735168457,-0.395043283700943,0.9074024558067322,13.5040283203125,-19.71435546875,6.2103271484375
18.1499999,-9.81143856048584,-0.3447650372982025,1.1324573755264282,6.4697265625,-19.622802734375,5.0201416015625
18.1699999,-9.780313491821289,-0.35913026332855225,1.3024457693099976,-0.7476806640625,-18.98193359375,4.8675537109375
18.1899999,-9.77791976928711,-0.3687070608139038,1.3718775510787964,-6.65283203125,-18.7835693359375,7.3699951171875
18.2099999,-9.821015357971191,-0.38067805767059326,1.3958195447921753,-4.974365234375,-21.0418701171875,8.7890625
18.2299999,-9.854534149169922,-0.33039984107017517,1.359906554222107,1.3885498046875,-23.74267578125,5.7220458984375
18.249999900000002,-9.861717224121094,-0.26575639843940735,1.3120225667953491,5.9051513671875,-24.8260498046875,1.6937255859375
18.269999900000002,-9.825803756713867,-0.12689268589019775,1.6041151285171509,3.5400390625,-24.627685546875,0.2288818359375
18.2899999,-9.715670585632324,0.08379705995321274,1.9752163887023926,-17.2576904296875,-17.913818359375,1.2359619140625
18.3099999,-9.672574996948242,0.12689268589019775,2.454056739807129,-37.933349609375,-9.765625,1.5106201171875
18.3299999,-9.607931137084961,0.11971008777618408,2.8227639198303223,-41.5191650390625,-6.011962890625,-0.18310546875
18.3499999,-9.624691009521484,-0.16759411990642548,2.918531894683838,-31.9671630859375,-4.0130615234375,-0.18310546875
18.3699999,-9.627084732055664,-0.5291185975074768,2.8203697204589844,-20.6298828125,0.244140625,2.86865234375
18.3899999,-9.641449928283691,-0.8930372595787048,2.5522189140319824,-8.544921875,5.8441162109375,4.0435791015625
18.409999900000003,-9.80904483795166,-0.950498104095459,2.1332337856292725,6.439208984375,3.8909912109375,8.85009765625
18.429999900000002,-9.931148529052734,-0.8882488012313843,1.7812861204147339,17.5628662109375,-9.21630859375,5.3558349609375
18.4499999,-10.019734382629395,-0.33039984107017517,1.7190368175506592,11.77978515625,-10.92529296875,-1.9378662109375
18.4699999,-9.928754806518555,0.2944868206977844,1.8722656965255737,-9.8876953125,1.3580322265625,-11.505126953125
18.4899999,-9.674968719482422,0.8331822156906128,2.1571757793426514,-25.0091552734375,13.519287109375,-18.646240234375
18.5099999,-9.701305389404297,1.0749965906143188,2.2864625453948975,-21.5606689453125,15.2740478515625,-22.918701171875
18.5299999,-9.710882186889648,0.7852981686592102,2.1739351749420166,-6.28662109375,1.3427734375,-21.3623046875
18.5499999,-9.99339771270752,0.12928688526153564,1.8531121015548706,8.2550048828125,-2.9144287109375,-22.369384765625
18.5699999,-9.95748519897461,-0.7326257228851318,1.4413094520568848,24.0325927734375,-3.0670166015625,-20.6451416015625
18.589999900000002,-9.883264541625977,-1.4987702369689941,1.039083480834961,37.6739501953125,-5.4473876953125,-14.129638671875
18.609999900000002,-9.876082420349121,-2.0398597717285156,0.8259995579719543,41.2445068359375,-9.6893310546875,-5.55419921875
18.6299999,-9.852140426635742,-2.212242364883423,0.8834604024887085,31.1431884765625,-20.538330078125,3.5858154296875
18.6499999,-9.938331604003906,-2.0039467811584473,1.3192051649093628,15.2130126953125,-19.10400390625,4.180908203125
18.6699999,-9.768342971801758,-1.4939818382263184,1.9560627937316895,1.2664794921875,-11.23046875,0.5035400390625
18.6899999,-9.569623947143555,-1.0271124839782715,2.4372973442077637,-8.8043212890625,-3.60107421875,-0.06103515625
18.7099999,-9.497797966003418,-0.6177040338516235,2.6360161304473877,-14.3585205078125,-0.396728515625,2.9754638671875
18.7299999,-9.634267807006836,-0.4620809257030487,2.5450363159179688,-9.5367431640625,-8.7738037109375,13.4124755859375
18.749999900000002,-9.832986831665039,-0.5913678407669067,2.31758713722229,-0.7171630859375,-16.7083740234375,10.8489990234375
18.769999900000002,-9.835380554199219,-0.6703764796257019,2.1045033931732178,3.35693359375,-15.4876708984375,6.0882568359375
18.7899999,-9.773131370544434,-0.9026140570640564,2.0470423698425293,2.1514892578125,-8.270263671875,5.4779052734375
18.8099999,-9.617507934570312,-0.7829039692878723,2.145204782485962,-0.396728515625,-6.0882568359375,4.058837890625
18.8299999,-9.619902610778809,-0.5626373887062073,2.583343744277954,-6.500244140625,-7.6446533203125,14.007568359375
18.8499999,-9.583989143371582,-0.15562310814857483,3.095702886581421,-24.3072509765625,-2.471923828125,9.2010498046875
18.8699999,-9.44752025604248,0.20350714027881622,3.469198226928711,-37.8265380859375,10.9100341796875,-0.3814697265625
18.8899999,-9.457097053527832,0.2082955539226532,3.4979286193847656,-30.853271484375,19.1192626953125,-5.2337646484375
18.909999900000003,-9.385271072387695,0.10773907601833344,3.0119056701660156,-8.72802734375,14.09912109375,-8.5906982421875
18.929999900000002,-9.742006301879883,-0.31842881441116333,2.3558945655822754,12.8173828125,4.08935546875,2.349853515625
18.9499999,-9.940725326538086,-0.5626373887062073,1.7980455160140991,23.6053466796875,-5.5389404296875,-3.2196044921875
18.9699999,-9.931148529052734,-0.730231523513794,1.5466543436050415,23.6358642578125,-4.638671875,-9.2010498046875
18.9899999,-9.955090522766113,-0.7589619159698486,1.6543933153152466,14.617919921875,1.3885498046875,-8.5601806640625
19.0099999,-9.583989143371582,-0.7015010714530945,1.9991583824157715,-3.60107421875,5.615234375,-6.7291259765625
19.0299999,-9.667786598205566,-0.7374141216278076,2.410961151123047,-21.453857421875,10.772705078125,5.6915283203125
19.0499999,-9.59596061706543,-0.7589619159698486,2.631227731704712,-25.146484375,5.9051513671875,4.7760009765625
19.0699999,-9.586383819580078,-0.849941611289978,2.583343744277954,-12.725830078125,3.2806396484375,-0.7781982421875
19.089999900000002,-9.720458984375,-0.8858546018600464,2.2457611560821533,0.4730224609375,4.1656494140625,-2.5787353515625
19.109999900000002,-9.588777542114258,-0.8667010068893433,1.7693150043487549,6.683349609375,0.9002685546875,-1.861572265625
19.1299999,-9.895236015319824,-0.8307880163192749,1.4915876388549805,7.2174072265625,-2.6092529296875,6.591796875
19.1499999,-9.895236015319824,-0.6320692300796509,1.5203180313110352,3.5858154296875,-13.5955810546875,4.9591064453125
19.1699999,-9.818621635437012,-0.5746083855628967,1.867477297782898,-6.927490234375,-9.70458984375,-0.7781982421875
19.1899999,-9.715670585632324,-0.42856210470199585,2.3032219409942627,-17.08984375,2.9296875,-6.072998046875
19.2099999,-9.406818389892578,-0.395043283700943,2.669534921646118,-16.082763671875,8.0413818359375,-4.0283203125
19.2299999,-9.57441234588623,-0.4908113479614258,2.8586769104003906,-11.9781494140625,10.2996826171875,2.899169921875
19.249999900000002,-9.586383819580078,-0.586579442024231,2.7269957065582275,-8.8653564453125,1.678466796875,7.50732421875
19.269999900000002,-9.823410034179688,-0.8475474119186401,2.4875755310058594,-2.960205078125,0.0762939453125,1.251220703125
19.2899999,-9.799467086791992,-0.9528923034667969,2.094926595687866,10.4827880859375,0.67138671875,-5.2642822265625
19.3099999,-9.703699111938477,-0.950498104095459,1.800439715385437,19.59228515625,-1.3427734375,-0.6256103515625
19.3299999,-9.825803756713867,-0.8020575642585754,1.6400281190872192,9.7808837890625,1.03759765625,2.5634765625
19.3499999,-9.780313491821289,-0.5722141861915588,1.6855180263519287,-1.52587890625,-6.683349609375,5.4473876953125
19.3699999,-9.916783332824707,-0.3687070608139038,2.0446481704711914,-5.9967041015625,-7.99560546875,-2.2430419921875
19.3899999,-9.68694019317627,-0.15083470940589905,2.434903144836426,-13.1072998046875,0.0152587890625,-9.7808837890625
19.409999900000003,-9.581595420837402,-0.16519992053508759,2.801215887069702,-22.9644775390625,11.1846923828125,-4.6539306640625
19.429999900000002,-9.555258750915527,-0.2753331959247589,2.8443117141723633,-26.4892578125,15.3350830078125,-5.0048828125
19.4499999,-9.600749015808105,-0.6607996821403503,2.647987127304077,-12.02392578125,5.828857421875,6.1187744140625
19.4699999,-9.890447616577148,-1.0893617868423462,2.183511972427368,6.3934326171875,-5.2642822265625,3.021240234375
19.4899999,-9.821015357971191,-1.3407529592514038,1.723825216293335,18.4478759765625,-6.500244140625,-2.01416015625
19.5099999,-9.907206535339355,-1.4413094520568848,1.5490485429763794,21.453857421875,-2.9449462890625,1.7852783203125
19.5299999,-9.708487510681152,-1.1204863786697388,1.5634137392044067,11.4898681640625,-2.5482177734375,-0.8392333984375
19.5499999,-9.734824180603027,-0.7829039692878723,1.8171991109848022,-4.302978515625,-2.532958984375,8.85009765625
19.5699999,-9.794678688049316,-0.38067805767059326,2.1308395862579346,-13.3819580078125,-6.7291259765625,2.2430419921875
19.589999900000002,-9.66299819946289,-0.22505496442317963,2.341529369354248,-10.894775390625,-4.5013427734375,-6.103515625
19.609999900000002,-9.830592155456543,-0.33279404044151306,2.499546527862549,-5.3253173828125,2.7008056640625,-3.6163330078125
19.6299999,-9.526528358459473,-0.49799394607543945,2.497152328491211,-2.1514892578125,2.6092529296875,-2.0599365234375
19.6499999,-9.713275909423828,-0.7924807667732239,2.470816135406494,-2.7313232421875,4.9591064453125,9.185791015625
19.6699999,-9.667786598205566,-0.8379706144332886,2.499546527862549,-3.6163330078125,-2.62451171875,6.4697265625
19.6899999,-9.627084732055664,-0.8834604024887085,2.5043349266052246,-7.7362060546875,-0.0762939453125,0.701904296875
19.7099999,-9.720458984375,-0.7805097699165344,2.5522189140319824,-13.7176513671875,9.5977783203125,-0.2899169921875
19.7299999,-9.481039047241211,-0.6823474764823914,2.5498247146606445,-15.9759521484375,10.4827880859375,1.1444091796875
19.749999900000002,-9.68933391571045,-0.5722141861915588,2.4875755310058594,-17.27294921875,15.655517578125,6.7138671875
19.769999900000002,-9.646238327026367,-0.4812345504760742,2.315192937850952,-15.07568359375,5.37109375,7.2784423828125
19.7899999,-9.813833236694336,-0.5530605912208557,1.9991583824157715,-6.9732666015625,0.457763671875,-0.640869140625
19.8099999,-9.890447616577148,-0.545877993106842,1.6328455209732056,8.026123046875,-0.640869140625,-7.049560546875
19.8299999,-9.794678688049316,-0.6584054827690125,1.4221558570861816,18.37158203125,-3.936767578125,-3.3721923828125
19.8499999,-9.931148529052734,-0.586579442024231,1.37906014919281,9.6588134765625,0.6561279296875,-2.3651123046875
19.8699999,-9.828198432922363,-0.5746083855628967,1.580173134803772,1.3275146484375,-5.157470703125,3.326416015625
19.8899999,-9.964667320251465,-0.5937620401382446,1.944091796875,0.457763671875,-8.575439453125,-2.349853515625
19.909999900000003,-9.708487510681152,-0.5985504388809204,2.3343467712402344,-2.01416015625,-2.7313232421875,-7.8582763671875
19.929999900000002,-9.706093788146973,-0.7541735172271729,2.6192567348480225,-6.4544677734375,7.2784423828125,-0.5035400390625
19.9499999,-9.497797966003418,-0.7589619159698486,2.7222073078155518,-9.6435546875,10.0555419921875,-1.556396484375
19.9699999,-9.576807022094727,-0.8068459630012512,2.626439332962036,-5.767822265625,6.34765625,9.09423828125
19.9899999,-9.725247383117676,-0.8020575642585754,2.343923568725586,-0.4119873046875,-2.044677734375,3.47900390625
20.0099999,-9.706093788146973,-0.7493851184844971,2.0015525817871094,5.462646484375,-3.692626953125,-5.4931640625
20.0299999,-9.911994934082031,-0.7326257228851318,1.845929503440857,9.490966796875,0.4119873046875,-2.1209716796875
20.0499999,-9.677363395690918,-0.6488286852836609,1.7836803197860718,5.706787109375,-0.701904296875,-3.7841796875
