# Time (seconds),Accel_X,Accel_Y,Accel_Z,Gyro_X,Gyro_Y,Gyro_Z
0.0099999,-9.931148529052734,-3.028665065765381,1.6400281190872192,-14.1143798828125,-10.0860595703125,43.6859130859375
0.029999900000000003,-9.888052940368652,-2.7485435009002686,1.7573440074920654,-16.4337158203125,-13.9617919921875,41.07666015625
0.0499999,-9.713275909423828,-2.557007312774658,1.8052281141281128,-18.5394287109375,-9.21630859375,39.031982421875
0.0699999,-9.493009567260742,-2.4205379486083984,1.764526605606079,-19.7906494140625,-6.195068359375,39.12353515625
0.08999990000000001,-9.248801231384277,-2.346317768096924,1.6879122257232666,-19.2718505859375,-9.735107421875,39.031982421875
0.10999990000000001,-9.090784072875977,-2.2864625453948975,1.5849615335464478,-18.1427001953125,-8.3160400390625,39.5660400390625
0.1299999,-8.99740982055664,-2.212242364883423,1.5107412338256836,-17.5323486328125,-0.9765625,40.5120849609375
0.14999990000000002,-9.014169692993164,-2.1068975925445557,1.4652514457702637,-17.5628662109375,4.669189453125,39.4287109375
0.1699999,-9.121908187866211,-1.9728221893310547,1.460463047027588,-17.547607421875,5.06591796875,38.2843017578125
0.1899999,-9.299078941345215,-1.8148049116134644,1.479616641998291,-18.218994140625,4.974365234375,37.8265380859375
0.20999990000000002,-9.545681953430176,-1.6639702320098877,1.479616641998291,-18.707275390625,9.09423828125,36.0870361328125
0.2299999,-9.770736694335938,-1.5322890281677246,1.455674648284912,-16.815185546875,9.7503662109375,31.982421875
0.2499999,-9.967061996459961,-1.4269442558288574,1.4053963422775269,-13.1378173828125,5.889892578125,27.862548828125
0.2699999,-10.125079154968262,-1.3407529592514038,1.3263877630233765,-10.162353515625,2.2735595703125,26.397705078125
0.28999990000000003,-10.228029251098633,-1.2449848651885986,1.2521674633026123,-8.8043212890625,-3.6773681640625,25.69580078125
0.3099999,-10.268731117248535,-1.1516109704971313,1.192312479019165,-7.415771484375,-6.988525390625,21.54541015625
0.3299999,-10.220847129821777,-1.0654197931289673,1.170764684677124,-5.6915283203125,-6.011962890625,17.88330078125
0.34999990000000003,-10.139444351196289,-0.9959878921508789,1.170764684677124,-5.1422119140625,-0.6103515625,18.157958984375
0.3699999,-10.074800491333008,-0.9457096457481384,1.1803414821624756,-4.302978515625,4.8675537109375,17.51708984375
0.3899999,-10.017339706420898,-0.9289502501487732,1.1899182796478271,-2.349853515625,0.91552734375,13.824462890625
0.40999990000000003,-9.986215591430664,-0.9145850539207458,1.194706678390503,-0.762939453125,-4.4403076171875,12.4359130859375
0.4299999,-9.950302124023438,-0.8762778043746948,1.194706678390503,-0.1678466796875,0.640869140625,13.5345458984375
0.4499999,-9.883264541625977,-0.8068459630012512,1.1971008777618408,-0.06103515625,8.4228515625,13.885498046875
0.4699999,-9.804255485534668,-0.7206547260284424,1.2042834758758545,0.30517578125,6.4239501953125,16.265869140625
0.4899999,-9.770736694335938,-0.6105214357376099,1.213860273361206,0.54931640625,-3.3111572265625,22.4761962890625
0.5099999,-9.780313491821289,-0.5123591423034668,1.2330138683319092,-0.1373291015625,-6.134033203125,25.4058837890625
0.5299999,-9.797073364257812,-0.4189853072166443,1.2521674633026123,-1.129150390625,-0.48828125,19.4244384765625
0.5499999,-9.763554573059082,-0.3208230137825012,1.2665326595306396,-2.25830078125,6.3934326171875,9.9334716796875
0.5699999,-9.670180320739746,-0.2106897532939911,1.2425906658172607,-4.0435791015625,16.021728515625,5.3253173828125
0.5899998999999999,-9.916783332824707,-0.13407529890537262,1.2306196689605713,-4.8980712890625,18.2342529296875,5.55419921875
0.6099998999999999,-10.002974510192871,-0.0933738648891449,1.1348515748977661,-5.584716796875,7.1868896484375,-0.42724609375
0.6299999,-10.35252857208252,-0.08140286058187485,1.0319008827209473,-4.852294921875,6.591796875,3.2196044921875
0.6499999,-10.462661743164062,-0.08140286058187485,0.8906430602073669,-2.471923828125,3.5247802734375,3.5247802734375
0.6699999,-10.381258964538574,-0.06703764945268631,0.751779317855835,-0.2593994140625,0.640869140625,-1.7242431640625
0.6899999,-10.228029251098633,-0.06224924325942993,0.6631938815116882,3.41796875,-0.4425048828125,-4.9591064453125
0.7099999,-10.070012092590332,-0.10295066982507706,0.6584054827690125,5.401611328125,-2.7313232421875,-6.16455078125
0.7299998999999999,-9.983820915222168,-0.181959331035614,0.7230489253997803,5.096435546875,-4.1656494140625,-5.4779052734375
0.7499998999999999,-9.931148529052734,-0.3256114423274994,0.8523358106613159,4.2572021484375,-2.716064453125,-3.1585693359375
0.7699999,-9.895236015319824,-0.47644615173339844,0.9792284965515137,4.2572021484375,-1.556396484375,-1.2054443359375
0.7899999,-9.873687744140625,-0.629675030708313,1.1180921792984009,5.5999755859375,-2.2125244140625,1.0833740234375
0.8099999,-9.859322547912598,-0.7326257228851318,1.2401964664459229,3.875732421875,-1.0833740234375,5.2032470703125
0.8299999,-9.854534149169922,-0.768538773059845,1.3287819623947144,0.3662109375,2.38037109375,8.7432861328125
0.8499998999999999,-9.86650562286377,-0.7254431247711182,1.3527239561080933,-1.5106201171875,4.0283203125,8.85009765625
0.8699998999999999,-9.86889934539795,-0.6009446382522583,1.357512354850769,-2.86865234375,3.143310546875,9.1552734375
0.8899999,-9.859322547912598,-0.3974374830722809,1.3623007535934448,-8.9569091796875,4.852294921875,11.16943359375
0.9099999,-9.856928825378418,-0.15083470940589905,1.3527239561080933,-19.0582275390625,9.6588134765625,11.2152099609375
0.9299999,-9.86889934539795,0.05746084079146385,1.2976573705673218,-24.10888671875,11.3525390625,8.7432861328125
0.9499999,-9.895236015319824,0.2082955539226532,1.1420341730117798,-21.2554931640625,8.48388671875,6.2103271484375
0.9699998999999999,-9.950302124023438,0.24181437492370605,0.8523358106613159,-13.0462646484375,3.7994384765625,3.6163330078125
0.9899998999999999,-10.022128105163574,0.181959331035614,0.5219359993934631,-1.9989013671875,-1.678466796875,-0.3662109375
1.0099999,-10.08198356628418,0.043095629662275314,0.2513911724090576,7.6751708984375,-8.1024169921875,-2.227783203125
1.0299999,-10.103530883789062,-0.06224924325942993,0.15801730751991272,11.5814208984375,-13.2293701171875,-0.946044921875
1.0499999,-10.086771965026855,-0.16519992053508759,0.24181437492370605,10.8795166015625,-14.4805908203125,-0.5645751953125
1.0699999,-10.036493301391602,-0.24899697303771973,0.47405192255973816,11.23046875,-13.6260986328125,-1.3427734375
1.0899999,-9.95748519897461,-0.28969839215278625,0.7757213711738586,10.7574462890625,-13.6871337890625,-0.274658203125
1.1099999,-9.885659217834473,-0.2777273952960968,1.1971008777618408,6.28662109375,-12.664794921875,1.9989013671875
1.1299999,-9.787496566772461,-0.14365209639072418,1.7142484188079834,-3.570556640625,-4.2266845703125,3.0517578125
1.1499999,-9.691728591918945,0.12928688526153564,2.233790159225464,-13.00048828125,9.002685546875,-0.2288818359375
1.1699998999999999,-9.605537414550781,0.40701428055763245,2.655169725418091,-18.5546875,19.622802734375,-5.3253173828125
1.1899998999999999,-9.5624418258667,0.5937620401382446,2.7030537128448486,-22.3541259765625,26.580810546875,-7.080078125
1.2099999,-9.593565940856934,0.6248866319656372,2.382230758666992,-23.193359375,28.86962890625,-8.48388671875
1.2299999,-9.746794700622559,0.3064578175544739,1.6615760326385498,-18.310546875,26.1993408203125,-10.3912353515625
1.2499999,-9.926360130310059,-0.10534487664699554,0.8403648138046265,-7.1258544921875,16.937255859375,-9.58251953125
1.2699999,-10.08198356628418,-0.5913678407669067,0.035913024097681046,6.591796875,4.608154296875,-4.852294921875
1.2899999,-10.266336441040039,-1.0342950820922852,-0.5817909836769104,19.8211669921875,-3.8604736328125,0.0152587890625
1.3099999,-10.307038307189941,-1.2976573705673218,-0.8762778043746948,32.440185546875,-11.0015869140625,1.8310546875
1.3299999,-10.319009780883789,-1.3335703611373901,-0.811634361743927,39.9017333984375,-20.4315185546875,2.288818359375
1.3499999,-10.235212326049805,-1.1659762859344482,-0.42856210470199585,37.7197265625,-24.5208740234375,2.7618408203125
1.3699999,-10.103530883789062,-0.8092401623725891,0.14604631066322327,29.2816162109375,-24.1851806640625,5.5389404296875
1.3899999,-9.96945571899414,-0.3447650372982025,0.7972691655158997,20.1263427734375,-18.12744140625,10.7574462890625
1.4099999,-9.797073364257812,0.17956513166427612,1.4891934394836426,9.033203125,-12.0391845703125,8.6212158203125
1.4299998999999999,-9.694122314453125,0.6344634294509888,2.013523578643799,-5.157470703125,-4.5928955078125,-0.823974609375
1.4499999,-9.622296333312988,0.9289502501487732,2.363077163696289,-14.83154296875,3.7384033203125,-6.9427490234375
1.4699999,-9.636661529541016,0.9959878921508789,2.4205379486083984,-18.3868408203125,10.101318359375,-3.8604736328125
1.4899999,-9.696516990661621,0.7613561153411865,2.207453966140747,-17.51708984375,11.566162109375,-5.035400390625
1.5099999,-9.816226959228516,0.2082955539226532,1.7860745191574097,-14.892578125,6.378173828125,-9.521484375
1.5299999,-9.923966407775879,-0.40462008118629456,1.292868971824646,-8.1024169921875,4.058837890625,-6.3629150390625
1.5499999,-10.031704902648926,-0.9361328482627869,0.7972691655158997,2.655029296875,-2.7008056640625,7.62939453125
1.5699999,-10.091560363769531,-1.2306196689605713,0.45250412821769714,14.801025390625,-6.1492919921875,14.4195556640625
1.5899999,-10.132261276245117,-1.1899182796478271,0.22266076505184174,25.7568359375,-13.1683349609375,8.270263671875
1.6099999,-10.113107681274414,-0.9361328482627869,0.2106897532939911,35.1715087890625,-16.0369873046875,1.617431640625
1.6299999,-10.04846477508545,-0.4165911078453064,0.5530605912208557,38.4674072265625,-18.0816650390625,5.7525634765625
1.6499999,-9.9000244140625,0.1364694982767105,1.091755986213684,17.7764892578125,-8.9111328125,7.0343017578125
1.6699999,-9.758766174316406,0.5817909836769104,1.7597382068634033,-9.6282958984375,3.7384033203125,-0.0152587890625
1.6899998999999999,-9.617507934570312,0.7924807667732239,2.3319525718688965,-20.2484130859375,12.5274658203125,-1.5869140625
1.7099999,-9.57441234588623,0.706289529800415,2.516305923461914,-16.693115234375,16.0064697265625,-0.5950927734375
1.7299999,-9.641449928283691,0.4165911078453064,2.3367409706115723,-5.9967041015625,14.1143798828125,-0.8697509765625
1.7499999,-9.751583099365234,0.09816227108240128,1.8914192914962769,3.6773681640625,11.4288330078125,-0.79345703125
1.7699999,-9.859322547912598,-0.1628057211637497,1.414973258972168,10.589599609375,10.68115234375,-1.1749267578125
1.7899999,-9.938331604003906,-0.304063618183136,1.0749965906143188,14.5263671875,10.0250244140625,-1.8157958984375
1.8099999,-9.959878921508789,-0.3423708379268646,0.9026140570640564,14.0380859375,10.009765625,-1.2054443359375
1.8299999,-9.964667320251465,-0.2825157940387726,0.871489405632019,9.5672607421875,10.92529296875,-0.2899169921875
1.8499999,-9.964667320251465,-0.1604115068912506,0.8882488012313843,6.2255859375,11.932373046875,-0.030517578125
1.8699999,-9.952696800231934,-0.011971008032560349,0.8930372595787048,5.3863525390625,11.138916015625,-1.220703125
1.8899999,-9.962273597717285,0.14365209639072418,0.8595184087753296,5.950927734375,8.6669921875,-3.4637451171875
1.9099999,-9.976638793945312,0.26336219906806946,0.7781155705451965,4.669189453125,6.5765380859375,-5.3253173828125
1.9299998999999999,-10.000580787658691,0.31603461503982544,0.6631938815116882,0.762939453125,4.8065185546875,-6.7291259765625
1.9499999,-10.019734382629395,0.28969839215278625,0.5315127968788147,-2.5482177734375,0.9765625,-7.5225830078125
1.9699999,-10.031704902648926,0.181959331035614,0.42856210470199585,-3.7689208984375,-3.4942626953125,-7.4310302734375
1.9899999,-10.050858497619629,0.047884032130241394,0.3758896589279175,-4.6234130859375,-6.3323974609375,-5.9661865234375
2.0099999,-10.050858497619629,-0.11013327538967133,0.395043283700943,-7.1868896484375,-8.3770751953125,-4.6539306640625
2.0299999,-10.029311180114746,-0.21547815203666687,0.5530605912208557,-11.0321044921875,-10.3607177734375,-2.8839111328125
2.0499999,-9.988609313964844,-0.3974374830722809,0.6799532771110535,-10.31494140625,-10.4217529296875,-0.9918212890625
2.0699999,-9.952696800231934,-0.4572925269603729,0.9361328482627869,-6.072998046875,-9.674072265625,-0.30517578125
2.0899999,-9.90241813659668,-0.5602431893348694,1.115697979927063,-5.9661865234375,-7.3699951171875,2.5787353515625
2.1099999,-9.86650562286377,-0.5530605912208557,1.292868971824646,-7.110595703125,-5.3253173828125,4.180908203125
2.1299999,-9.84495735168457,-0.4644751250743866,1.3886369466781616,-7.5836181640625,-3.814697265625,4.150390625
2.1499999,-9.832986831665039,-0.33997663855552673,1.4173674583435059,-7.9803466796875,-2.5482177734375,3.5858154296875
2.1699999,-9.847352027893066,-0.2059013396501541,1.3886369466781616,-7.3699951171875,-2.01416015625,2.99072265625
2.1899999,-9.86889934539795,-0.11252748221158981,1.3192051649093628,-5.7220458984375,-1.861572265625,2.9754638671875
2.2099999,-9.885659217834473,-0.1149216815829277,1.2689268589019775,-3.96728515625,-1.9073486328125,3.2501220703125
2.2299999,-9.883264541625977,-0.16998831927776337,1.2689268589019775,-2.471923828125,-0.732421875,4.730224609375
2.2499999,-9.86650562286377,-0.26575639843940735,1.3072341680526733,0.8087158203125,1.922607421875,6.28662109375
2.2699999,-9.84495735168457,-0.3495534360408783,1.3527239561080933,9.7198486328125,3.96728515625,4.8980712890625
2.2899999,-9.856928825378418,-0.3974374830722809,1.3623007535934448,22.64404296875,3.8909912109375,3.5400390625
2.3099999,-9.86889934539795,-0.3064578175544739,1.3287819623947144,29.8614501953125,3.3111572265625,3.997802734375
2.3299999,-9.885659217834473,-0.12449848651885986,1.2689268589019775,26.4434814453125,3.8299560546875,2.9296875
2.3499999,-9.914389610290527,0.12689268589019775,1.1492167711257935,18.035888671875,3.9215087890625,-1.129150390625
2.3699999,-9.923966407775879,0.37828385829925537,1.0606313943862915,9.3536376953125,2.74658203125,-3.082275390625
2.3899999,-9.945513725280762,0.5722141861915588,0.9672574996948242,0.2288818359375,1.312255859375,-3.11279296875
2.4099999,-9.962273597717285,0.6368576288223267,0.9074024558067322,-7.354736328125,0.5645751953125,-5.1422119140625
2.4299999,-9.974244117736816,0.5841852426528931,0.8523358106613159,-9.6588134765625,-0.335693359375,-7.62939453125
2.4499999,-9.979032516479492,0.4118026793003082,0.8140285611152649,-7.354736328125,-2.9449462890625,-8.1329345703125
2.4699999,-9.986215591430664,0.16998831927776337,0.768538773059845,-4.39453125,-6.1187744140625,-6.805419921875
2.4899999,-10.002974510192871,-0.17717093229293823,0.6775590777397156,1.800537109375,-9.2010498046875,-5.8746337890625
2.5099999,-9.995792388916016,-0.47644615173339844,0.7350199222564697,10.4827880859375,-13.519287109375,-2.593994140625
2.5299999,-9.947908401489258,-0.730231523513794,0.8906430602073669,7.2174072265625,-14.22119140625,4.33349609375
2.5499999,-9.840168952941895,-0.7948749661445618,1.1851298809051514,-3.5858154296875,-8.758544921875,7.7972412109375
2.5699999,-9.775525093078613,-0.7230489253997803,1.4389152526855469,-9.58251953125,-4.08935546875,9.3231201171875
2.5899999,-9.737217903137207,-0.5219359993934631,1.6112977266311646,-10.6353759765625,-4.7760009765625,10.650634765625
2.6099999,-9.80904483795166,-0.2537853717803955,1.6041151285171509,-9.613037109375,-7.843017578125,11.23046875
2.6299999,-9.897629737854004,-0.004788403399288654,1.4844050407409668,-7.50732421875,-10.1470947265625,9.3231201171875
2.6499999,-9.955090522766113,0.13168109953403473,1.256955862045288,-3.0364990234375,-11.4898681640625,5.1422119140625
2.6699999,-9.988609313964844,0.2992752194404602,1.1899182796478271,5.523681640625,-10.9710693359375,3.7384033203125
2.6899999,-9.943120002746582,0.4812345504760742,1.3120225667953491,5.0201416015625,-12.75634765625,2.86865234375
2.7099999,-9.816226959228516,0.6512228846549988,1.577778935432434,-5.18798828125,-8.2550048828125,-2.6092529296875
2.7299999,-9.727641105651855,0.8667010068893433,2.0231003761291504,-12.9241943359375,0.42724609375,-10.406494140625
2.7499999,-9.605537414550781,0.9409212470054626,2.4660277366638184,-16.754150390625,9.1400146484375,-11.810302734375
2.7699999,-9.50498104095459,0.9217676520347595,2.7485435009002686,-28.0609130859375,18.8751220703125,-15.9912109375
2.7899999,-9.521739959716797,0.7158663272857666,2.8395233154296875,-40.0238037109375,30.4412841796875,-16.937255859375
2.8099999,-9.524134635925293,0.3998316824436188,2.612074136734009,-40.3900146484375,33.966064453125,-13.458251953125
2.8299999,-9.658209800720215,-0.028730420395731926,2.099714994430542,-33.6456298828125,29.8919677734375,-7.598876953125
2.8499999,-9.806650161743164,-0.5482721924781799,1.314416766166687,-21.5911865234375,21.7437744140625,-7.7972412109375
2.8699999,-9.976638793945312,-0.9983820915222168,0.4165911078453064,-0.79345703125,11.3983154296875,-6.1492919921875
2.8899999,-10.20648193359375,-1.403002142906189,-0.3519476354122162,22.03369140625,-3.4332275390625,1.3885498046875
2.9099999,-10.220847129821777,-1.4484920501708984,-0.8092401623725891,35.186767578125,-19.95849609375,1.312255859375
2.9299999,-10.24239444732666,-1.3072341680526733,-0.8571242094039917,37.4908447265625,-22.5982666015625,0.3662109375
2.9499999,-10.160991668701172,-0.8882488012313843,-0.3926490843296051,29.327392578125,-19.287109375,4.33349609375
2.9699999,-9.96945571899414,-0.2801215946674347,0.4884171485900879,10.8489990234375,-19.04296875,5.645751953125
2.9899999,-9.806650161743164,0.33997663855552673,1.5490485429763794,-20.32470703125,-9.490966796875,-0.6256103515625
3.0099999,-9.610325813293457,0.8092401623725891,2.4803929328918457,-42.1905517578125,10.92529296875,-7.6446533203125
3.0299999,-9.495404243469238,0.9911994934082031,3.1052796840667725,-45.0592041015625,20.263671875,-9.7503662109375
3.0499999,-9.442731857299805,0.8427590131759644,3.2417490482330322,-49.1180419921875,26.153564453125,-11.4593505859375
3.0699999,-9.5408935546875,0.304063618183136,2.7509377002716064,-46.2493896484375,30.4412841796875,-9.4757080078125
3.0899999,-9.720458984375,-0.3663128614425659,1.9967641830444336,-23.8494873046875,24.1241455078125,-4.21142578125
3.1099999,-9.95748519897461,-1.170764684677124,0.9313444495201111,-3.2196044921875,12.0391845703125,6.561279296875
3.1299999,-10.187328338623047,-1.7597382068634033,-0.12689268589019775,17.2882080078125,-1.4801025390625,8.72802734375
3.1499999,-10.362105369567871,-1.9177556037902832,-0.8140285611152649,41.8853759765625,-17.608642578125,6.28662109375
3.1699999,-10.398017883300781,-1.7046716213226318,-1.0630255937576294,50.445556640625,-27.618408203125,6.5460205078125
3.1899999,-10.321403503417969,-1.1204863786697388,-0.8068459630012512,36.102294921875,-25.3753662109375,5.8441162109375
3.2099999,-10.153809547424316,-0.40222588181495667,-0.15801730751991272,24.9786376953125,-22.979736328125,3.662109375
3.2299999,-9.95748519897461,0.14604631066322327,0.6368576288223267,18.7225341796875,-22.1405029296875,1.983642578125
3.2499999,-9.852140426635742,0.4572925269603729,1.3000515699386597,11.0626220703125,-20.2789306640625,2.410888671875
3.2699999,-9.694122314453125,0.5746083855628967,1.886630892753601,8.1024169921875,-18.280029296875,3.265380859375
3.2899999,-9.660603523254395,0.5267243981361389,2.3558945655822754,3.7994384765625,-10.406494140625,-1.2969970703125
3.3099999,-9.555258750915527,0.40462008118629456,2.734178304672241,-6.317138671875,-0.3814697265625,-1.1749267578125
3.3299999000000002,-9.48343276977539,0.24660277366638184,2.9688100814819336,-19.8211669921875,8.0413818359375,-0.6866455078125
3.3499999,-9.44752025604248,0.11252748221158981,3.0166940689086914,-27.7099609375,19.927978515625,-1.617431640625
3.3699999,-9.509769439697266,-0.019153613597154617,2.8419175148010254,-28.7017822265625,24.0631103515625,5.31005859375
3.3899999,-9.612719535827637,-0.021547814831137657,2.403778553009033,-32.1807861328125,24.0325927734375,2.9144287109375
3.4099999,-9.81143856048584,-0.10295066982507706,1.745373010635376,-27.2216796875,20.9197998046875,-3.7994384765625
3.4299999,-9.995792388916016,-0.12449848651885986,1.070208191871643,-9.09423828125,10.345458984375,-11.749267578125
3.4499999,-10.146626472473145,-0.35673606395721436,0.3998316824436188,7.293701171875,2.197265625,-10.833740234375
3.4699999,-10.220847129821777,-0.5626373887062073,0.10055647045373917,16.0064697265625,-3.2196044921875,-6.0577392578125
3.4899999,-10.218452453613281,-0.8092401623725891,-0.031124621629714966,20.3094482421875,-6.5155029296875,-5.1116943359375
3.5099999,-10.228029251098633,-0.9097966551780701,0.2059013396501541,26.06201171875,-8.48388671875,-1.6021728515625
3.5299999,-10.070012092590332,-0.8547300100326538,0.5554547905921936,25.9857177734375,-12.8173828125,4.1961669921875
3.5499999,-9.99339771270752,-0.7613561153411865,0.933738648891449,18.707275390625,-11.3525390625,2.25830078125
3.5699999,-9.861717224121094,-0.5171475410461426,1.3551181554794312,13.641357421875,-6.8206787109375,-0.3814697265625
3.5899999,-9.739612579345703,0.15562310814857483,2.0398597717285156,-7.0037841796875,3.5552978515625,-0.9002685546875
3.6099999,-9.730035781860352,0.4189853072166443,2.1475989818573,-18.1732177734375,8.6517333984375,-5.0048828125
3.6299999,-9.758766174316406,0.4692635238170624,2.0207061767578125,-18.4478759765625,11.260986328125,-7.568359375
3.6499999,-9.785101890563965,0.2513911724090576,1.7070658206939697,-10.0860595703125,3.60107421875,-4.3182373046875
3.6699999,-9.904812812805176,-0.1364694982767105,1.278503656387329,-0.0457763671875,-1.4801025390625,-6.378173828125
3.6899999,-10.022128105163574,-0.5889736413955688,0.9050082564353943,12.969970703125,-5.06591796875,-6.4239501953125
3.7099999,-10.091560363769531,-0.9074024558067322,0.7182605266571045,23.406982421875,-8.9263916015625,-2.4261474609375
3.7299999,-10.122684478759766,-1.1420341730117798,0.6344634294509888,24.3072509765625,-10.1776123046875,-0.54931640625
3.7499999,-10.091560363769531,-1.1444283723831177,0.7445967197418213,25.4974365234375,-11.3525390625,3.0670166015625
3.7699999,-10.007762908935547,-0.993593692779541,0.9576807022094727,26.85546875,-13.7176513671875,8.819580078125
3.7899999,-10.096348762512207,-0.7230489253997803,1.3215993642807007,22.9034423828125,-9.1552734375,10.589599609375
3.8099999,-10.074800491333008,-0.45489832758903503,1.6041151285171509,14.4805908203125,-9.124755859375,10.6201171875
3.8299999000000002,-10.125079154968262,-0.3734954595565796,1.7884687185287476,13.153076171875,-5.5694580078125,5.0201416015625
3.8499999,-9.95748519897461,-0.2992752194404602,1.8411411046981812,32.867431640625,-12.298583984375,7.26318359375
3.8699999,-9.737217903137207,-0.2585737705230713,1.8818424940109253,37.7197265625,-10.3607177734375,7.171630859375
3.8899999,-9.473855972290039,-0.05506663769483566,2.013523578643799,22.8118896484375,-1.556396484375,3.509521484375
3.9099999,-9.320627212524414,0.2561795711517334,2.2864625453948975,3.2958984375,7.843017578125,2.655029296875
3.9299999,-9.289502143859863,0.5626373887062073,2.5546131134033203,-13.0767822265625,16.4031982421875,0.579833984375
3.9499999,-9.370905876159668,0.7374141216278076,2.6455929279327393,-25.4364013671875,23.01025390625,-1.8310546875
3.9699999,-9.519346237182617,0.7158663272857666,2.5067291259765625,-28.8848876953125,25.7110595703125,-3.662109375
3.9899999,-9.696516990661621,0.5147533416748047,2.1571757793426514,-24.23095703125,24.3682861328125,-4.4708251953125
4.0099999,-9.911994934082031,0.20111294090747833,1.6759412288665771,-16.6778564453125,21.05712890625,-4.486083984375
4.029999900000001,-10.1753568649292,-0.1364694982767105,1.173158884048462,-9.6435546875,16.387939453125,-4.180908203125
4.0499999,-10.47942066192627,-0.4165911078453064,0.7469909191131592,-2.1820068359375,10.711669921875,-4.3487548828125
4.069999900000001,-11.061211585998535,-0.5650315880775452,0.49320554733276367,6.011962890625,4.4403076171875,-5.1727294921875
4.0899999000000005,-11.552022933959961,-0.608127236366272,0.38546648621559143,11.65771484375,-3.7994384765625,-7.3699951171875
4.1099999,-12.006921768188477,-0.5003881454467773,0.44771572947502136,14.984130859375,-17.181396484375,-2.0904541015625
4.1299999000000005,-12.085929870605469,-0.31603461503982544,0.5626373887062073,16.998291015625,-29.754638671875,-1.708984375
4.1499999,-11.805809020996094,-0.07422025501728058,0.7038952708244324,17.4407958984375,-23.956298828125,-7.9193115234375
4.1699999000000005,-11.252747535705566,0.1412578970193863,0.8068459630012512,14.190673828125,-8.544921875,-15.44189453125
4.1899999,-10.572794914245605,0.26336219906806946,0.8571242094039917,8.819580078125,0.67138671875,-15.2587890625
4.209999900000001,-9.9000244140625,0.26575639843940735,0.8259995579719543,3.936767578125,6.378173828125,-8.1634521484375
4.2299999,-9.272743225097656,0.14365209639072418,0.7110779285430908,0.79345703125,12.0849609375,-3.2501220703125
4.249999900000001,-8.712499618530273,-0.07422025501728058,0.5171475410461426,1.89208984375,14.862060546875,-2.2430419921875
4.2699999,-8.26239013671875,-0.33039984107017517,0.29209262132644653,6.8817138671875,16.571044921875,-1.7852783203125
4.289999900000001,-7.9176249504089355,-0.5841852426528931,0.10295066982507706,13.5955810546875,22.0489501953125,-3.9520263671875
4.3099999,-7.6997528076171875,-0.7924807667732239,0.019153613597154617,19.1497802734375,25.177001953125,-6.591796875
4.329999900000001,-7.63989782333374,-0.9097966551780701,0.0694318488240242,20.6756591796875,21.148681640625,-5.4168701171875
4.3499999,-7.7213006019592285,-0.9552865028381348,0.272938996553421,19.3328857421875,15.5029296875,-0.762939453125
4.369999900000001,-7.989450931549072,-0.9169792532920837,0.5913678407669067,15.594482421875,18.3258056640625,4.0740966796875
4.3899999,-8.403648376464844,-0.8475474119186401,0.9792284965515137,10.7574462890625,28.38134765625,2.3040771484375
4.409999900000001,-8.96389102935791,-0.7613561153411865,1.3479355573654175,6.1798095703125,33.0810546875,-2.716064453125
4.4299999,-9.5408935546875,-0.6799532771110535,1.625662922859192,3.7384033203125,24.017333984375,-4.8370361328125
4.449999900000001,-10.04846477508545,-0.6033388376235962,1.778891921043396,2.9144287109375,13.8397216796875,-4.21142578125
4.4699999,-10.390835762023926,-0.5363011956214905,1.802833914756775,2.8076171875,12.237548828125,-3.9520263671875
4.489999900000001,-10.577583312988281,-0.4668693244457245,1.7621324062347412,2.777099609375,10.833740234375,-3.0059814453125
4.5099999,-10.685321807861328,-0.3974374830722809,1.7046716213226318,1.7852783203125,8.1329345703125,-2.4566650390625
4.529999900000001,-10.721235275268555,-0.33758243918418884,1.6663644313812256,0.2288818359375,1.220703125,-4.08935546875
4.5499999,-10.666168212890625,-0.2825157940387726,1.6352397203445435,-1.7242431640625,-7.26318359375,-6.072998046875
4.569999900000001,-10.496180534362793,-0.24899697303771973,1.6112977266311646,-3.41796875,-8.5906982421875,-5.67626953125
4.5899999000000005,-10.268731117248535,-0.22266076505184174,1.5705963373184204,-4.547119140625,-2.532958984375,-1.434326171875
4.609999900000001,-10.043676376342773,-0.2082955539226532,1.525106430053711,-4.791259765625,-1.4495849609375,3.3111572265625
4.6299999000000005,-9.940725326538086,-0.1867477297782898,1.4724340438842773,-5.4931640625,-8.697509765625,6.8206787109375
4.6499999,-9.931148529052734,-0.1628057211637497,1.4077905416488647,-7.7056884765625,-16.3726806640625,7.476806640625
4.6699999000000005,-9.964667320251465,-0.15562310814857483,1.338358759880066,-10.3912353515625,-17.5628662109375,6.2713623046875
4.6899999,-10.010157585144043,-0.16998831927776337,1.2521674633026123,-11.688232421875,-10.8795166015625,4.39453125
4.709999900000001,-10.050858497619629,-0.22505496442317963,1.1516109704971313,-11.5966796875,-6.1798095703125,1.2359619140625
4.7299999,-10.120290756225586,-0.31842881441116333,1.0438719987869263,-11.0931396484375,-7.8277587890625,-2.7313232421875
4.749999900000001,-10.1753568649292,-0.43095630407333374,0.9217676520347595,-10.2081298828125,-9.8876953125,-8.544921875
4.7699999,-10.18493366241455,-0.5410895943641663,0.8092401623725891,-8.3770751953125,-7.3699951171875,-12.2528076171875
4.789999900000001,-10.139444351196289,-0.6248866319656372,0.7158663272857666,-5.6915283203125,-2.227783203125,-8.758544921875
4.8099999,-10.065223693847656,-0.667982280254364,0.6536170840263367,-2.2735595703125,-1.800537109375,-1.434326171875
4.829999900000001,-9.986215591430664,-0.6536170840263367,0.6272808313369751,0.9918212890625,-5.6915283203125,2.960205078125
4.8499999,-9.919178009033203,-0.5913678407669067,0.6368576288223267,3.173828125,-8.575439453125,4.4708251953125
4.869999900000001,-9.876082420349121,-0.47884035110473633,0.6727706789970398,4.0435791015625,-8.209228515625,5.645751953125
4.8899999,-9.794678688049316,-0.3519476354122162,0.7326257228851318,3.9215087890625,-7.6446533203125,5.401611328125
4.909999900000001,-9.713275909423828,-0.2346317619085312,0.8092401623725891,2.197265625,-5.615234375,5.340576171875
4.9299999,-9.679757118225098,-0.15801730751991272,0.8834604024887085,-0.7781982421875,-2.197265625,5.18798828125
4.949999900000001,-9.873687744140625,-0.181959331035614,0.9313444495201111,-3.23486328125,-1.678466796875,-0.1373291015625
4.9699999,-10.04846477508545,-0.16998831927776337,0.9624691009521484,-4.0740966796875,2.5787353515625,-10.040283203125
4.989999900000001,-10.295066833496094,-0.272938996553421,0.9409212470054626,-2.166748046875,-0.91552734375,-0.18310546875
5.0099999,-10.376470565795898,-0.3256114423274994,0.9265560507774353,0.79345703125,-4.364013671875,-0.885009765625
5.029999900000001,-10.278307914733887,-0.4165911078453064,0.9169792532920837,3.3111572265625,-5.462646484375,-2.8076171875
5.0499999,-10.132261276245117,-0.507570743560791,0.9696516990661621,4.241943359375,-5.401611328125,-1.3275146484375
5.069999900000001,-10.002974510192871,-0.5578489899635315,1.072602391242981,3.60107421875,-4.8828125,-0.1678466796875
5.0899999000000005,-9.926360130310059,-0.5841852426528931,1.2042834758758545,0.1068115234375,-3.72314453125,1.373291015625
5.109999900000001,-9.86889934539795,-0.5578489899635315,1.3455413579940796,-3.143310546875,-1.5411376953125,2.410888671875
5.1299999000000005,-9.828198432922363,-0.5051765441894531,1.4460978507995605,-4.5928955078125,0.152587890625,2.288818359375
5.1499999,-9.801861763000488,-0.4381389021873474,1.5059528350830078,-4.82177734375,1.4801025390625,1.556396484375
5.1699999000000005,-9.816226959228516,-0.38067805767059326,1.5275006294250488,-4.45556640625,3.3111572265625,1.3885498046875
5.1899999,-9.837775230407715,-0.3734954595565796,1.4963760375976562,-3.448486328125,6.7138671875,-0.823974609375
5.209999900000001,-9.9000244140625,-0.40222588181495667,1.4293384552001953,-2.5482177734375,11.1236572265625,-4.180908203125
5.2299999,-9.943120002746582,-0.4668693244457245,1.335964560508728,-2.3040771484375,8.1329345703125,-4.8675537109375
5.249999900000001,-9.947908401489258,-0.5339069962501526,1.235408067703247,-2.5634765625,4.5623779296875,-2.6092529296875
5.2699999,-9.8784761428833,-0.5746083855628967,1.1468225717544556,-2.899169921875,4.1351318359375,3.021240234375
5.289999900000001,-9.744400978088379,-0.5746083855628967,1.0773907899856567,-2.8076171875,4.3487548828125,8.758544921875
5.3099999,-9.75397777557373,-0.5147533416748047,1.0295066833496094,-1.6937255859375,5.9814453125,7.659912109375
5.329999900000001,-9.732429504394531,-0.40940847992897034,0.9696516990661621,-0.1068115234375,3.4332275390625,-1.0986328125
5.3499999,-9.890447616577148,-0.30885201692581177,0.9313444495201111,1.4190673828125,2.0294189453125,0.1983642578125
5.369999900000001,-9.998186111450195,-0.20350714027881622,0.8858546018600464,3.0364990234375,0.54931640625,0.8392333984375
5.3899999,-10.043676376342773,-0.181959331035614,0.8571242094039917,3.875732421875,-1.373291015625,-1.708984375
5.409999900000001,-10.043676376342773,-0.17956513166427612,0.8523358106613159,3.9215087890625,-1.9683837890625,-3.3721923828125
5.4299999,-10.02691650390625,-0.181959331035614,0.871489405632019,3.1585693359375,-2.7618408203125,-3.9215087890625
5.449999900000001,-9.983820915222168,-0.19393034279346466,0.9241618514060974,0.3204345703125,-3.662109375,-4.5013427734375
5.4699999,-9.78989028930664,-0.22505496442317963,0.9864110946655273,-4.3792724609375,-3.2958984375,-5.0201416015625
5.489999900000001,-9.818621635437012,-0.304063618183136,1.0797849893569946,-7.5836181640625,-1.8768310546875,-2.9449462890625
5.5099999,-9.734824180603027,-0.40462008118629456,1.1252747774124146,-7.6141357421875,-2.9449462890625,-6.744384765625
5.529999900000001,-9.84256362915039,-0.5578489899635315,1.1635819673538208,-3.8604736328125,-2.655029296875,-2.9144287109375
5.5499999,-9.96945571899414,-0.7110779285430908,1.1635819673538208,2.99072265625,-3.2196044921875,0.0152587890625
5.569999900000001,-10.017339706420898,-0.8882488012313843,1.137245774269104,9.9334716796875,-4.669189453125,1.739501953125
5.5899999000000005,-10.029311180114746,-1.0079588890075684,1.1420341730117798,14.83154296875,-4.8828125,4.8675537109375
5.609999900000001,-10.000580787658691,-1.0462661981582642,1.161187767982483,17.6239013671875,-4.486083984375,8.1634521484375
5.6299999000000005,-9.955090522766113,-0.933738648891449,1.2497732639312744,14.0838623046875,-3.9825439453125,9.8114013671875
5.6499999,-9.876082420349121,-0.6703764796257019,1.3718775510787964,2.01416015625,-1.1138916015625,10.650634765625
5.6699999000000005,-9.792284965515137,-0.2322375625371933,1.5705963373184204,-11.8865966796875,3.7994384765625,7.5836181640625
5.6899999,-9.75397777557373,0.1388636976480484,1.8171991109848022,-24.0325927734375,9.58251953125,2.838134765625
5.709999900000001,-9.655815124511719,0.545877993106842,1.9153614044189453,-35.0799560546875,15.838623046875,-0.823974609375
5.7299999,-9.703699111938477,0.608127236366272,1.8483237028121948,-38.0706787109375,17.7001953125,-3.96728515625
5.749999900000001,-9.725247383117676,0.5578489899635315,1.5729905366897583,-30.5328369140625,15.68603515625,-4.0130615234375
5.7699999,-9.86650562286377,0.21787235140800476,1.2497732639312744,-20.4315185546875,10.955810546875,-1.953125
5.789999900000001,-9.988609313964844,-0.2968810200691223,0.8236053586006165,-12.939453125,9.3994140625,-0.396728515625
5.8099999,-10.077195167541504,-0.790086567401886,0.5961562395095825,-2.99072265625,5.1422119140625,3.41796875
5.829999900000001,-10.067618370056152,-1.2545616626739502,0.4189853072166443,2.5787353515625,0.4119873046875,6.072998046875
5.8499999,-10.067618370056152,-1.3886369466781616,0.2298433631658554,4.5623779296875,0.946044921875,8.30078125
5.869999900000001,-10.108319282531738,-1.3551181554794312,0.1867477297782898,10.650634765625,-3.6468505859375,14.0380859375
5.8899999,-10.0580415725708,-0.8882488012313843,0.2082955539226532,17.1356201171875,-14.0533447265625,11.4898681640625
5.909999900000001,-10.070012092590332,-0.2801215946674347,0.33997663855552673,16.4642333984375,-14.7857666015625,2.5634765625
5.9299999,-10.022128105163574,0.28969839215278625,0.586579442024231,10.7574462890625,-11.8560791015625,-5.18798828125
5.949999900000001,-9.926360130310059,0.7565677165985107,0.9265560507774353,2.838134765625,-10.101318359375,-12.0697021484375
5.9699999,-9.871294021606445,0.9289502501487732,1.3215993642807007,-7.6141357421875,-2.1820068359375,-9.3231201171875
5.989999900000001,-9.806650161743164,0.730231523513794,1.6711528301239014,-19.83642578125,0.885009765625,-7.568359375
6.0099999,-9.737217903137207,0.31364041566848755,1.843535304069519,-20.7977294921875,5.462646484375,-8.0718994140625
6.029999900000001,-9.746794700622559,-0.2513911724090576,1.8938134908676147,-9.9945068359375,8.544921875,-5.401611328125
6.0499999,-9.742006301879883,-0.7996633648872375,1.7070658206939697,-1.7852783203125,3.1585693359375,-2.0751953125
6.069999900000001,-9.84256362915039,-1.1659762859344482,1.4652514457702637,-1.190185546875,10.3759765625,4.364013671875
6.0899999000000005,-9.93593692779541,-1.2713210582733154,1.158793568611145,1.28173828125,7.6904296875,8.6212158203125
6.109999900000001,-9.904812812805176,-1.091755986213684,0.849941611289978,5.4931640625,-2.197265625,5.7220458984375
6.1299999000000005,-10.053253173828125,-0.7733271718025208,0.6751648783683777,6.744384765625,-1.6632080078125,5.9967041015625
6.149999900000001,-9.93593692779541,-0.3447650372982025,0.5602431893348694,0.6866455078125,-4.3182373046875,0.885009765625
6.1699999000000005,-9.950302124023438,0.1149216815829277,0.5985504388809204,-8.209228515625,-2.2735595703125,-4.69970703125
6.1899999,-10.031704902648926,0.2849099934101105,0.7589619159698486,-11.0321044921875,-2.3345947265625,-2.7923583984375
6.209999900000001,-9.943120002746582,0.28730419278144836,0.8906430602073669,-9.552001953125,-8.48388671875,-2.5634765625
6.2299999,-10.036493301391602,0.028730420395731926,0.993593692779541,-2.9754638671875,-5.3558349609375,-3.7841796875
6.249999900000001,-10.012551307678223,-0.5219359993934631,1.070208191871643,6.77490234375,-6.011962890625,-1.2054443359375
6.2699999,-9.911994934082031,-0.8427590131759644,1.1061211824417114,15.6707763671875,-10.162353515625,1.800537109375
6.289999900000001,-9.93593692779541,-1.0103530883789062,1.2114660739898682,17.242431640625,-6.103515625,10.8642578125
6.3099999,-9.852140426635742,-0.9433154463768005,1.3479355573654175,7.1258544921875,-4.57763671875,10.2996826171875
6.329999900000001,-9.830592155456543,-0.608127236366272,1.4891934394836426,-1.495361328125,-1.9683837890625,5.523681640625
6.3499999,-9.804255485534668,-0.11013327538967133,1.7262194156646729,-7.14111328125,1.861572265625,6.1187744140625
6.369999900000001,-9.718064308166504,0.2082955539226532,1.8794482946395874,-21.2554931640625,7.0343017578125,0.42724609375
6.3899999,-9.75637149810791,0.6153098344802856,1.9847931861877441,-31.0211181640625,17.7459716796875,-3.448486328125
6.409999900000001,-9.727641105651855,0.6153098344802856,1.920149803161621,-31.158447265625,18.4783935546875,-1.922607421875
6.4299999,-9.775525093078613,0.4836287498474121,1.6304513216018677,-25.1922607421875,13.458251953125,-8.2244873046875
6.449999900000001,-9.871294021606445,0.12689268589019775,1.1420341730117798,-11.16943359375,10.55908203125,-8.026123046875
6.4699999,-9.885659217834473,-0.42616790533065796,0.689530074596405,6.1492919921875,1.9073486328125,-6.28662109375
6.489999900000001,-9.983820915222168,-0.7709329724311829,0.363918662071228,17.3187255859375,0.9002685546875,-5.9967041015625
6.5099999,-9.955090522766113,-1.0127472877502441,0.3232172429561615,20.111083984375,-3.692626953125,2.8228759765625
6.529999900000001,-9.99100399017334,-1.0007762908935547,0.4836287498474121,4.302978515625,-5.0811767578125,4.2572021484375
6.5499999,-9.998186111450195,-0.6823474764823914,0.8547300100326538,-8.758544921875,3.2806396484375,3.0059814453125
6.569999900000001,-9.883264541625977,-0.43335050344467163,1.235408067703247,-20.4315185546875,7.1868896484375,1.4801025390625
6.5899999000000005,-9.904812812805176,-0.15801730751991272,1.3287819623947144,-26.153564453125,12.6495361328125,-0.79345703125
6.609999900000001,-9.986215591430664,-0.15322890877723694,1.2066776752471924,-7.6446533203125,9.307861328125,2.4871826171875
6.6299999000000005,-10.04846477508545,-0.27054479718208313,0.7781155705451965,18.73779296875,-7.781982421875,2.25830078125
6.649999900000001,-10.20887565612793,-0.4668693244457245,0.31124621629714966,36.4227294921875,-17.303466796875,-5.615234375
6.6699999000000005,-10.316615104675293,-0.6272808313369751,0.1412578970193863,43.0145263671875,-19.6075439453125,-1.6937255859375
6.6899999,-9.952696800231934,-0.5363011956214905,0.3256114423274994,30.3955078125,-20.4925537109375,0.9307861328125
6.709999900000001,-9.84495735168457,-0.3495534360408783,0.8858546018600464,8.5601806640625,-6.9427490234375,1.556396484375
6.7299999,-9.62947940826416,-0.0454898327589035,1.6184803247451782,-18.3563232421875,2.044677734375,7.62939453125
6.749999900000001,-9.452308654785156,0.26096799969673157,2.209848165512085,-41.595458984375,6.4849853515625,2.5482177734375
6.7699999,-9.78989028930664,0.2801215946674347,2.4133553504943848,-43.7774658203125,17.791748046875,-2.3040771484375
6.789999900000001,-9.792284965515137,0.1628057211637497,2.126051187515259,-27.2979736328125,12.4359130859375,-0.54931640625
6.8099999,-10.110713958740234,-0.27054479718208313,1.4915876388549805,1.03759765625,6.2408447265625,-1.4495849609375
6.829999900000001,-10.307038307189941,-0.6248866319656372,0.6967126727104187,33.0657958984375,-4.5623779296875,5.035400390625
6.8499999,-10.309432983398438,-0.9744400978088379,0.16759411990642548,47.5311279296875,-23.49853515625,7.049560546875
6.869999900000001,-10.393229484558105,-0.9720458984375,0.06464344263076782,43.1060791015625,-20.5230712890625,1.8310546875
6.8899999,-10.26394271850586,-0.8667010068893433,0.2561795711517334,33.75244140625,-15.19775390625,6.4849853515625
6.909999900000001,-10.0580415725708,-0.7110779285430908,0.8188169598579407,35.82763671875,-10.92529296875,11.6729736328125
6.9299999,-9.828198432922363,-0.35913026332855225,1.501164436340332,31.3873291015625,-4.2572021484375,13.885498046875
6.949999900000001,-9.545681953430176,-0.06703764945268631,2.1978771686553955,3.9520263671875,3.753662109375,11.1083984375
6.9699999,-9.437943458557129,0.40222588181495667,2.82515811920166,-25.87890625,21.9879150390625,8.4228515625
6.989999900000001,-9.818621635437012,0.8595184087753296,3.162740468978882,-46.4324951171875,34.3780517578125,2.3193359375
7.0099999,-10.539276123046875,1.0678139925003052,2.9975404739379883,-56.4117431640625,34.24072265625,-2.593994140625
7.029999900000001,-11.5065336227417,1.0558429956436157,2.3319525718688965,-54.443359375,28.5797119140625,-6.439208984375
7.0499999,-12.287043571472168,0.751779317855835,1.3527239561080933,-36.4532470703125,13.9007568359375,-13.1988525390625
7.069999900000001,-12.476184844970703,0.3232172429561615,0.3687070608139038,-8.3770751953125,-14.58740234375,-16.571044921875
7.0899999000000005,-12.033257484436035,-0.07661445438861847,-0.28969839215278625,16.3116455078125,-27.923583984375,-15.4876708984375
7.109999900000001,-10.977415084838867,-0.3447650372982025,-0.44532153010368347,27.83203125,-28.13720703125,-7.7362060546875
7.1299999000000005,-9.66539192199707,-0.42377370595932007,-0.15322890877723694,25.665283203125,-19.7296142578125,0.1373291015625
7.149999900000001,-8.425195693969727,-0.33997663855552673,0.4118026793003082,16.632080078125,-7.080078125,-0.396728515625
7.1699999000000005,-7.513004779815674,-0.17238251864910126,1.015141487121582,5.3863525390625,-1.8463134765625,-5.340576171875
7.1899999,-7.043741226196289,-0.016759412363171577,1.4484920501708984,-4.1656494140625,0.79345703125,-6.04248046875
7.209999900000001,-6.976703643798828,0.05985504388809204,1.647210717201233,-9.2010498046875,8.48388671875,-2.5787353515625
7.2299999,-7.216124057769775,0.0071826050989329815,1.6065093278884888,-10.07080078125,18.9056396484375,0.6866455078125
7.249999900000001,-7.750030994415283,-0.1628057211637497,1.414973258972168,-8.575439453125,17.1051025390625,6.7901611328125
7.2699999,-8.523358345031738,-0.395043283700943,1.1683704853057861,-4.364013671875,2.288818359375,10.8489990234375
7.289999900000001,-9.366117477416992,-0.6440402865409851,0.9552865028381348,2.62451171875,-5.2490234375,-1.6937255859375
7.3099999,-10.08198356628418,-0.8475474119186401,0.8164227604866028,10.345458984375,-0.9307861328125,-18.4478759765625
7.329999900000001,-10.486603736877441,-0.9457096457481384,0.7757213711738586,15.777587890625,0.030517578125,-15.80810546875
7.3499999,-10.498574256896973,-0.9193734526634216,0.8212111592292786,17.2271728515625,-4.7607421875,1.190185546875
7.369999900000001,-10.251971244812012,-0.7661445140838623,0.9361328482627869,14.8773193359375,-7.75146484375,15.625
7.3899999,-9.979032516479492,-0.5267243981361389,1.0797849893569946,9.765625,-6.134033203125,19.256591796875
7.409999900000001,-9.854534149169922,-0.26575639843940735,1.213860273361206,1.8463134765625,0.5035400390625,10.772705078125
7.4299999,-9.947908401489258,-0.07422025501728058,1.2761094570159912,-5.9661865234375,7.99560546875,-4.8828125
7.449999900000001,-10.072406768798828,-0.011971008032560349,1.259350061416626,-8.148193359375,-1.28173828125,-13.2598876953125
7.4699999,-10.740388870239258,-0.1412578970193863,0.9864110946655273,1.129150390625,-7.598876953125,-3.082275390625
7.489999900000001,-10.934319496154785,-0.22266076505184174,0.7781155705451965,11.2762451171875,-9.124755859375,4.2724609375
7.5099999,-10.903194427490234,-0.22026655077934265,0.6153098344802856,19.7296142578125,-18.6309814453125,-1.3275146484375
7.529999900000001,-10.594342231750488,-0.2298433631658554,0.5386953949928284,22.8729248046875,-22.7203369140625,-6.927490234375
7.5499999,-10.247182846069336,-0.21547815203666687,0.6392518281936646,23.712158203125,-22.8271484375,-5.6610107421875
7.569999900000001,-9.943120002746582,-0.2059013396501541,0.9002198576927185,21.1639404296875,-24.0478515625,-4.2266845703125
7.5899999000000005,-9.744400978088379,-0.21308395266532898,1.280897855758667,14.8162841796875,-23.1475830078125,-3.265380859375
7.609999900000001,-9.619902610778809,-0.17956513166427612,1.7549498081207275,11.5814208984375,-17.9443359375,-4.1351318359375
7.6299999000000005,-9.552865028381348,-0.09576806426048279,2.2697031497955322,11.383056640625,-10.4217529296875,-5.4168701171875
7.649999900000001,-9.490615844726562,0.0071826050989329815,2.734178304672241,9.3231201171875,-2.0751953125,-5.523681640625
7.6699999000000005,-9.406818389892578,0.14604631066322327,3.354276657104492,-3.0364990234375,8.575439453125,-5.4168701171875
7.6899999,-9.284713745117188,0.33039984107017517,3.7876269817352295,-35.919189453125,30.609130859375,-6.77490234375
7.709999900000001,-9.227252960205078,0.31364041566848755,3.993528366088867,-62.6220703125,50.10986328125,-3.84521484375
7.7299999,-9.308655738830566,0.12210428714752197,3.6583402156829834,-64.7430419921875,50.9796142578125,4.8828125
7.749999900000001,-9.411606788635254,-0.3016694188117981,2.7772738933563232,-50.9185791015625,39.9017333984375,11.3525390625
7.7699999,-9.715670585632324,-0.8044517636299133,1.5107412338256836,-28.533935546875,32.1502685546875,9.857177734375
7.789999900000001,-9.979032516479492,-1.2258312702178955,0.2585737705230713,-2.9449462890625,20.2789306640625,11.6729736328125
7.8099999,-10.137049674987793,-1.414973258972168,-0.5530605912208557,6.4239501953125,9.307861328125,8.056640625
7.829999900000001,-10.33098030090332,-1.0965443849563599,-0.9816226959228516,3.814697265625,1.1749267578125,10.3912353515625
7.8499999,-10.366893768310547,-0.6584054827690125,-0.9097966551780701,2.5482177734375,-3.90625,11.8408203125
7.869999900000001,-10.376470565795898,-0.07900865375995636,-0.7709329724311829,3.0364990234375,-8.8653564453125,-0.213623046875
7.8899999,-10.316615104675293,0.3878606855869293,-0.304063618183136,14.068603515625,-22.9644775390625,-7.720947265625
7.909999900000001,-10.1753568649292,0.45489832758903503,0.19632454216480255,12.359619140625,-22.7813720703125,-5.2490234375
7.9299999,-10.029311180114746,0.35673606395721436,0.7876923680305481,4.0740966796875,-7.476806640625,-5.462646484375
7.949999900000001,-9.928754806518555,0.0694318488240242,1.403002142906189,4.82177734375,-10.955810546875,-4.6539306640625
7.9699999,-9.749189376831055,-0.2561795711517334,1.766920804977417,4.241943359375,-11.627197265625,2.1514892578125
7.989999900000001,-9.708487510681152,-0.43095630407333374,2.008735179901123,3.6773681640625,-2.9449462890625,2.6397705078125
8.0099999,-9.581595420837402,-0.5626373887062073,2.030282974243164,2.44140625,-3.204345703125,2.9754638671875
8.0299999,-9.514557838439941,-0.49320554733276367,1.9704279899597168,3.96728515625,3.875732421875,2.6702880859375
8.049999900000001,-9.588777542114258,-0.304063618183136,2.0159177780151367,-1.1749267578125,8.087158203125,5.9967041015625
8.069999900000001,-9.593565940856934,-0.0454898327589035,1.9393033981323242,-20.93505859375,6.927490234375,1.1444091796875
8.0899999,-9.691728591918945,0.22744916379451752,2.2026655673980713,-32.135009765625,19.95849609375,-3.3111572265625
8.1099999,-9.727641105651855,0.47405192255973816,2.2577321529388428,-42.3583984375,30.792236328125,-4.852294921875
8.129999900000001,-9.734824180603027,0.3902548849582672,2.0829553604125977,-52.978515625,36.4227294921875,-4.4097900390625
8.149999900000001,-9.890447616577148,0.10773907601833344,1.5849615335464478,-36.6668701171875,32.40966796875,-0.9765625
8.1699999,-10.031704902648926,-0.36152446269989014,0.6991068720817566,-6.8206787109375,14.4805908203125,1.739501953125
8.1899999,-10.283096313476562,-1.0199298858642578,-0.2777273952960968,18.4783935546875,0.9918212890625,0.5035400390625
8.2099999,-10.474632263183594,-1.3096283674240112,-0.9433154463768005,43.1365966796875,-16.1285400390625,1.64794921875
8.229999900000001,-10.467450141906738,-1.4460978507995605,-1.278503656387329,46.5545654296875,-27.8778076171875,7.7362060546875
8.2499999,-10.457873344421387,-1.1755530834197998,-1.0319008827209473,36.6973876953125,-23.8189697265625,7.4310302734375
8.2699999,-10.230423927307129,-0.5985504388809204,-0.4429273009300232,29.571533203125,-28.594970703125,7.598876953125
8.2899999,-10.04846477508545,0.004788403399288654,0.4381389021873474,17.4560546875,-28.350830078125,7.3089599609375
8.309999900000001,-9.81143856048584,0.5674257874488831,1.37906014919281,-0.732421875,-14.9078369140625,-2.4871826171875
8.3299999,-9.66299819946289,0.8954314589500427,2.164358377456665,-15.80810546875,-4.8828125,-7.2021484375
8.3499999,-9.473855972290039,0.811634361743927,2.691082715988159,-22.39990234375,5.0201416015625,-2.0294189453125
8.3699999,-9.485827445983887,0.5554547905921936,2.8203697204589844,-20.44677734375,9.5062255859375,-0.18310546875
8.389999900000001,-9.521739959716797,0.08619125932455063,2.5091233253479004,-11.1846923828125,6.1798095703125,0.5645751953125
8.4099999,-9.703699111938477,-0.33039984107017517,2.027888774871826,1.3580322265625,6.9427490234375,-2.0294189453125
8.4299999,-9.830592155456543,-0.5793967843055725,1.4700398445129395,10.3302001953125,4.21142578125,-4.39453125
8.4499999,-9.9000244140625,-0.5051765441894531,1.1037269830703735,11.5966796875,1.5869140625,-0.274658203125
8.469999900000001,-9.998186111450195,-0.4357447028160095,0.9313444495201111,4.4403076171875,4.5928955078125,-1.129150390625
8.4899999,-9.99339771270752,-0.15083470940589905,0.8930372595787048,-0.79345703125,3.8299560546875,-4.5166015625
8.5099999,-9.983820915222168,-0.016759412363171577,0.9433154463768005,-1.6632080078125,2.685546875,-6.0577392578125
8.5299999,-9.983820915222168,0.023942016065120697,1.1037269830703735,-5.523681640625,3.47900390625,-6.7291259765625
8.549999900000001,-9.883264541625977,0.028730420395731926,1.2737152576446533,-11.7645263671875,7.415771484375,-4.57763671875
8.569999900000001,-9.883264541625977,-0.05506663769483566,1.3838485479354858,-13.48876953125,11.23046875,-0.9002685546875
8.5899999,-9.90241813659668,-0.21787235140800476,1.3120225667953491,-9.33837890625,7.9803466796875,0.18310546875
8.6099999,-9.880870819091797,-0.3495534360408783,1.0606313943862915,-1.2664794921875,0,-2.1820068359375
8.629999900000001,-10.0580415725708,-0.5291185975074768,0.7158663272857666,5.126953125,-2.5787353515625,-3.875732421875
8.649999900000001,-9.976638793945312,-0.730231523513794,0.45010992884635925,12.4969482421875,-7.2479248046875,-0.244140625
8.6699999,-10.08437728881836,-0.7493851184844971,0.395043283700943,20.0653076171875,-8.8653564453125,3.3111572265625
8.6899999,-10.041281700134277,-0.6991068720817566,0.5003881454467773,16.8304443359375,-13.85498046875,9.3536376953125
8.709999900000001,-9.921571731567383,-0.5339069962501526,0.8547300100326538,0.9307861328125,-11.90185546875,6.2103271484375
8.729999900000001,-9.90241813659668,-0.16998831927776337,1.3192051649093628,-10.223388671875,-6.28662109375,3.7841796875
8.7499999,-9.718064308166504,0.004788403399288654,1.7118542194366455,-19.1192626953125,0.4119873046875,2.471923828125
8.7699999,-9.63187313079834,0.2585737705230713,2.099714994430542,-19.6990966796875,10.284423828125,0.4425048828125
8.7899999,-9.672574996948242,0.33758243918418884,2.2385785579681396,-14.8468017578125,10.9710693359375,2.6092529296875
8.809999900000001,-9.68933391571045,0.24660277366638184,2.0805611610412598,-19.34814453125,14.190673828125,-3.173828125
8.8299999,-9.818621635437012,0.2322375625371933,1.7980455160140991,-6.0882568359375,11.627197265625,-7.01904296875
8.8499999,-9.880870819091797,-0.031124621629714966,1.4269442558288574,2.960205078125,6.7596435546875,-7.7056884765625
8.8699999,-9.981427192687988,-0.1604115068912506,0.9648633003234863,-3.204345703125,10.0860595703125,-9.2620849609375
8.889999900000001,-10.096348762512207,-0.4189853072166443,0.6272808313369751,6.2408447265625,7.293701171875,-3.265380859375
8.9099999,-10.20887565612793,-0.6344634294509888,0.3447650372982025,21.728515625,-5.157470703125,0.2288818359375
8.9299999,-10.192116737365723,-0.706289529800415,0.17956513166427612,27.923583984375,-13.427734375,-6.5155029296875
8.9499999,-10.304644584655762,-0.7924807667732239,0.1867477297782898,26.123046875,-11.7034912109375,-3.9520263671875
8.969999900000001,-9.859322547912598,-0.6344634294509888,0.5530605912208557,19.34814453125,-15.0909423828125,-1.89208984375
8.9899999,-9.962273597717285,-0.44532153010368347,0.9481038451194763,7.080078125,-4.1656494140625,-0.2288818359375
9.0099999,-9.758766174316406,-0.31124621629714966,1.4532804489135742,-8.1634521484375,-3.0517578125,11.3067626953125
9.0299999,-9.679757118225098,-0.1149216815829277,1.9057846069335938,-25.5279541015625,-0.6866455078125,4.608154296875
9.049999900000001,-9.830592155456543,0.009576806798577309,2.1715409755706787,-33.294677734375,10.894775390625,-1.89208984375
9.069999900000001,-9.667786598205566,-0.08858546614646912,2.097320795059204,-32.8826904296875,15.9149169921875,4.2724609375
9.0899999,-9.835380554199219,-0.14604631066322327,1.6831238269805908,-14.7247314453125,13.7939453125,2.960205078125
9.1099999,-9.983820915222168,-0.3687070608139038,0.9481038451194763,17.9901123046875,-4.1656494140625,4.1046142578125
9.129999900000001,-10.089165687561035,-0.5386953949928284,0.33758243918418884,39.4134521484375,-20.751953125,1.2359619140625
9.149999900000001,-10.218452453613281,-0.5195417404174805,0.10055647045373917,43.3349609375,-22.5677490234375,-6.9732666015625
9.1699999,-10.062829971313477,-0.3447650372982025,0.6033388376235962,29.1290283203125,-15.716552734375,-6.3323974609375
9.1899999,-9.892841339111328,-0.1388636976480484,1.3742717504501343,-3.4942626953125,8.453369140625,-4.0130615234375
9.209999900000001,-9.72285270690918,0.17238251864910126,2.1284453868865967,-23.0712890625,22.5830078125,4.8828125
9.229999900000001,-9.639056205749512,0.2992752194404602,2.3989901542663574,-19.9432373046875,15.6097412109375,-0.0762939453125
9.2499999,-9.713275909423828,0.304063618183136,2.1164743900299072,-7.1868896484375,9.9639892578125,-12.6800537109375
9.2699999,-9.84495735168457,0.1388636976480484,1.482010841369629,2.349853515625,6.561279296875,-13.7481689453125
9.2899999,-9.856928825378418,-0.16759411990642548,0.7924807667732239,4.69970703125,-1.8157958984375,-10.9710693359375
9.309999900000001,-10.096348762512207,-0.6416460275650024,0.27054479718208313,8.087158203125,-4.8980712890625,-2.166748046875
9.3299999,-10.113107681274414,-1.115697979927063,0.12210428714752197,16.265869140625,-14.7857666015625,11.6424560546875
9.3499999,-10.101137161254883,-1.2330138683319092,0.26815059781074524,17.7764892578125,-20.20263671875,8.270263671875
9.3699999,-10.072406768798828,-1.1085153818130493,0.7972691655158997,8.941650390625,-9.918212890625,7.14111328125
9.389999900000001,-9.761159896850586,-0.6607996821403503,1.4245500564575195,-8.1329345703125,-0.1373291015625,8.392333984375
9.4099999,-9.761159896850586,-0.08619125932455063,1.8363527059555054,-21.484375,11.0321044921875,5.767822265625
9.4299999,-9.715670585632324,0.27054479718208313,1.920149803161621,-19.3328857421875,4.39453125,7.4920654296875
9.4499999,-9.703699111938477,0.3711012601852417,1.742978811264038,-10.5438232421875,-4.5013427734375,-0.8697509765625
9.469999900000001,-9.890447616577148,0.2753331959247589,1.3120225667953491,-1.7852783203125,-3.7994384765625,-5.2032470703125
9.4899999,-9.768342971801758,-0.05027823522686958,1.2090718746185303,6.8817138671875,-7.568359375,1.617431640625
9.5099999,-9.837775230407715,-0.22505496442317963,1.2042834758758545,5.4931640625,-2.471923828125,-0.3814697265625
9.5299999,-9.923966407775879,-0.38546648621559143,1.2210428714752197,-5.615234375,6.8511962890625,6.1187744140625
9.549999900000001,-9.8784761428833,-0.40222588181495667,1.403002142906189,-9.429931640625,0.518798828125,6.7901611328125
9.569999900000001,-9.904812812805176,-0.2106897532939911,1.455674648284912,-6.8817138671875,-3.3111572265625,-4.8675537109375
9.5899999,-9.888052940368652,-0.21308395266532898,1.436521053314209,-10.2691650390625,5.6610107421875,-2.5787353515625
9.6099999,-9.821015357971191,-0.19393034279346466,1.3934253454208374,-3.997802734375,7.171630859375,1.6326904296875
9.629999900000001,-9.983820915222168,-0.21547815203666687,1.278503656387329,11.444091796875,-1.6021728515625,3.7384033203125
9.649999900000001,-10.08198356628418,-0.33039984107017517,1.0606313943862915,14.8773193359375,-9.2010498046875,4.974365234375
9.6699999,-10.04846477508545,-0.2585737705230713,1.1420341730117798,11.3677978515625,-11.9476318359375,-0.5950927734375
9.6899999,-10.04846477508545,-0.1628057211637497,1.3623007535934448,-4.5928955078125,-0.5340576171875,-5.2032470703125
9.709999900000001,-9.825803756713867,-0.11971008777618408,1.7334020137786865,-18.9208984375,11.7340087890625,2.6092529296875
9.729999900000001,-9.770736694335938,-0.08379705995321274,1.824381709098816,-18.2952880859375,17.7154541015625,7.7667236328125
9.7499999,-9.794678688049316,-0.20350714027881622,1.625662922859192,0.8087158203125,4.486083984375,7.9193115234375
9.7699999,-9.892841339111328,-0.2944868206977844,1.2210428714752197,18.707275390625,-10.772705078125,0.732421875
9.7899999,-10.000580787658691,-0.21547815203666687,0.9768342971801758,15.7012939453125,-9.46044921875,-6.927490234375
9.809999900000001,-9.916783332824707,-0.0933738648891449,1.094150185585022,2.471923828125,-4.119873046875,-1.3885498046875
9.8299999,-9.876082420349121,0.05746084079146385,1.3503297567367554,-13.8092041015625,11.4898681640625,0.5340576171875
9.8499999,-9.830592155456543,0.09576806426048279,1.482010841369629,-15.533447265625,12.8326416015625,4.0283203125
9.8699999,-9.63187313079834,0.12449848651885986,1.5298948287963867,-4.6234130859375,-4.2572021484375,1.617431640625
9.889999900000001,-9.050082206726074,0.08379705995321274,1.7741034030914307,-7.293701171875,-2.99072265625,0.79345703125
9.9099999,-8.841787338256836,0.1843535304069519,1.9943699836730957,-35.919189453125,21.9879150390625,-0.7476806640625
9.9299999,-8.391676902770996,-0.011971008032560349,2.1045033931732178,-59.2803955078125,43.243408203125,0.4425048828125
9.9499999,-8.83939266204834,-0.2753331959247589,1.7357962131500244,-33.2794189453125,29.8309326171875,19.9737548828125
9.969999900000001,-9.548076629638672,-0.7134721279144287,0.8403648138046265,20.5230712890625,-6.4544677734375,10.528564453125
9.9899999,-10.134655952453613,-0.9385270476341248,-0.1173158809542656,57.9071044921875,-19.95849609375,3.2501220703125
10.0099999,-10.38604736328125,-0.8978256583213806,-0.5027823448181152,70.526123046875,-22.308349609375,1.3275146484375
10.0299999,-10.218452453613281,-0.47644615173339844,-0.20111294090747833,59.4482421875,-25.9857177734375,-2.13623046875
10.049999900000001,-10.093954086303711,0.040701430290937424,0.6631938815116882,29.296875,-8.97216796875,-3.9825439453125
10.069999900000001,-9.99339771270752,0.47405192255973816,1.6615760326385498,-0.5950927734375,11.3067626953125,-0.54931640625
10.0899999,-10.180145263671875,0.8355764150619507,2.279279947280884,-18.9056396484375,23.834228515625,2.5177001953125
10.1099999,-10.632649421691895,0.6919242739677429,2.2194249629974365,-14.16015625,17.5628662109375,0.1678466796875
10.129999900000001,-10.754754066467285,0.5626373887062073,1.7405846118927002,12.26806640625,-4.57763671875,-7.110595703125
10.149999900000001,-10.977415084838867,0.035913024097681046,1.2042834758758545,23.040771484375,-11.322021484375,-0.5950927734375
10.1699999,-10.776301383972168,-0.3064578175544739,0.9840168952941895,9.613037109375,-7.0037841796875,9.3841552734375
10.1899999,-10.47702693939209,-0.5770025849342346,1.1228805780410767,-5.4779052734375,4.974365234375,15.899658203125
10.209999900000001,-10.065223693847656,-0.6919242739677429,1.3479355573654175,-9.8114013671875,13.12255859375,19.775390625
10.229999900000001,-9.859322547912598,-0.569819986820221,1.4053963422775269,-4.1656494140625,12.5885009765625,23.406982421875
10.2499999,-9.734824180603027,-0.3208230137825012,1.2497732639312744,5.67626953125,3.0364990234375,19.9432373046875
10.2699999,-9.72285270690918,0.10773907601833344,1.036689281463623,8.9263916015625,-4.5928955078125,14.1448974609375
10.2899999,-9.744400978088379,0.5674257874488831,0.9457096457481384,2.6702880859375,-1.373291015625,9.5062255859375
10.309999900000001,-9.785101890563965,0.8834604024887085,0.9409212470054626,-6.4544677734375,6.1492919921875,3.326416015625
10.3299999,-9.80904483795166,0.9888052940368652,1.0031704902648926,-2.3040771484375,4.33349609375,0.8392333984375
10.3499999,-9.84495735168457,0.9361328482627869,1.0606313943862915,11.3067626953125,-2.01416015625,1.5106201171875
10.3699999,-9.873687744140625,0.7350199222564697,1.0678139925003052,15.228271484375,0.18310546875,-1.3275146484375
10.389999900000001,-9.895236015319824,0.586579442024231,1.1180921792984009,8.11767578125,3.11279296875,-2.716064453125
10.4099999,-9.888052940368652,0.545877993106842,1.1540051698684692,0.6561279296875,3.47900390625,-1.28173828125
10.4299999,-9.90241813659668,0.569819986820221,1.1563993692398071,1.5869140625,4.2266845703125,-3.23486328125
10.4499999,-9.926360130310059,0.5674257874488831,1.0869675874710083,8.056640625,1.89208984375,-9.3231201171875
10.469999900000001,-9.93354320526123,0.4644751250743866,1.048660397529602,9.5367431640625,-2.13623046875,-9.9029541015625
10.4899999,-9.940725326538086,0.2513911724090576,1.036689281463623,3.0975341796875,0.5340576171875,-0.8392333984375
10.5099999,-9.93593692779541,0.1173158809542656,1.1348515748977661,-4.1046142578125,4.0740966796875,9.613037109375
10.5299999,-9.909601211547852,0.20350714027881622,1.292868971824646,-14.923095703125,6.439208984375,9.8419189453125
10.549999900000001,-9.923966407775879,0.4812345504760742,1.4053963422775269,-31.3262939453125,12.5579833984375,1.2969970703125
10.569999900000001,-9.99100399017334,0.706289529800415,1.335964560508728,-36.773681640625,16.05224609375,-5.2642822265625
10.5899999,-10.098742485046387,0.7015010714530945,1.0247182846069336,-21.9573974609375,8.1634521484375,-4.4097900390625
10.6099999,-10.292673110961914,0.40701428055763245,0.5722141861915588,2.99072265625,-5.0811767578125,-1.0223388671875
10.629999900000001,-10.484209060668945,-0.004788403399288654,0.22744916379451752,24.444580078125,-17.2576904296875,1.0986328125
10.649999900000001,-10.457873344421387,-0.20350714027881622,0.33039984107017517,27.4658203125,-20.355224609375,5.06591796875
10.6699999,-10.309432983398438,-0.06464344263076782,0.8355764150619507,6.439208984375,-4.21142578125,8.697509765625
10.6899999,-10.034099578857422,0.2059013396501541,1.37906014919281,-19.195556640625,17.4560546875,5.4779052734375
10.709999900000001,-9.77791976928711,0.5674257874488831,1.7190368175506592,-25.9246826171875,17.4407958984375,5.79833984375
10.729999900000001,-9.569623947143555,0.9217676520347595,1.821987509727478,-19.83642578125,6.3018798828125,5.7830810546875
10.7499999,-9.459490776062012,0.950498104095459,1.6615760326385498,-24.4140625,9.9639892578125,-3.41796875
10.7699999,-9.457097053527832,0.933738648891449,1.290474772453308,-29.9072265625,23.956298828125,-6.0882568359375
10.7899999,-9.639056205749512,0.6129156351089478,0.8020575642585754,-12.87841796875,12.6495361328125,0.6256103515625
10.809999900000001,-9.967061996459961,0.24420857429504395,0.2825157940387726,16.998291015625,-14.0228271484375,1.2664794921875
10.8299999,-10.271124839782715,-0.10295066982507706,-0.009576806798577309,32.1197509765625,-23.406982421875,-0.6866455078125
10.8499999,-10.608707427978516,-0.19871874153614044,0.19393034279346466,23.406982421875,-9.613037109375,-1.708984375
10.8699999,-10.675745010375977,-0.12689268589019775,0.6009446382522583,10.8795166015625,5.096435546875,0.885009765625
10.889999900000001,-10.572794914245605,0.21787235140800476,1.091755986213684,8.6822509765625,0.42724609375,11.1846923828125
10.9099999,-10.220847129821777,0.5434837937355042,1.381454348564148,2.471923828125,-5.1422119140625,4.08935546875
10.9299999,-9.821015357971191,0.8571242094039917,1.4269442558288574,-10.2691650390625,6.988525390625,-6.1798095703125
10.9499999,-9.452308654785156,0.9983820915222168,1.3934253454208374,-13.3819580078125,11.1083984375,-3.5247802734375
10.969999900000001,-9.428366661071777,0.9888052940368652,1.3120225667953491,-9.0789794921875,0.823974609375,0.579833984375
10.9899999,-9.493009567260742,0.7182605266571045,1.1492167711257935,-11.1846923828125,2.5482177734375,-3.3721923828125
11.0099999,-9.780313491821289,0.49320554733276367,0.9481038451194763,-12.3748779296875,10.9100341796875,-0.6103515625
11.0299999,-9.923966407775879,0.23702596127986908,0.768538773059845,-2.8533935546875,2.4566650390625,5.37109375
11.049999900000001,-10.213664054870605,0.17956513166427612,0.6368576288223267,7.2174072265625,-9.490966796875,3.936767578125
11.069999900000001,-10.472238540649414,0.15562310814857483,0.6488286852836609,5.2337646484375,-5.2032470703125,-3.0364990234375
11.0899999,-10.903194427490234,0.30885201692581177,0.7709329724311829,0.1983642578125,3.082275390625,-3.143310546875
11.1099999,-10.958261489868164,0.45010992884635925,0.9289502501487732,3.5552978515625,-2.8076171875,-1.5716552734375
11.129999900000001,-12.016498565673828,0.6703764796257019,1.1204863786697388,8.2855224609375,-4.0740966796875,-6.65283203125
11.149999900000001,-12.234370231628418,0.8140285611152649,1.0630255937576294,2.62451171875,-10.6048583984375,-32.470703125
11.1699999,-13.323732376098633,0.933738648891449,1.1013327836990356,-1.9989013671875,-19.287109375,-7.0037841796875
11.1899999,-13.354857444763184,0.8619126081466675,0.9720458984375,2.3193359375,-42.449951171875,-15.8233642578125
11.209999900000001,-12.928689002990723,0.689530074596405,0.8403648138046265,10.7879638671875,-31.707763671875,-35.7513427734375
11.229999900000001,-11.78904914855957,0.4357447028160095,0.7230489253997803,17.425537109375,-13.4429931640625,-35.0494384765625
11.2499999,-10.247182846069336,0.12449848651885986,0.6368576288223267,19.7296142578125,-6.5155029296875,-25.0701904296875
11.2699999,-7.395689010620117,-0.3711012601852417,0.7086837291717529,14.0838623046875,5.645751953125,-9.1400146484375
11.2899999,-6.593631267547607,-0.4668693244457245,0.8475474119186401,4.8980712890625,13.0767822265625,-10.80322265625
11.309999900000001,-6.265625953674316,-0.5985504388809204,0.768538773059845,8.758544921875,17.76123046875,-20.4620361328125
11.3299999,-6.311115741729736,-0.5650315880775452,0.8044517636299133,24.322509765625,11.2762451171875,-23.4527587890625
11.3499999,-6.581660270690918,-0.5482721924781799,0.7493851184844971,27.5726318359375,5.2337646484375,-14.5721435546875
11.3699999,-6.950367450714111,-0.4357447028160095,0.9097966551780701,16.7236328125,3.570556640625,-5.584716796875
11.389999900000001,-7.3669586181640625,-0.31842881441116333,1.2258312702178955,1.9989013671875,10.5743408203125,-5.828857421875
11.4099999,-7.845798969268799,-0.26575639843940735,1.5753847360610962,-10.1318359375,18.12744140625,-9.307861328125
11.4299999,-8.382100105285645,-0.33039984107017517,1.8363527059555054,-18.341064453125,18.890380859375,-9.2926025390625
11.4499999,-8.911218643188477,-0.5386953949928284,1.9129672050476074,-23.0712890625,16.326904296875,-10.4827880859375
11.469999900000001,-9.378087997436523,-0.8475474119186401,1.7932571172714233,-23.284912109375,12.02392578125,-13.641357421875
11.4899999,-9.713275909423828,-1.170764684677124,1.5203180313110352,-19.134521484375,7.7667236328125,-14.9993896484375
11.5099999,-9.86889934539795,-1.4460978507995605,1.170764684677124,-12.26806640625,7.1258544921875,-14.0838623046875
11.5299999,-9.947908401489258,-1.5849615335464478,0.8667010068893433,-5.767822265625,8.4381103515625,-10.406494140625
11.549999900000001,-10.050858497619629,-1.5610195398330688,0.6871358752250671,-2.8228759765625,12.0391845703125,-9.918212890625
11.569999900000001,-10.218452453613281,-1.400607943534851,0.6488286852836609,-2.655029296875,10.9710693359375,-13.6260986328125
11.5899999,-10.436325073242188,-1.1420341730117798,0.7182605266571045,-3.1585693359375,1.556396484375,-13.48876953125
11.6099999,-10.60391902923584,-0.8762778043746948,0.8307880163192749,-3.5552978515625,-3.082275390625,-12.054443359375
11.629999900000001,-10.666168212890625,-0.6320692300796509,0.9265560507774353,-3.8604736328125,2.166748046875,-13.824462890625
11.649999900000001,-10.606313705444336,-0.47165772318840027,0.993593692779541,-3.3721923828125,7.4462890625,-15.350341796875
11.6699999,-10.520122528076172,-0.3711012601852417,1.0199298858642578,-2.4566650390625,7.14111328125,-11.688232421875
11.6899999,-10.431536674499512,-0.33518823981285095,1.0462661981582642,-3.021240234375,2.86865234375,-7.781982421875
11.709999900000001,-10.38844108581543,-0.35913026332855225,1.0965443849563599,-2.899169921875,-0.4730224609375,-4.0283203125
11.729999900000001,-10.398017883300781,-0.395043283700943,1.2090718746185303,-3.7384033203125,-4.8828125,-0.30517578125
11.7499999,-10.457873344421387,-0.4405331015586853,1.3862427473068237,-6.7901611328125,-7.6141357421875,-0.2593994140625
11.7699999,-10.5344877243042,-0.4836287498474121,1.5897499322891235,-9.674072265625,-6.89697265625,-3.6163330078125
11.7899999,-10.558429718017578,-0.5219359993934631,1.7717092037200928,-10.8795166015625,-11.6119384765625,-4.7760009765625
11.809999900000001,-10.503362655639648,-0.5482721924781799,1.9057846069335938,-11.1846923828125,-19.83642578125,-1.617431640625
11.8299999,-10.333374977111816,-0.5722141861915588,1.987187385559082,-11.5814208984375,-22.1710205078125,1.6632080078125
11.8499999,-10.091560363769531,-0.5746083855628967,2.0374655723571777,-12.5885009765625,-21.240234375,4.69970703125
11.8699999,-9.825803756713867,-0.5482721924781799,2.049436569213867,-14.6026611328125,-21.148681640625,7.4005126953125
11.889999900000001,-9.57441234588623,-0.5147533416748047,2.0398597717285156,-17.6239013671875,-19.805908203125,7.4920654296875
11.9099999,-9.39245319366455,-0.4884171485900879,1.9800047874450684,-20.660400390625,-15.3045654296875,7.32421875
11.9299999,-9.277531623840332,-0.49320554733276367,1.8555063009262085,-21.54541015625,-15.960693359375,10.0250244140625
11.9499999,-9.232041358947754,-0.5315127968788147,1.678335428237915,-20.9197998046875,-18.9361572265625,13.5498046875
11.969999900000001,-9.263166427612305,-0.6153098344802856,1.4437036514282227,-19.256591796875,-14.862060546875,13.9923095703125
11.9899999,-9.387664794921875,-0.7086837291717529,1.1971008777618408,-16.387939453125,-9.307861328125,13.153076171875
12.0099999,-9.567230224609375,-0.8092401623725891,0.9600749015808105,-12.26806640625,-8.697509765625,12.1612548828125
12.0299999,-9.780313491821289,-0.8858546018600464,0.7733271718025208,-7.8887939453125,-8.9111328125,10.5438232421875
12.049999900000001,-10.000580787658691,-0.9289502501487732,0.6512228846549988,-3.448486328125,-5.79833984375,9.0484619140625
12.069999900000001,-10.1753568649292,-0.9361328482627869,0.5889736413955688,-0.4425048828125,-6.53076171875,8.7890625
12.0899999,-10.271124839782715,-0.9193734526634216,0.5722141861915588,1.4801025390625,-10.772705078125,7.9345703125
12.1099999,-10.261548042297363,-0.8954314589500427,0.586579442024231,4.150390625,-10.9405517578125,5.67626953125
12.129999900000001,-10.134655952453613,-0.8595184087753296,0.6248866319656372,6.1798095703125,-4.9285888671875,5.18798828125
12.149999900000001,-9.931148529052734,-0.8044517636299133,0.6943184733390808,4.852294921875,5.0506591796875,5.0506591796875
12.1699999,-9.732429504394531,-0.7350199222564697,0.7948749661445618,0.335693359375,15.899658203125,3.0364990234375
12.1899999,-9.588777542114258,-0.6607996821403503,0.9193734526634216,-4.547119140625,14.58740234375,4.058837890625
12.209999900000001,-9.555258750915527,-0.6129156351089478,1.0462661981582642,-8.48388671875,9.6588134765625,7.5531005859375
12.229999900000001,-9.622296333312988,-0.6057330369949341,1.1563993692398071,-9.857177734375,12.054443359375,7.14111328125
12.2499999,-9.770736694335938,-0.629675030708313,1.2473790645599365,-9.0789794921875,11.9476318359375,1.9989013671875
12.2699999,-9.909601211547852,-0.6775590777397156,1.292868971824646,-6.378173828125,5.2490234375,-1.5716552734375
12.289999900000002,-10.362105369567871,-0.7637503147125244,1.3623007535934448,-1.5411376953125,0.6561279296875,0.5645751953125
12.309999900000001,-10.503362655639648,-0.7541735172271729,1.3239935636520386,5.37109375,-12.0391845703125,-0.1983642578125
12.3299999,-10.6925048828125,-0.7445967197418213,1.3455413579940796,11.90185546875,-12.8631591796875,9.8419189453125
12.3499999,-10.556035041809082,-0.5913678407669067,1.3982137441635132,15.045166015625,-7.781982421875,8.1329345703125
12.3699999,-10.261548042297363,-0.45489832758903503,1.5466543436050415,12.6190185546875,-5.4168701171875,6.2408447265625
12.389999900000001,-9.911994934082031,-0.42377370595932007,1.7932571172714233,13.7786865234375,-1.434326171875,5.1116943359375
12.4099999,-9.706093788146973,-0.47884035110473633,2.1475989818573,17.181396484375,1.800537109375,4.2572021484375
12.4299999,-9.5408935546875,-0.5291185975074768,2.5258827209472656,11.3525390625,11.3067626953125,11.322021484375
12.4499999,-9.457097053527832,-0.44771572947502136,2.801215887069702,-6.3934326171875,23.4527587890625,10.406494140625
12.469999900000001,-9.464279174804688,-0.20111294090747833,2.8850131034851074,-20.721435546875,31.2347412109375,4.1961669921875
12.4899999,-9.516951560974121,0.07661445438861847,2.609679937362671,-26.4892578125,32.89794921875,1.922607421875
12.5099999,-9.651026725769043,0.33518823981285095,2.121262788772583,-26.4434814453125,30.1971435546875,1.251220703125
12.5299999,-9.792284965515137,0.5003881454467773,1.534683346748352,-25.054931640625,26.947021484375,-1.251220703125
12.549999900000001,-9.947908401489258,0.4836287498474121,0.9361328482627869,-24.6124267578125,23.895263671875,-6.4544677734375
12.569999900000001,-10.070012092590332,0.31124621629714966,0.47405192255973816,-21.4080810546875,16.9830322265625,-9.9029541015625
12.5899999,-10.110713958740234,0.043095629662275314,0.17477671802043915,-22.2930908203125,11.0931396484375,-7.5531005859375
12.6099999,-10.110713958740234,-0.3902548849582672,-0.07182604819536209,-17.7001953125,9.124755859375,-5.889892578125
12.629999900000001,-10.098742485046387,-0.8212111592292786,-0.19632454216480255,-5.8135986328125,2.6397705078125,-5.2490234375
12.649999900000001,-10.101137161254883,-1.2258312702178955,-0.26096799969673157,2.8839111328125,-7.9803466796875,3.0059814453125
12.6699999,-10.079588890075684,-1.4293384552001953,-0.2825157940387726,6.16455078125,-13.5498046875,13.885498046875
12.6899999,-10.20648193359375,-1.5155296325683594,-0.2849099934101105,9.8114013671875,-17.2576904296875,12.054443359375
12.709999900000001,-10.168174743652344,-1.2665326595306396,-0.31124621629714966,23.101806640625,-27.7252197265625,6.0577392578125
12.729999900000001,-10.196905136108398,-0.8595184087753296,-0.12449848651885986,36.1175537109375,-39.1387939453125,6.9122314453125
12.7499999,-10.019734382629395,-0.21308395266532898,0.3926490843296051,34.5611572265625,-34.48486328125,3.997802734375
12.7699999,-9.797073364257812,0.4668693244457245,1.2330138683319092,13.824462890625,-20.0653076171875,-5.340576171875
12.789999900000002,-9.552865028381348,1.01753568649292,2.2457611560821533,-9.918212890625,-3.326416015625,-9.2620849609375
12.809999900000001,-9.330204010009766,1.3623007535934448,3.2082302570343018,-28.4271240234375,8.7127685546875,-10.5438232421875
12.8299999,-9.265560150146484,1.2425906658172607,3.6846764087677,-42.694091796875,20.9808349609375,-13.671875
12.8499999,-9.301473617553711,0.8619126081466675,3.7181951999664307,-50.6591796875,36.590576171875,-12.298583984375
12.8699999,-9.394847869873047,0.07422025501728058,3.155557870864868,-45.440673828125,40.0848388671875,-6.7596435546875
12.889999900000001,-9.62947940826416,-0.7086837291717529,2.205059766769409,-28.3660888671875,31.2957763671875,-8.8958740234375
12.9099999,-9.828198432922363,-1.4772224426269531,0.9385270476341248,0.518798828125,19.683837890625,-2.0904541015625
12.9299999,-10.220847129821777,-2.008735179901123,-0.2513911724090576,29.7088623046875,6.5765380859375,6.2255859375
12.9499999,-10.395624160766602,-2.1356279850006104,-1.094150185585022,43.0755615234375,-7.8277587890625,9.490966796875
12.969999900000001,-10.527304649353027,-1.9057846069335938,-1.4245500564575195,39.2913818359375,-21.5911865234375,6.3018798828125
12.9899999,-10.512939453125,-1.2210428714752197,-1.05105459690094,26.9012451171875,-26.0009765625,7.0037841796875
13.0099999,-10.230423927307129,-0.43095630407333374,-0.29209262132644653,6.7138671875,-17.4713134765625,3.90625
13.0299999,-10.017339706420898,0.36152446269989014,0.7613561153411865,-7.537841796875,-8.6822509765625,-4.1961669921875
13.049999900000001,-9.780313491821289,0.8164227604866028,1.745373010635376,-12.542724609375,-1.46484375,-7.1258544921875
13.069999900000001,-9.643844604492188,0.8355764150619507,2.341529369354248,-17.76123046875,1.983642578125,-6.3018798828125
13.0899999,-9.583989143371582,0.40940847992897034,2.499546527862549,-16.3421630859375,7.50732421875,-5.706787109375
13.1099999,-9.648633003234863,-0.17238251864910126,2.293645143508911,-8.636474609375,9.6588134765625,-6.0272216796875
13.129999900000001,-9.720458984375,-0.6057330369949341,1.9704279899597168,-5.7525634765625,5.2490234375,-1.5716552734375
13.149999900000001,-9.768342971801758,-1.0247182846069336,1.5921441316604614,-16.0064697265625,6.89697265625,3.4637451171875
13.1699999,-9.907206535339355,-1.1204863786697388,1.2306196689605713,-23.9715576171875,18.37158203125,3.3416748046875
13.1899999,-10.019734382629395,-1.1444283723831177,0.7805097699165344,-9.8876953125,6.378173828125,9.429931640625
13.209999900000001,-10.11789608001709,-1.1037269830703735,0.2561795711517334,8.97216796875,-10.2386474609375,9.5672607421875
13.229999900000001,-10.196905136108398,-0.9097966551780701,-0.26815059781074524,22.5677490234375,-19.04296875,2.5787353515625
13.2499999,-10.244789123535156,-0.730231523513794,-0.4405331015586853,27.2674560546875,-24.7344970703125,0.9002685546875
13.2699999,-10.072406768798828,-0.4908113479614258,-0.09816227108240128,20.599365234375,-29.23583984375,4.608154296875
13.289999900000002,-9.919178009033203,-0.26815059781074524,0.5291185975074768,1.9378662109375,-20.6146240234375,5.2642822265625
13.309999900000001,-9.859322547912598,-0.1867477297782898,1.3096283674240112,-10.8642578125,-8.6669921875,7.32421875
13.3299999,-9.732429504394531,-0.05985504388809204,1.8986018896102905,-6.4697265625,-10.5743408203125,8.23974609375
13.3499999,-9.694122314453125,-0.06703764945268631,2.183511972427368,0.3662109375,-12.39013671875,4.1351318359375
13.3699999,-9.68933391571045,-0.08619125932455063,2.3989901542663574,0.1220703125,-4.69970703125,1.3885498046875
13.389999900000001,-9.619902610778809,-0.05746084079146385,2.47560453414917,-11.4898681640625,3.4027099609375,2.8533935546875
13.4099999,-9.516951560974121,-0.0694318488240242,2.5258827209472656,-25.9857177734375,11.7034912109375,2.2125244140625
13.4299999,-9.545681953430176,0.035913024097681046,2.5282769203186035,-32.8521728515625,19.6533203125,4.0740966796875
13.4499999,-9.53849983215332,0.09576806426048279,2.3367409706115723,-42.449951171875,21.54541015625,7.354736328125
13.469999900000001,-9.68694019317627,0.08619125932455063,2.0398597717285156,-50.7354736328125,25.360107421875,2.0904541015625
13.4899999,-9.86889934539795,-0.14604631066322327,1.4460978507995605,-38.2537841796875,20.416259765625,-1.5716552734375
13.5099999,-10.11550235748291,-0.5410895943641663,0.6847416758537292,-3.96728515625,4.6844482421875,0.5035400390625
13.5299999,-10.268731117248535,-0.9481038451194763,-0.07661445438861847,28.4271240234375,-10.2996826171875,7.50732421875
13.549999900000001,-10.333374977111816,-1.2713210582733154,-0.6703764796257019,44.219970703125,-20.4315185546875,3.0670166015625
13.569999900000001,-10.378864288330078,-1.2042834758758545,-0.7374141216278076,50.4302978515625,-25.482177734375,3.9215087890625
13.5899999,-10.20887565612793,-0.7661445140838623,-0.2537853717803955,40.374755859375,-29.998779296875,7.232666015625
13.6099999,-10.000580787658691,-0.1388636976480484,0.5937620401382446,12.7105712890625,-23.712158203125,2.288818359375
13.629999900000001,-9.828198432922363,0.4429273009300232,1.5897499322891235,-11.6119384765625,-8.30078125,-4.39453125
13.649999900000001,-9.627084732055664,0.828393816947937,2.4851813316345215,-21.9573974609375,-1.953125,-2.777099609375
13.6699999,-9.421183586120605,0.7781155705451965,3.028665065765381,-26.5960693359375,1.617431640625,-2.7313232421875
13.6899999,-9.397241592407227,0.4429273009300232,3.162740468978882,-28.1829833984375,17.88330078125,-2.1514892578125
13.709999900000001,-9.452308654785156,0.033518824726343155,2.8802247047424316,-24.2767333984375,19.073486328125,5.6610107421875
13.729999900000001,-9.612719535827637,-0.43335050344467163,2.1930887699127197,-21.0418701171875,8.331298828125,9.1094970703125
13.7499999,-9.84495735168457,-0.7374141216278076,1.3670891523361206,-6.9580078125,1.6632080078125,4.425048828125
13.7699999,-10.160991668701172,-0.8403648138046265,0.7038952708244324,13.73291015625,-10.3759765625,0.8697509765625
13.789999900000002,-10.141838073730469,-0.7709329724311829,0.395043283700943,19.3634033203125,-11.5966796875,1.251220703125
13.809999900000001,-10.20887565612793,-0.5219359993934631,0.524330198764801,11.383056640625,-5.7220458984375,-0.0152587890625
13.8299999,-10.139444351196289,-0.19393034279346466,0.9552865028381348,5.615234375,-3.0059814453125,2.5787353515625
13.8499999,-9.971850395202637,0.15322890877723694,1.4293384552001953,-0.1983642578125,-4.791259765625,1.4801025390625
13.8699999,-9.8784761428833,0.2992752194404602,1.8124107122421265,-6.89697265625,2.0294189453125,-4.5318603515625
13.889999900000001,-9.749189376831055,0.3447650372982025,2.0446481704711914,-7.75146484375,5.79833984375,-7.5225830078125
13.9099999,-9.684545516967773,0.20111294090747833,2.1571757793426514,-4.8370361328125,3.7841796875,-3.5552978515625
13.9299999,-9.643844604492188,-0.05506663769483566,2.0685901641845703,-8.60595703125,7.0648193359375,-2.5177001953125
13.9499999,-9.720458984375,-0.304063618183136,1.8986018896102905,-9.33837890625,12.542724609375,-2.4566650390625
13.969999900000001,-9.813833236694336,-0.4118026793003082,1.5107412338256836,-3.5552978515625,5.9356689453125,2.3345947265625
13.9899999,-9.897629737854004,-0.4357447028160095,1.2066776752471924,5.3863525390625,-3.875732421875,1.7852783203125
14.0099999,-9.967061996459961,-0.33518823981285095,1.0271124839782715,5.0201416015625,-7.9193115234375,-4.852294921875
14.0299999,-9.99339771270752,-0.2082955539226532,1.048660397529602,-5.1727294921875,-0.9918212890625,-6.40869140625
14.049999900000001,-9.890447616577148,-0.2322375625371933,1.3192051649093628,-13.5498046875,1.8463134765625,0.3662109375
14.069999900000001,-9.81143856048584,-0.3016694188117981,1.522712230682373,-14.434814453125,5.37109375,1.1749267578125
14.0899999,-9.828198432922363,-0.4596867263317108,1.5442601442337036,-9.735107421875,5.889892578125,7.0648193359375
14.1099999,-9.8784761428833,-0.4596867263317108,1.4269442558288574,-6.6680908203125,0.1220703125,7.75146484375
14.129999900000001,-9.758766174316406,-0.49320554733276367,1.2210428714752197,-1.9073486328125,-10.162353515625,1.8157958984375
14.149999900000001,-9.914389610290527,-0.3495534360408783,1.314416766166687,1.800537109375,-9.124755859375,-2.8533935546875
14.1699999,-9.730035781860352,-0.22266076505184174,1.460463047027588,-6.6070556640625,3.5552978515625,3.1280517578125
14.1899999,-9.799467086791992,-0.11971008777618408,1.824381709098816,-12.8326416015625,12.847900390625,3.0670166015625
14.209999900000001,-9.84495735168457,-0.07182604819536209,1.965639591217041,-1.129150390625,10.7574462890625,1.556396484375
14.229999900000001,-9.93593692779541,0.023942016065120697,1.7717092037200928,9.9334716796875,7.32421875,-2.38037109375
14.2499999,-10.029311180114746,0.009576806798577309,1.3455413579940796,13.397216796875,1.1749267578125,-5.6610107421875
14.2699999,-10.034099578857422,0.05985504388809204,1.0869675874710083,16.0064697265625,-11.9476318359375,-10.4217529296875
14.289999900000002,-9.998186111450195,0.035913024097681046,1.015141487121582,6.072998046875,-6.7901611328125,-11.3525390625
14.309999900000001,-9.931148529052734,-0.08140286058187485,1.2330138683319092,-11.1541748046875,5.18798828125,-4.638671875
14.3299999,-9.840168952941895,-0.28730419278144836,1.5107412338256836,-12.2222900390625,7.7667236328125,-2.288818359375
14.3499999,-9.888052940368652,-0.5291185975074768,1.5203180313110352,0.518798828125,4.1046142578125,1.5106201171875
14.3699999,-9.955090522766113,-0.7015010714530945,1.3096283674240112,11.04736328125,-3.9520263671875,5.5084228515625
14.389999900000001,-9.986215591430664,-0.7134721279144287,1.0989385843276978,20.050048828125,-15.6097412109375,1.4801025390625
14.4099999,-10.022128105163574,-0.47405192255973816,1.1276689767837524,17.1051025390625,-14.22119140625,-5.0048828125
14.4299999,-9.801861763000488,-0.15322890877723694,1.4748282432556152,-2.0751953125,-1.8768310546875,-5.7373046875
14.4499999,-9.670180320739746,0.10773907601833344,1.9943699836730957,-22.430419921875,13.641357421875,-6.4239501953125
14.469999900000001,-9.567230224609375,0.18914192914962769,2.2433669567108154,-27.191162109375,19.7296142578125,-5.2642822265625
14.4899999,-9.667786598205566,-0.07900865375995636,1.9369091987609863,-16.4337158203125,12.8936767578125,0.8697509765625
14.5099999,-9.782708168029785,-0.4118026793003082,1.4077905416488647,6.8511962890625,-8.1329345703125,1.5869140625
14.5299999,-10.002974510192871,-0.7709329724311829,0.7158663272857666,22.369384765625,-21.0113525390625,-7.110595703125
14.549999900000001,-10.11789608001709,-0.8786720037460327,0.48602294921875,21.270751953125,-16.448974609375,-3.11279296875
14.569999900000001,-10.010157585144043,-0.7829039692878723,0.7398083209991455,13.5650634765625,-13.763427734375,7.354736328125
14.5899999,-9.923966407775879,-0.5291185975074768,1.3886369466781616,-0.3509521484375,-6.011962890625,4.0130615234375
14.6099999,-9.823410034179688,-0.15801730751991272,1.9249382019042969,-18.707275390625,10.1470947265625,0.91552734375
14.629999900000001,-9.651026725769043,0.15083470940589905,2.3582887649536133,-22.1710205078125,8.11767578125,1.4801025390625
14.649999900000001,-9.677363395690918,0.24181437492370605,2.456450939178467,-15.5487060546875,4.7760009765625,-5.157470703125
14.6699999,-9.696516990661621,0.19393034279346466,2.2912509441375732,-15.655517578125,10.2386474609375,-8.8348388671875
14.6899999,-9.746794700622559,-0.08140286058187485,1.9752163887023926,-17.7154541015625,12.9852294921875,-3.082275390625
14.709999900000001,-9.859322547912598,-0.4213795065879822,1.5538369417190552,-4.180908203125,9.27734375,-1.3885498046875
14.729999900000001,-10.017339706420898,-0.7350199222564697,0.9959878921508789,20.3704833984375,-3.4637451171875,-3.692626953125
14.7499999,-10.089165687561035,-0.9361328482627869,0.6009446382522583,40.1763916015625,-13.671875,-1.739501953125
14.7699999,-10.096348762512207,-0.8786720037460327,0.5674257874488831,44.219970703125,-19.866943359375,-1.8310546875
14.789999900000002,-10.0580415725708,-0.5793967843055725,1.0414776802062988,25.2685546875,-12.115478515625,-8.8958740234375
14.809999900000001,-9.813833236694336,-0.16759411990642548,1.8100165128707886,-12.20703125,7.01904296875,-7.232666015625
14.8299999,-9.694122314453125,0.12210428714752197,2.434903144836426,-43.853759765625,22.003173828125,-3.23486328125
14.8499999,-9.59835433959961,0.13168109953403473,2.4875755310058594,-48.583984375,25.2227783203125,-0.9765625
14.8699999,-9.749189376831055,-0.304063618183136,1.8148049116134644,-23.86474609375,9.429931640625,1.129150390625
14.889999900000001,-9.995792388916016,-0.727837324142456,0.8786720037460327,16.0064697265625,-20.32470703125,3.662109375
14.9099999,-10.074800491333008,-1.048660397529602,0.2825157940387726,41.6259765625,-37.7960205078125,1.1444091796875
14.9299999,-10.08198356628418,-0.9864110946655273,0.5003881454467773,34.9884033203125,-22.94921875,-2.2735595703125
14.9499999,-9.75637149810791,-0.5267243981361389,1.4484920501708984,5.126953125,4.8370361328125,0.091552734375
14.969999900000001,-9.531316757202148,0.031124621629714966,2.5258827209472656,-24.5513916015625,27.34375,-6.3934326171875
14.9899999,-9.445125579833984,0.3711012601852417,2.9759926795959473,-34.36279296875,34.5458984375,-11.7950439453125
15.0099999,-9.57441234588623,0.35913026332855225,2.5977089405059814,-14.7705078125,23.6968994140625,-12.0086669921875
15.0299999,-9.746794700622559,-0.026336219161748886,1.6855180263519287,18.0816650390625,-5.5084228515625,-10.406494140625
15.049999900000001,-9.981427192687988,-0.5219359993934631,0.8044517636299133,28.3203125,-18.24951171875,-10.3607177734375
15.069999900000001,-10.036493301391602,-1.01753568649292,0.45250412821769714,9.3536376953125,-9.3231201171875,-5.157470703125
15.0899999,-9.804255485534668,-1.2545616626739502,0.8188169598579407,-13.214111328125,-4.486083984375,10.9710693359375
15.1099999,-9.452308654785156,-1.4437036514282227,1.8531121015548706,-39.794921875,23.37646484375,24.8565673828125
15.129999900000001,-9.521739959716797,-1.3646949529647827,1.702277421951294,-21.8658447265625,12.664794921875,29.0374755859375
15.149999900000001,-9.847352027893066,-1.0989385843276978,1.2210428714752197,12.7105712890625,-16.0675048828125,26.79443359375
15.1699999,-10.141838073730469,-0.7038952708244324,0.6607996821403503,33.3404541015625,-29.6478271484375,12.359619140625
15.1899999,-10.285490036010742,-0.13407529890537262,0.608127236366272,30.4718017578125,-20.9503173828125,1.9989013671875
15.209999900000001,-10.309432983398438,0.5027823448181152,1.161187767982483,17.2576904296875,-9.6282958984375,1.0528564453125
15.229999900000001,-10.108319282531738,0.9265560507774353,1.965639591217041,-2.9449462890625,3.5247802734375,-4.7607421875
15.2499999,-9.998186111450195,1.0606313943862915,2.5689783096313477,-19.0582275390625,20.20263671875,-4.7149658203125
15.2699999,-9.916783332824707,0.7350199222564697,2.607285737991333,-20.721435546875,26.9775390625,-4.302978515625
15.289999900000002,-9.945513725280762,0.12210428714752197,2.190694570541382,-2.3956298828125,6.103515625,2.9449462890625
15.309999900000001,-10.113107681274414,-0.4908113479614258,1.501164436340332,16.4031982421875,-12.0849609375,1.89208984375
15.3299999,-10.314221382141113,-0.9361328482627869,1.0558429956436157,25.2685546875,-4.6234130859375,0.091552734375
15.3499999,-10.168174743652344,-0.9720458984375,1.1085153818130493,23.9410400390625,-4.241943359375,5.1422119140625
15.3699999,-10.077195167541504,-0.7086837291717529,1.3982137441635132,9.124755859375,5.0201416015625,4.547119140625
15.389999900000001,-9.983820915222168,-0.3878606855869293,1.644816517829895,-2.105712890625,17.39501953125,2.716064453125
15.4099999,-10.223240852355957,0.0071826050989329815,1.6663644313812256,-0.2288818359375,8.1939697265625,4.0283203125
15.4299999,-10.412383079528809,0.16759411990642548,1.3910311460494995,7.4462890625,-7.965087890625,-5.340576171875
15.4499999,-10.556035041809082,0.20350714027881622,1.1109095811843872,12.1917724609375,-4.2724609375,-3.570556640625
15.469999900000001,-10.498574256896973,0.12689268589019775,1.015141487121582,12.7410888671875,-8.4075927734375,-3.2806396484375
15.4899999,-10.362105369567871,0.011971008032560349,1.2234370708465576,7.415771484375,-4.45556640625,-5.3558349609375
15.5099999,-10.266336441040039,0.033518824726343155,1.5634137392044067,0.6561279296875,4.180908203125,-4.791259765625
15.5299999,-10.919954299926758,0.1388636976480484,1.9393033981323242,-4.852294921875,7.080078125,-1.3580322265625
15.549999900000001,-11.331756591796875,0.24420857429504395,2.0207061767578125,-7.781982421875,2.593994140625,-24.383544921875
15.569999900000001,-12.02607536315918,0.363918662071228,1.867477297782898,-5.8135986328125,-8.6212158203125,-27.4505615234375
15.5899999,-12.160150527954102,0.31364041566848755,1.4628572463989258,6.6070556640625,-18.9971923828125,-13.1683349609375
15.6099999,-11.829751014709473,0.24420857429504395,1.0582371950149536,17.8070068359375,-22.216796875,-8.8043212890625
15.629999900000001,-11.037269592285156,0.1604115068912506,0.8355764150619507,22.0947265625,-12.451171875,-5.5694580078125
15.649999900000001,-10.005369186401367,0.08619125932455063,0.8738836050033569,20.3399658203125,1.0986328125,-9.674072265625
15.6699999,-8.968679428100586,0.05746084079146385,1.1061211824417114,15.3961181640625,10.3607177734375,-19.775390625
15.6899999,-8.094796180725098,-0.19393034279346466,1.338358759880066,17.0745849609375,11.688232421875,-26.092529296875
15.709999900000001,-7.402871608734131,-0.2849099934101105,1.599326729774475,34.4696044921875,2.838134765625,-17.3797607421875
15.729999900000001,-6.995857238769531,-0.49559974670410156,1.8339585065841675,33.5845947265625,-3.8604736328125,-4.791259765625
15.7499999,-6.732495307922363,-0.5267243981361389,2.0901381969451904,17.2882080078125,-3.082275390625,-0.8697509765625
15.7699999,-6.7277069091796875,-0.47884035110473633,2.3511061668395996,-6.0577392578125,10.6353759765625,-3.662109375
15.789999900000002,-6.938396453857422,-0.4429273009300232,2.4851813316345215,-22.979736328125,29.96826171875,-11.749267578125
15.809999900000001,-7.3669586181640625,-0.47644615173339844,2.4420857429504395,-29.022216796875,39.215087890625,-17.8985595703125
15.8299999,-8.006210327148438,-0.6177040338516235,2.2218191623687744,-28.900146484375,31.6619873046875,-13.397216796875
15.8499999,-8.729259490966797,-0.8355764150619507,1.8914192914962769,-22.15576171875,10.8489990234375,-1.5106201171875
15.869999900000002,-9.41639518737793,-1.0678139925003052,1.5538369417190552,-9.9334716796875,-7.080078125,6.866455078125
15.889999900000001,-9.979032516479492,-1.2521674633026123,1.2761094570159912,3.0364990234375,-10.894775390625,8.3465576171875
15.9099999,-10.366893768310547,-1.3311761617660522,1.1228805780410767,9.674072265625,-15.3656005859375,7.9803466796875
15.9299999,-10.556035041809082,-1.3000515699386597,1.1109095811843872,8.6517333984375,-21.7437744140625,6.8817138671875
15.9499999,-10.575188636779785,-1.1899182796478271,1.2090718746185303,3.41796875,-13.671875,2.166748046875
15.969999900000001,-10.45547866821289,-1.0414776802062988,1.3455413579940796,-4.0435791015625,1.9683837890625,-1.129150390625
15.9899999,-10.283096313476562,-0.912190854549408,1.4460978507995605,-10.711669921875,8.97216796875,0.9002685546875
16.0099999,-10.146626472473145,-0.8451532125473022,1.4484920501708984,-13.36669921875,12.2528076171875,0.2899169921875
16.0299999,-10.06043529510498,-0.8762778043746948,1.3479355573654175,-12.664794921875,16.7236328125,-5.4779052734375
16.0499999,-10.046070098876953,-1.0079588890075684,1.1635819673538208,-8.2855224609375,16.0980224609375,-4.913330078125
16.0699999,-10.053253173828125,-1.173158884048462,0.9648633003234863,-0.0152587890625,3.60107421875,2.38037109375
16.089999900000002,-10.036493301391602,-1.314416766166687,0.828393816947937,8.9263916015625,-6.9427490234375,4.608154296875
16.109999900000002,-10.02452278137207,-1.3503297567367554,0.8020575642585754,14.3585205078125,-7.476806640625,2.13623046875
16.1299999,-10.000580787658691,-1.280897855758667,0.9002198576927185,14.556884765625,-9.5062255859375,3.6773681640625
16.1499999,-9.979032516479492,-1.137245774269104,1.091755986213684,12.542724609375,-12.939453125,7.4005126953125
16.1699999,-9.964667320251465,-0.9552865028381348,1.3215993642807007,10.528564453125,-11.77978515625,4.669189453125
16.1899999,-9.897629737854004,-0.7757213711738586,1.5418659448623657,7.1868896484375,-6.8817138671875,-1.8157958984375
16.2099999,-10.034099578857422,-0.6200982332229614,1.7525556087493896,2.2125244140625,-4.1656494140625,-0.9613037109375
16.2299999,-10.1753568649292,-0.36152446269989014,1.821987509727478,-3.72314453125,-8.8043212890625,-3.0364990234375
16.249999900000002,-10.35252857208252,-0.3256114423274994,1.7980455160140991,-7.4615478515625,2.99072265625,5.6304931640625
16.269999900000002,-10.462661743164062,-0.2106897532939911,1.6903064250946045,-6.1187744140625,9.21630859375,15.31982421875
16.2899999,-10.390835762023926,-0.33518823981285095,1.625662922859192,-2.4261474609375,4.241943359375,11.0015869140625
16.3099999,-10.160991668701172,-0.48602294921875,1.625662922859192,-1.2664794921875,3.6773681640625,7.6904296875
16.3299999,-9.959878921508789,-0.7541735172271729,1.7381904125213623,-0.457763671875,6.5765380859375,9.8114013671875
16.3499999,-9.794678688049316,-0.8762778043746948,1.9273324012756348,-8.5601806640625,8.5601806640625,15.80810546875
16.3699999,-9.641449928283691,-0.7565677165985107,2.1092917919158936,-22.1405029296875,16.7694091796875,22.308349609375
16.3899999,-9.591172218322754,-0.5267243981361389,2.126051187515259,-29.8919677734375,18.98193359375,17.791748046875
16.4099999,-9.579200744628906,-0.1604115068912506,1.946485996246338,-28.7017822265625,17.059326171875,11.5814208984375
16.429999900000002,-9.615114212036133,0.21547815203666687,1.525106430053711,-22.6593017578125,17.2119140625,8.392333984375
16.4499999,-9.849745750427246,0.35673606395721436,1.0606313943862915,-14.34326171875,10.8489990234375,7.080078125
16.4699999,-9.967061996459961,0.4165911078453064,0.5482721924781799,-11.0626220703125,2.4871826171875,3.7078857421875
16.4899999,-10.163386344909668,0.2059013396501541,0.21787235140800476,-11.3983154296875,-2.410888671875,-0.9918212890625
16.5099999,-10.192116737365723,-0.10055647045373917,0.13168109953403473,-3.8299560546875,-8.941650390625,-0.30517578125
16.5299999,-10.129867553710938,-0.35913026332855225,0.24660277366638184,4.39453125,-10.833740234375,1.0223388671875
16.5499999,-10.146626472473145,-0.7110779285430908,0.35913026332855225,5.6915283203125,-6.6375732421875,3.2958984375
16.5699999,-10.086771965026855,-0.7781155705451965,0.5171475410461426,16.8914794921875,-15.350341796875,6.8511962890625
16.589999900000002,-10.072406768798828,-0.7230489253997803,0.768538773059845,26.275634765625,-25.7720947265625,6.8817138671875
16.609999900000002,-9.916783332824707,-0.5027823448181152,1.1204863786697388,18.2037353515625,-19.4244384765625,4.21142578125
16.6299999,-9.801861763000488,-0.014365210197865963,1.7046716213226318,1.800537109375,-8.9874267578125,-1.9989013671875
16.6499999,-9.560047149658203,0.40701428055763245,2.3367409706115723,-13.0767822265625,4.0283203125,-2.1209716796875
16.6699999,-9.495404243469238,0.706289529800415,2.892195701599121,-25.6195068359375,16.41845703125,3.1280517578125
16.6899999,-9.368511199951172,0.8667010068893433,3.1004912853240967,-40.2374267578125,19.775390625,-3.7078857421875
16.7099999,-9.346963882446289,0.768538773059845,3.004723072052002,-48.980712890625,30.4718017578125,-5.18798828125
16.7299999,-9.464279174804688,0.49320554733276367,2.5953147411346436,-46.600341796875,33.7677001953125,-1.4801025390625
16.749999900000002,-9.586383819580078,0.18914192914962769,1.920149803161621,-40.34423828125,23.834228515625,-10.5743408203125
16.769999900000002,-9.93593692779541,-0.2968810200691223,1.3072341680526733,-23.834228515625,25.4974365234375,-6.683349609375
16.7899999,-10.079588890075684,-0.667982280254364,0.646434485912323,-4.82177734375,20.0347900390625,-0.946044921875
16.8099999,-10.292673110961914,-1.1037269830703735,0.033518824726343155,4.6539306640625,10.1470947265625,-3.3416748046875
16.8299999,-10.287884712219238,-1.1276689767837524,-0.42377370595932007,22.5067138671875,-3.662109375,1.40380859375
16.8499999,-10.280701637268066,-1.1635819673538208,-0.6368576288223267,23.712158203125,-13.6566162109375,2.0599365234375
16.8699999,-10.223240852355957,-0.8523358106613159,-0.545877993106842,7.080078125,-8.3770751953125,-0.4119873046875
16.8899999,-10.170568466186523,-0.5434837937355042,-0.15562310814857483,3.5858154296875,-12.8936767578125,5.1116943359375
16.9099999,-10.08437728881836,-0.3495534360408783,0.28969839215278625,11.5509033203125,-19.6075439453125,3.875732421875
16.929999900000002,-10.038887977600098,-0.15083470940589905,0.6584054827690125,18.9208984375,-19.073486328125,-0.335693359375
16.9499999,-9.986215591430664,-0.14844051003456116,1.0462661981582642,15.68603515625,-19.04296875,-0.274658203125
16.9699999,-9.773131370544434,-0.05746084079146385,1.3623007535934448,6.622314453125,-14.2669677734375,1.312255859375
16.9899999,-9.763554573059082,-0.004788403399288654,1.9800047874450684,-0.3662109375,-7.87353515625,6.2713623046875
17.0099999,-9.502586364746094,0.23702596127986908,2.513911724090576,-25.6805419921875,2.44140625,6.072998046875
17.0299999,-9.512163162231445,0.2944868206977844,2.896984100341797,-52.459716796875,25.1312255859375,-2.4566650390625
17.0499999,-9.564835548400879,0.3687070608139038,2.808398485183716,-45.0286865234375,25.9857177734375,-2.655029296875
17.0699999,-9.725247383117676,-0.009576806798577309,2.1092917919158936,-21.2249755859375,9.8876953125,-3.387451171875
17.089999900000002,-10.02691650390625,-0.38546648621559143,0.9624691009521484,8.544921875,3.90625,-1.068115234375
17.109999900000002,-10.24000072479248,-0.9169792532920837,0.004788403399288654,37.9638671875,-17.974853515625,3.0670166015625
17.1299999,-10.359710693359375,-1.0869675874710083,-0.6991068720817566,46.7987060546875,-27.2216796875,-0.9765625
17.1499999,-10.38604736328125,-1.015141487121582,-0.5386953949928284,42.48046875,-27.557373046875,1.5411376953125
17.1699999,-10.089165687561035,-0.545877993106842,0.1412578970193863,19.5159912109375,-24.3377685546875,1.983642578125
17.1899999,-9.916783332824707,-0.07422025501728058,1.1803414821624756,-7.38525390625,-4.0740966796875,-0.4119873046875
17.2099999,-9.619902610778809,0.30885201692581177,2.075772762298584,-19.1802978515625,0.0152587890625,4.6539306640625
17.2299999,-9.57441234588623,0.38067805767059326,2.477998733520508,-17.7154541015625,-0.48828125,3.3111572265625
17.249999900000002,-9.57441234588623,0.20111294090747833,2.4157495498657227,-5.615234375,-3.4942626953125,-0.1983642578125
17.269999900000002,-9.691728591918945,-0.043095629662275314,2.0398597717285156,1.0986328125,-7.50732421875,1.0528564453125
17.2899999,-9.68933391571045,-0.23702596127986908,1.764526605606079,-2.62451171875,-2.13623046875,-2.2430419921875
17.3099999,-9.749189376831055,-0.2777273952960968,1.6280571222305298,-3.90625,-1.8157958984375,4.4403076171875
17.3299999,-9.773131370544434,-0.2106897532939911,1.723825216293335,-12.2222900390625,-1.007080078125,3.814697265625
17.3499999,-9.732429504394531,-0.090979665517807,1.8076223134994507,-24.59716796875,9.2926025390625,-3.0975341796875
17.3699999,-9.90241813659668,-0.06703764945268631,1.9560627937316895,-24.3988037109375,10.955810546875,-3.4637451171875
17.3899999,-9.787496566772461,-0.12689268589019775,1.6879122257232666,-15.777587890625,7.9803466796875,-1.6937255859375
17.409999900000003,-10.02452278137207,-0.3974374830722809,1.4915876388549805,4.8980712890625,5.0811767578125,1.556396484375
17.429999900000002,-10.062829971313477,-0.4620809257030487,1.0749965906143188,24.383544921875,-6.072998046875,2.5482177734375
17.4499999,-10.125079154968262,-0.5913678407669067,0.8259995579719543,27.16064453125,-9.7503662109375,-1.9378662109375
17.4699999,-10.18493366241455,-0.2561795711517334,0.8954314589500427,24.932861328125,-11.9476318359375,-6.53076171875
17.4899999,-9.967061996459961,-0.08140286058187485,1.2713210582733154,6.591796875,-9.46044921875,-3.84521484375
17.5099999,-9.785101890563965,0.2059013396501541,1.7094600200653076,-20.93505859375,9.1552734375,-7.598876953125
17.5299999,-9.730035781860352,0.15083470940589905,2.051830768585205,-24.0936279296875,11.2457275390625,-0.7781982421875
17.5499999,-9.550470352172852,-0.06703764945268631,2.030282974243164,-15.80810546875,4.6844482421875,3.7078857421875
17.5699999,-9.612719535827637,-0.3232172429561615,1.7046716213226318,-4.791259765625,0.885009765625,-0.4425048828125
17.589999900000002,-9.730035781860352,-0.5913678407669067,1.4197616577148438,0.1068115234375,-2.410888671875,3.2958984375
17.609999900000002,-9.63187313079834,-0.5770025849342346,1.1971008777618408,-5.5999755859375,-3.90625,3.7994384765625
17.6299999,-9.962273597717285,-0.5746083855628967,1.194706678390503,-7.75146484375,-1.15966796875,2.532958984375
17.6499999,-10.010157585144043,-0.4189853072166443,1.1013327836990356,-4.241943359375,-7.1563720703125,6.9122314453125
17.6699999,-10.134655952453613,-0.3974374830722809,1.1683704853057861,2.3956298828125,-11.1846923828125,4.3792724609375
17.6899999,-10.218452453613281,-0.19632454216480255,1.2306196689605713,9.6435546875,-10.0860595703125,-5.31005859375
17.7099999,-10.02691650390625,-0.15562310814857483,1.5873557329177856,10.0555419921875,-9.3994140625,-3.47900390625
17.7299999,-9.950302124023438,0.035913024097681046,1.9728221893310547,2.9296875,4.547119140625,-0.3509521484375
17.749999900000002,-9.768342971801758,0.1604115068912506,2.3367409706115723,-3.7384033203125,8.8958740234375,2.166748046875
17.769999900000002,-9.653421401977539,0.23942017555236816,2.4396915435791016,-9.6893310546875,10.2691650390625,-4.5013427734375
17.7899999,-9.672574996948242,0.3711012601852417,2.3080103397369385,-11.41357421875,11.9476318359375,-10.4522705078125
17.8099999,-9.63187313079834,0.24660277366638184,2.142810583114624,-15.3961181640625,11.993408203125,-9.8876953125
17.8299999,-9.694122314453125,0.08140286058187485,1.920149803161621,-20.56884765625,17.6544189453125,-9.3841552734375
17.8499999,-9.797073364257812,-0.3232172429561615,1.4652514457702637,-18.5089111328125,20.5230712890625,-6.1187744140625
17.8699999,-9.96945571899414,-0.8212111592292786,0.8858546018600464,2.3345947265625,5.8746337890625,2.2735595703125
17.8899999,-10.06043529510498,-1.0845733880996704,0.2585737705230713,29.23583984375,-22.1099853515625,1.46484375
17.909999900000003,-10.24239444732666,-1.216254472732544,-0.040701430290937424,33.5693359375,-23.4832763671875,-2.62451171875
17.929999900000002,-10.062829971313477,-0.9959878921508789,0.22026655077934265,16.754150390625,-17.7764892578125,1.5869140625
17.9499999,-10.070012092590332,-0.6153098344802856,0.8475474119186401,-2.6702880859375,-10.7879638671875,6.77490234375
17.9699999,-9.818621635437012,-0.20111294090747833,1.7381904125213623,-17.608642578125,-5.1422119140625,10.772705078125
17.9899999,-9.605537414550781,0.21787235140800476,2.4684219360351562,-34.698486328125,3.570556640625,1.0223388671875
18.0099999,-9.502586364746094,0.48602294921875,2.959233283996582,-48.2177734375,20.7672119140625,-1.800537109375
18.0299999,-9.349357604980469,0.5171475410461426,2.8993782997131348,-47.9888916015625,26.3214111328125,-1.6937255859375
18.0499999,-9.500192642211914,0.23702596127986908,2.5929205417633057,-25.146484375,14.8773193359375,-3.7841796875
18.0699999,-9.787496566772461,-0.3256114423274994,1.5658079385757446,-2.960205078125,8.453369140625,-6.0577392578125
18.089999900000002,-10.160991668701172,-0.8882488012313843,0.646434485912323,27.7862548828125,-6.744384765625,0.7781982421875
18.109999900000002,-10.350133895874023,-1.113303780555725,0.15562310814857483,57.861328125,-32.1197509765625,-0.579833984375
18.1299999,-10.323798179626465,-0.9911994934082031,0.14844051003456116,46.3409423828125,-21.8048095703125,-10.589599609375
18.1499999,-10.029311180114746,-0.5099649429321289,0.8954314589500427,9.246826171875,-2.01416015625,-5.706787109375
18.1699999,-9.512163162231445,0.07900865375995636,1.965639591217041,-22.64404296875,9.796142578125,-0.5645751953125
18.1899999,-8.89445972442627,0.3471592366695404,2.6839001178741455,-50.3387451171875,21.728515625,1.4190673828125
18.2099999,-8.202534675598145,0.22266076505184174,2.75812029838562,-55.60302734375,29.052734375,3.2958984375
18.2299999,-8.027758598327637,-0.2346317619085312,2.1092917919158936,-26.519775390625,21.087646484375,9.9945068359375
18.249999900000002,-7.965508937835693,-0.9241618514060974,1.0462661981582642,23.193359375,-9.4757080078125,12.3443603515625
18.269999900000002,-8.279149055480957,-1.290474772453308,0.49559974670410156,55.2215576171875,-29.815673828125,16.265869140625
18.2899999,-8.968679428100586,-1.2090718746185303,0.727837324142456,41.1376953125,-13.7176513671875,13.5345458984375
18.3099999,-10.0580415725708,-0.5889736413955688,1.4724340438842773,-7.110595703125,22.705078125,8.48388671875
18.3299999,-11.152191162109375,-0.11971008777618408,2.2361843585968018,-35.125732421875,36.1785888671875,2.349853515625
18.3499999,-12.227188110351562,0.12210428714752197,2.161964178085327,-32.3486328125,25.1007080078125,13.885498046875
18.3699999,-12.600683212280273,-0.1412578970193863,1.556231141090393,-8.60595703125,-0.640869140625,37.0941162109375
18.3899999,-12.301408767700195,-0.44532153010368347,0.7613561153411865,18.00537109375,-18.524169921875,28.5186767578125
18.409999900000003,-11.681309700012207,-0.44532153010368347,0.33997663855552673,30.0445556640625,-19.3328857421875,17.5628662109375
18.429999900000002,-11.142614364624023,-0.05506663769483566,0.7613561153411865,20.3857421875,-12.298583984375,8.3160400390625
18.4499999,-10.706870079040527,0.6655880808830261,1.314416766166687,-11.04736328125,3.2958984375,0
18.4699999,-10.06043529510498,1.3215993642807007,2.0877439975738525,-32.1044921875,23.6053466796875,-2.899169921875
18.4899999,-9.974244117736816,1.6615760326385498,2.2601263523101807,-33.966064453125,24.017333984375,-16.265869140625
18.5099999,-9.521739959716797,1.3455413579940796,1.9153614044189453,-20.9197998046875,10.955810546875,-24.7344970703125
18.5299999,-9.950302124023438,0.5099649429321289,1.1803414821624756,-1.8157958984375,-0.4425048828125,-9.1705322265625
18.5499999,-10.170568466186523,-0.4189853072166443,0.4668693244457245,19.683837890625,-22.613525390625,3.4637451171875
18.5699999,-10.737994194030762,-0.9792284965515137,0.19632454216480255,31.8145751953125,-24.749755859375,3.1585693359375
18.589999900000002,-11.118672370910645,-0.8810662031173706,0.49559974670410156,28.5797119140625,-17.4407958984375,-1.4190673828125
18.609999900000002,-11.350910186767578,-0.15562310814857483,1.2330138683319092,8.0108642578125,-3.60107421875,-14.862060546875
18.6299999,-11.712434768676758,0.4357447028160095,2.006340980529785,-15.838623046875,7.0648193359375,-15.0299072265625
18.6499999,-11.592724800109863,1.0127472877502441,2.4157495498657227,-21.7132568359375,8.7890625,-25.2227783203125
18.6699999,-11.279084205627441,1.0414776802062988,2.2625205516815186,-8.4686279296875,-3.2958984375,-31.6162109375
18.6899999,-10.654197692871094,0.8738836050033569,1.702277421951294,17.1356201171875,-13.2598876953125,-9.70458984375
18.7099999,-9.739612579345703,0.5602431893348694,1.0438719987869263,38.0706787109375,-16.0980224609375,-0.2899169921875
18.7299999,-8.83699893951416,0.26815059781074524,0.6536170840263367,45.7763671875,-3.2501220703125,-5.401611328125
18.749999900000002,-8.17380428314209,0.12449848651885986,0.689530074596405,39.2303466796875,10.8489990234375,-7.3089599609375
18.769999900000002,-7.802703380584717,0.08379705995321274,1.05105459690094,23.5443115234375,10.2996826171875,-1.556396484375
18.7899999,-7.716512203216553,0.12689268589019775,1.5418659448623657,8.5906982421875,13.24462890625,-3.631591796875
18.8099999,-7.9846625328063965,-0.05267243832349777,1.7980455160140991,3.41796875,24.5513916015625,-12.0849609375
18.8299999,-8.42040729522705,-0.3687070608139038,1.766920804977417,20.8282470703125,16.937255859375,-11.505126953125
18.8499999,-8.935160636901855,-0.7398083209991455,1.5418659448623657,49.4232177734375,-14.58740234375,-6.256103515625
18.8699999,-9.339780807495117,-1.048660397529602,1.3623007535934448,53.2684326171875,-28.4271240234375,-13.3056640625
18.8899999,-9.48343276977539,-1.072602391242981,1.460463047027588,34.5611572265625,-11.77978515625,-23.193359375
18.909999900000003,-9.191340446472168,-0.6655880808830261,2.2242133617401123,-13.9617919921875,9.2315673828125,-13.7481689453125
18.929999900000002,-9.047688484191895,-0.5315127968788147,2.4684219360351562,-26.641845703125,18.5546875,-21.5911865234375
18.9499999,-9.002198219299316,-0.5530605912208557,2.4420857429504395,-27.984619140625,22.369384765625,-28.961181640625
18.9699999,-9.01895809173584,-0.7374141216278076,2.1332337856292725,-20.6451416015625,8.9569091796875,-14.46533203125
18.9899999,-9.07641887664795,-1.0103530883789062,1.6663644313812256,-8.3465576171875,-10.2081298828125,6.3323974609375
19.0099999,-9.184157371520996,-1.2737152576446533,1.194706678390503,3.90625,-11.749267578125,6.28662109375
19.0299999,-9.32541561126709,-1.4389152526855469,0.8786720037460327,11.53564453125,-4.39453125,-6.6680908203125
19.0499999,-9.490615844726562,-1.460463047027588,0.7829039692878723,12.8631591796875,-2.6092529296875,-7.7667236328125
19.0699999,-9.615114212036133,-1.3311761617660522,0.9145850539207458,9.4451904296875,-9.185791015625,3.1280517578125
19.089999900000002,-9.701305389404297,-1.094150185585022,1.1899182796478271,3.1585693359375,-8.1787109375,6.5765380859375
19.109999900000002,-9.758766174316406,-0.8355764150619507,1.4867992401123047,-3.23486328125,-0.335693359375,2.1209716796875
19.1299999,-9.813833236694336,-0.5961562395095825,1.6927006244659424,-8.331298828125,2.2430419921875,1.64794921875
19.1499999,-9.880870819091797,-0.44532153010368347,1.742978811264038,-10.2386474609375,6.40869140625,1.28173828125
19.1699999,-9.952696800231934,-0.3758896589279175,1.6424223184585571,-8.11767578125,9.7808837890625,-0.5950927734375
19.1899999,-10.02452278137207,-0.3711012601852417,1.4413094520568848,-4.119873046875,4.82177734375,3.021240234375
19.2099999,-10.065223693847656,-0.40222588181495667,1.2066776752471924,-0.335693359375,-3.9825439453125,13.2293701171875
19.2299999,-10.055646896362305,-0.4381389021873474,1.0055646896362305,3.7994384765625,-4.4403076171875,17.8985595703125
19.249999900000002,-10.055646896362305,-0.4620809257030487,0.8906430602073669,7.171630859375,5.7525634765625,11.90185546875
19.269999900000002,-10.441113471984863,-0.5985504388809204,0.9552865028381348,8.23974609375,12.5274658203125,3.0517578125
19.2899999,-10.381258964538574,-0.6320692300796509,1.01753568649292,4.8828125,-3.11279296875,-7.5531005859375
19.3099999,-10.843339920043945,-0.8331822156906128,1.1755530834197998,4.21142578125,-2.197265625,6.2713623046875
19.3299999,-10.620678901672363,-0.9050082564353943,1.2234370708465576,6.5765380859375,-5.3863525390625,4.2266845703125
19.3499999,-10.493785858154297,-1.0869675874710083,1.2306196689605713,8.8958740234375,-8.1939697265625,6.927490234375
19.3699999,-10.271124839782715,-1.173158884048462,1.1851298809051514,12.298583984375,-11.16943359375,12.5274658203125
19.3899999,-10.034099578857422,-1.1683704853057861,1.1755530834197998,14.739990234375,-19.378662109375,10.101318359375
19.409999900000003,-9.861717224121094,-0.9864110946655273,1.4077905416488647,13.4124755859375,-13.5955810546875,15.4266357421875
19.429999900000002,-9.701305389404297,-0.5650315880775452,1.7836803197860718,-4.6539306640625,-4.913330078125,16.9219970703125
19.4499999,-9.5624418258667,-0.002394201699644327,2.126051187515259,-26.8096923828125,4.0283203125,11.749267578125
19.4699999,-9.495404243469238,0.28730419278144836,2.4133553504943848,-29.9530029296875,5.92041015625,8.148193359375
19.4899999,-9.490615844726562,0.5817909836769104,2.451662540435791,-22.76611328125,5.9051513671875,4.8065185546875
19.5099999,-9.557653427124023,0.3711012601852417,2.3343467712402344,-16.54052734375,8.087158203125,5.0048828125
19.5299999,-9.643844604492188,0.028730420395731926,2.027888774871826,-7.75146484375,10.5743408203125,3.6163330078125
19.5499999,-9.801861763000488,-0.33518823981285095,1.7956513166427612,3.5247802734375,9.27734375,9.5672607421875
19.5699999,-9.847352027893066,-0.5195417404174805,1.436521053314209,-0.06103515625,-0.3204345703125,15.5029296875
19.589999900000002,-9.964667320251465,-0.5817909836769104,1.1659762859344482,-8.575439453125,4.69970703125,10.5743408203125
19.609999900000002,-10.002974510192871,-0.3519476354122162,0.9672574996948242,-5.0201416015625,1.7852783203125,6.16455078125
19.6299999,-10.050858497619629,-0.19632454216480255,0.8690952062606812,-1.6937255859375,-4.547119140625,7.5531005859375
19.6499999,-10.06043529510498,0.12449848651885986,0.8738836050033569,1.52587890625,-0.4425048828125,7.5225830078125
19.6699999,-10.053253173828125,0.4812345504760742,1.0127472877502441,3.9520263671875,-5.8441162109375,-3.326416015625
19.6899999,-9.983820915222168,0.6919242739677429,1.137245774269104,0.640869140625,-8.270263671875,-13.580322265625
19.7099999,-9.940725326538086,0.9600749015808105,1.403002142906189,1.0986328125,-7.232666015625,-15.655517578125
19.7299999,-9.792284965515137,0.8762778043746948,1.8531121015548706,-8.3770751953125,-5.615234375,-13.824462890625
19.749999900000002,-9.749189376831055,0.5027823448181152,2.360682964324951,-31.0516357421875,16.90673828125,-9.94873046875
19.769999900000002,-9.567230224609375,0.07422025501728058,2.7269957065582275,-37.7349853515625,24.10888671875,-4.0740966796875
19.7899999,-9.586383819580078,-0.5315127968788147,2.717418909072876,-25.0701904296875,20.6146240234375,-1.9989013671875
19.8099999,-9.588777542114258,-0.9217676520347595,2.31758713722229,-8.331298828125,21.30126953125,2.5482177734375
19.8299999,-9.694122314453125,-1.0582371950149536,1.6328455209732056,-4.2266845703125,15.0604248046875,3.662109375
19.8499999,-9.873687744140625,-1.0414776802062988,0.9888052940368652,-2.9449462890625,13.0767822265625,2.0904541015625
19.8699999,-10.038887977600098,-0.790086567401886,0.5554547905921936,2.99072265625,2.716064453125,7.8277587890625
19.8899999,-9.988609313964844,-0.48602294921875,0.2513911724090576,0.732421875,-6.3018798828125,5.8135986328125
19.909999900000003,-10.046070098876953,-0.181959331035614,0.33279404044151306,-8.3160400390625,1.03759765625,0.8392333984375
19.929999900000002,-9.95748519897461,0.1412578970193863,0.49320554733276367,-15.13671875,0.2288818359375,1.6326904296875
19.9499999,-9.931148529052734,0.181959331035614,0.7565677165985107,-18.1121826171875,-3.72314453125,-2.6397705078125
