# Time (seconds),Accel_X,Accel_Y,Accel_Z,Gyro_X,Gyro_Y,Gyro_Z
0.0099999,-9.921571731567383,0.11252748221158981,0.33039984107017517,-9.94873046875,1.220703125,30.9906005859375
0.029999900000000003,-10.02452278137207,0.17717093229293823,0.3734954595565796,-9.979248046875,-1.6021728515625,25.81787109375
0.0499999,-10.036493301391602,0.17477671802043915,0.395043283700943,-9.46044921875,0.0762939453125,21.54541015625
0.0699999,-9.995792388916016,0.1412578970193863,0.38067805767059326,-9.2620849609375,6.2408447265625,19.6990966796875
0.08999990000000001,-9.950302124023438,0.090979665517807,0.3447650372982025,-7.8277587890625,15.2587890625,17.1661376953125
0.10999990000000001,-9.950302124023438,0.07900865375995636,0.29209262132644653,-6.28662109375,22.7508544921875,15.0299072265625
0.1299999,-10.395624160766602,0.13407529890537262,0.24420857429504395,-7.26318359375,23.49853515625,13.7939453125
0.14999990000000002,-10.599130630493164,0.16519992053508759,0.2298433631658554,-10.2996826171875,1.220703125,1.6326904296875
0.1699999,-11.008539199829102,0.20350714027881622,0.22266076505184174,-10.4827880859375,-3.47900390625,-1.3580322265625
0.1899999,-10.876858711242676,0.19153612852096558,0.22744916379451752,-4.791259765625,5.035400390625,4.5928955078125
0.20999990000000002,-10.613495826721191,0.19153612852096558,0.1388636976480484,-0.0762939453125,19.2718505859375,4.5318603515625
0.2299999,-10.26394271850586,0.2298433631658554,0.014365210197865963,3.6773681640625,15.0909423828125,4.0740966796875
0.2499999,-9.995792388916016,0.3064578175544739,-0.12210428714752197,5.9661865234375,-7.50732421875,-0.3509521484375
0.2699999,-9.955090522766113,0.38067805767059326,-0.17238251864910126,7.2021484375,-16.41845703125,-0.1373291015625
0.28999990000000003,-9.955090522766113,0.42377370595932007,-0.0933738648891449,7.6751708984375,-14.6636962890625,3.2501220703125
0.3099999,-9.928754806518555,0.4381389021873474,0.11252748221158981,7.3394775390625,-13.214111328125,4.425048828125
0.3299999,-9.885659217834473,0.45250412821769714,0.3734954595565796,7.0648193359375,-11.4898681640625,3.448486328125
0.34999990000000003,-9.792284965515137,0.49799394607543945,0.6129156351089478,6.317138671875,-10.101318359375,0.9307861328125
0.3699999,-9.732429504394531,0.5841852426528931,0.8164227604866028,4.547119140625,-7.3394775390625,-0.1220703125
0.3899999,-9.715670585632324,0.706289529800415,0.9768342971801758,0.396728515625,-1.861572265625,0
0.40999990000000003,-9.751583099365234,0.8259995579719543,1.0558429956436157,-6.3018798828125,2.716064453125,-1.3427734375
0.4299999,-9.785101890563965,0.8978256583213806,1.05105459690094,-11.810302734375,6.6070556640625,-2.99072265625
0.4499999,-9.813833236694336,0.9193734526634216,0.9481038451194763,-15.07568359375,8.4686279296875,-4.5318603515625
0.4699999,-9.852140426635742,0.8810662031173706,0.7493851184844971,-15.1214599609375,8.148193359375,-6.683349609375
0.4899999,-9.938331604003906,0.7637503147125244,0.4836287498474121,-10.894775390625,6.1187744140625,-8.7890625
0.5099999,-10.055646896362305,0.6177040338516235,0.19632454216480255,-4.5013427734375,2.2735595703125,-8.758544921875
0.5299999,-10.158597946166992,0.4692635238170624,-0.033518824726343155,1.8463134765625,-2.3193359375,-8.331298828125
0.5499999,-10.194510459899902,0.3016694188117981,-0.18914192914962769,6.7596435546875,-5.859375,-9.27734375
0.5699999,-10.160991668701172,0.1867477297782898,-0.22744916379451752,10.0555419921875,-8.1634521484375,-9.7808837890625
0.5899998999999999,-10.098742485046387,0.1628057211637497,-0.1843535304069519,11.7034912109375,-10.6048583984375,-9.6588134765625
0.6099998999999999,-10.046070098876953,0.19153612852096558,-0.05506663769483566,10.80322265625,-12.5885009765625,-10.467529296875
0.6299999,-10.036493301391602,0.26815059781074524,0.0933738648891449,8.23974609375,-12.9241943359375,-11.505126953125
0.6499999,-10.031704902648926,0.33758243918418884,0.2777273952960968,5.4779052734375,-12.237548828125,-11.199951171875
0.6699999,-10.017339706420898,0.3711012601852417,0.42616790533065796,2.4566650390625,-12.3443603515625,-11.1236572265625
0.6899999,-9.981427192687988,0.2849099934101105,0.5746083855628967,2.288818359375,-12.6800537109375,-11.9171142578125
0.7099999,-9.940725326538086,0.1173158809542656,0.6631938815116882,3.11279296875,-12.054443359375,-11.2457275390625
0.7299998999999999,-9.904812812805176,-0.11252748221158981,0.7254431247711182,5.615234375,-11.77978515625,-8.087158203125
0.7499998999999999,-9.904812812805176,-0.3447650372982025,0.8044517636299133,9.002685546875,-12.2528076171875,-4.6539306640625
0.7699999,-9.93354320526123,-0.5410895943641663,0.8762778043746948,11.810302734375,-11.8408203125,-2.227783203125
0.7899999,-9.806650161743164,-0.6584054827690125,1.015141487121582,13.7481689453125,-10.162353515625,0.5340576171875
0.8099999,-9.86889934539795,-0.5674257874488831,1.237802267074585,7.8887939453125,-6.072998046875,4.5166015625
0.8299999,-9.81143856048584,-0.5027823448181152,1.4915876388549805,-7.26318359375,1.9989013671875,3.753662109375
0.8499998999999999,-9.804255485534668,-0.1412578970193863,1.6639702320098877,-19.2413330078125,9.7503662109375,2.3956298828125
0.8699998999999999,-9.921571731567383,0.06224924325942993,1.7549498081207275,-22.674560546875,13.7481689453125,2.4566650390625
0.8899999,-9.943120002746582,0.30885201692581177,1.4700398445129395,-19.683837890625,13.2598876953125,1.8157958984375
0.9099999,-9.995792388916016,0.3687070608139038,1.0989385843276978,-10.1470947265625,9.2315673828125,1.556396484375
0.9299999,-10.113107681274414,0.40701428055763245,0.5315127968788147,5.4473876953125,2.532958984375,0.2593994140625
0.9499999,-10.180145263671875,0.3447650372982025,0.06464344263076782,21.05712890625,-9.429931640625,-3.2196044921875
0.9699998999999999,-10.196905136108398,0.38546648621559143,-0.19632454216480255,30.0750732421875,-18.49365234375,-11.4593505859375
0.9899998999999999,-10.11550235748291,0.33997663855552673,-0.24660277366638184,33.8134765625,-19.0277099609375,-16.6015625
1.0099999,-10.000580787658691,0.2777273952960968,0.040701430290937424,33.1878662109375,-17.120361328125,-16.17431640625
1.0299999,-9.856928825378418,0.14365209639072418,0.45010992884635925,26.7791748046875,-13.18359375,-14.373779296875
1.0499999,-9.763554573059082,0.009576806798577309,0.933738648891449,17.88330078125,-7.781982421875,-9.124755859375
1.0699999,-9.80904483795166,-0.1364694982767105,1.400607943534851,9.9945068359375,-5.5389404296875,-4.2572021484375
1.0899999,-9.852140426635742,-0.22026655077934265,1.7046716213226318,0.9002685546875,-5.6304931640625,-4.486083984375
1.1099999,-9.856928825378418,-0.31364041566848755,1.8171991109848022,-6.5155029296875,0.5035400390625,-6.744384765625
1.1299999,-9.883264541625977,-0.42856210470199585,1.7597382068634033,-8.758544921875,6.500244140625,-4.6539306640625
1.1499999,-9.854534149169922,-0.47405192255973816,1.5634137392044067,-6.9427490234375,6.2713623046875,-1.7242431640625
1.1699998999999999,-9.859322547912598,-0.4884171485900879,1.2066776752471924,-4.5318603515625,3.4637451171875,0.5035400390625
1.1899998999999999,-10.007762908935547,-0.4692635238170624,0.8738836050033569,0.640869140625,0.48828125,2.9449462890625
1.2099999,-10.096348762512207,-0.3256114423274994,0.5722141861915588,7.965087890625,-9.490966796875,1.8768310546875
1.2299999,-10.144232749938965,-0.29209262132644653,0.40701428055763245,11.9781494140625,-14.6484375,-4.2724609375
1.2499999,-10.11550235748291,-0.24420857429504395,0.40222588181495667,12.908935546875,-11.199951171875,-5.828857421875
1.2699999,-9.976638793945312,-0.16998831927776337,0.5746083855628967,12.237548828125,-9.429931640625,-3.0670166015625
1.2899999,-9.888052940368652,-0.19632454216480255,0.828393816947937,8.7127685546875,-8.7127685546875,-1.617431640625
1.3099999,-9.823410034179688,-0.12689268589019775,1.0773907899856567,4.21142578125,-6.5460205078125,0.8697509765625
1.3299999,-9.892841339111328,-0.09816227108240128,1.314416766166687,1.0223388671875,-8.758544921875,2.288818359375
1.3499999,-9.86650562286377,-0.040701430290937424,1.53707754611969,-2.7923583984375,-10.5133056640625,-3.5400390625
1.3699999,-9.84495735168457,0.023942016065120697,1.7094600200653076,-5.9356689453125,-2.5482177734375,-7.5225830078125
1.3899999,-9.81143856048584,-0.033518824726343155,1.8100165128707886,-5.6915283203125,4.6844482421875,-6.0882568359375
1.4099999,-9.758766174316406,-0.06224924325942993,1.867477297782898,-3.7384033203125,5.67626953125,-5.645751953125
1.4299998999999999,-9.746794700622559,-0.10773907601833344,1.7884687185287476,-3.662109375,6.134033203125,-3.6773681640625
1.4499999,-9.892841339111328,-0.16759411990642548,1.7118542194366455,-4.1351318359375,6.6680908203125,-0.2288818359375
1.4699999,-9.911994934082031,-0.21787235140800476,1.580173134803772,-3.2501220703125,2.13623046875,-3.90625
1.4899999,-9.880870819091797,-0.3064578175544739,1.3958195447921753,-1.8310546875,3.082275390625,-9.368896484375
1.5099999,-9.909601211547852,-0.45010992884635925,1.2737152576446533,-0.244140625,7.568359375,-6.561279296875
1.5299999,-9.821015357971191,-0.5650315880775452,1.0989385843276978,0.3509521484375,7.4462890625,-3.4637451171875
1.5499999,-9.880870819091797,-0.6033388376235962,0.9552865028381348,0.54931640625,5.157470703125,-2.197265625
1.5699999,-10.002974510192871,-0.5746083855628967,0.8595184087753296,2.410888671875,1.2359619140625,2.5482177734375
1.5899999,-10.062829971313477,-0.5554547905921936,0.7589619159698486,4.913330078125,-7.232666015625,3.0975341796875
1.6099999,-10.067618370056152,-0.49320554733276367,0.751779317855835,4.94384765625,-9.21630859375,-4.791259765625
1.6299999,-9.983820915222168,-0.507570743560791,0.8236053586006165,4.058837890625,-4.57763671875,-5.5084228515625
1.6499999,-9.916783332824707,-0.45489832758903503,0.9361328482627869,3.11279296875,-3.0059814453125,-0.2593994140625
1.6699999,-9.86650562286377,-0.4429273009300232,1.0606313943862915,1.1444091796875,-3.570556640625,-0.6561279296875
1.6899998999999999,-9.871294021606445,-0.3926490843296051,1.1468225717544556,-0.518798828125,-3.936767578125,1.007080078125
1.7099999,-9.947908401489258,-0.33997663855552673,1.2952631711959839,-1.373291015625,-7.5225830078125,5.584716796875
1.7299999,-9.919178009033203,-0.33997663855552673,1.414973258972168,-4.3792724609375,-9.2620849609375,-0.1373291015625
1.7499999,-9.835380554199219,-0.363918662071228,1.5490485429763794,-8.8653564453125,-1.7852783203125,-4.4708251953125
1.7699999,-9.806650161743164,-0.35673606395721436,1.6184803247451782,-10.0860595703125,3.3111572265625,-0.213623046875
1.7899999,-9.737217903137207,-0.42616790533065796,1.6089035272598267,-8.5601806640625,3.0670166015625,2.0904541015625
1.8099999,-9.768342971801758,-0.3878606855869293,1.5394717454910278,-8.1329345703125,2.4261474609375,2.3193359375
1.8299999,-9.93593692779541,-0.40222588181495667,1.4197616577148438,-6.40869140625,1.4801025390625,5.035400390625
1.8499999,-9.983820915222168,-0.363918662071228,1.3455413579940796,-2.7008056640625,-5.37109375,3.2196044921875
1.8699999,-10.002974510192871,-0.3926490843296051,1.2832920551300049,1.617431640625,-5.584716796875,-4.4097900390625
1.8899999,-9.950302124023438,-0.3974374830722809,1.2114660739898682,7.0037841796875,-2.2125244140625,-4.57763671875
1.9099999,-9.8784761428833,-0.45250412821769714,1.194706678390503,12.20703125,-2.777099609375,0.457763671875
1.9299998999999999,-9.835380554199219,-0.4668693244457245,1.2234370708465576,9.9639892578125,-2.593994140625,0.823974609375
1.9499999,-9.871294021606445,-0.38307225704193115,1.3311761617660522,0.7781982421875,-0.0457763671875,2.9449462890625
1.9699999,-9.919178009033203,-0.30885201692581177,1.5083470344543457,-6.9122314453125,-0.518798828125,5.7525634765625
1.9899999,-9.883264541625977,-0.2513911724090576,1.6759412288665771,-9.6435546875,-0.732421875,0.6256103515625
2.0099999,-9.840168952941895,-0.33997663855552673,1.7118542194366455,-6.2255859375,2.716064453125,-4.3487548828125
2.0299999,-9.818621635437012,-0.395043283700943,1.6759412288665771,0.67138671875,4.6539306640625,-0.30517578125
2.0499999,-9.785101890563965,-0.49559974670410156,1.577778935432434,2.4871826171875,4.6234130859375,3.448486328125
2.0699999,-9.856928825378418,-0.35913026332855225,1.479616641998291,-4.94384765625,7.8887939453125,2.471923828125
2.0899999,-9.873687744140625,-0.2346317619085312,1.3838485479354858,-11.7645263671875,7.2784423828125,2.3040771484375
2.1099999,-9.950302124023438,-0.07422025501728058,1.359906554222107,-12.9547119140625,1.556396484375,2.86865234375
2.1299999,-9.952696800231934,-0.07900865375995636,1.256955862045288,-9.765625,-0.091552734375,-3.4637451171875
2.1499999,-9.976638793945312,-0.2298433631658554,1.1204863786697388,-1.0528564453125,0.640869140625,-6.5765380859375
2.1699999,-10.002974510192871,-0.4165911078453064,1.036689281463623,8.3770751953125,-2.8533935546875,-1.40380859375
2.1899999,-9.986215591430664,-0.5602431893348694,0.993593692779541,9.4757080078125,-3.8604736328125,2.3040771484375
2.2099999,-9.962273597717285,-0.5937620401382446,1.0462661981582642,2.960205078125,-1.861572265625,4.0435791015625
2.2299999,-9.907206535339355,-0.47884035110473633,1.2018892765045166,-3.326416015625,-2.777099609375,4.0283203125
2.2499999,-9.871294021606445,-0.3998316824436188,1.3527239561080933,-6.0577392578125,-5.67626953125,4.0283203125
2.2699999,-9.804255485534668,-0.3064578175544739,1.436521053314209,-5.126953125,-2.9449462890625,-2.4261474609375
2.2899999,-9.797073364257812,-0.3064578175544739,1.4460978507995605,-0.518798828125,0.579833984375,-4.3182373046875
2.3099999,-9.792284965515137,-0.2849099934101105,1.4460978507995605,3.9825439453125,0.1068115234375,-0.396728515625
2.3299999,-9.806650161743164,-0.2537853717803955,1.4700398445129395,1.64794921875,0.6103515625,3.2806396484375
2.3499999,-9.821015357971191,-0.2346317619085312,1.4963760375976562,-5.7373046875,2.685546875,2.7008056640625
2.3699999,-9.895236015319824,-0.19871874153614044,1.5873557329177856,-8.48388671875,0.5340576171875,2.197265625
2.3899999,-9.911994934082031,-0.272938996553421,1.6112977266311646,-5.9661865234375,-3.6468505859375,1.46484375
2.4099999,-9.947908401489258,-0.35673606395721436,1.5418659448623657,-0.6866455078125,-1.129150390625,-3.84521484375
2.4299999,-9.93354320526123,-0.45489832758903503,1.4221558570861816,4.8980712890625,2.1514892578125,-3.7994384765625
2.4499999,-9.897629737854004,-0.47405192255973816,1.3048399686813354,7.32421875,1.495361328125,-0.274658203125
2.4699999,-9.895236015319824,-0.3998316824436188,1.237802267074585,4.241943359375,0.18310546875,3.9520263671875
2.4899999,-9.859322547912598,-0.2944868206977844,1.2497732639312744,-2.197265625,2.197265625,2.9449462890625
2.5099999,-9.8784761428833,-0.15083470940589905,1.403002142906189,-5.3558349609375,0.1220703125,2.1820068359375
2.5299999,-9.861717224121094,-0.1628057211637497,1.4939818382263184,-7.171630859375,-1.800537109375,0.152587890625
2.5499999,-9.832986831665039,-0.23942017555236816,1.5969325304031372,-5.767822265625,3.082275390625,-4.6234130859375
2.5699999,-9.84495735168457,-0.35673606395721436,1.5275006294250488,-1.52587890625,5.9051513671875,-2.3193359375
2.5899999,-9.873687744140625,-0.42377370595932007,1.4221558570861816,2.8533935546875,3.753662109375,1.4190673828125
2.6099999,-9.895236015319824,-0.4357447028160095,1.2497732639312744,4.058837890625,-0.3662109375,4.33349609375
2.6299999,-9.914389610290527,-0.35913026332855225,1.158793568611145,2.532958984375,-1.6937255859375,2.8228759765625
2.6499999,-9.931148529052734,-0.29209262132644653,1.161187767982483,2.1514892578125,-5.9967041015625,2.5787353515625
2.6699999,-9.895236015319824,-0.24660277366638184,1.235408067703247,0.8087158203125,-7.3699951171875,-0.701904296875
2.6899999,-9.864110946655273,-0.272938996553421,1.335964560508728,0.54931640625,-2.0751953125,-5.4779052734375
2.7099999,-9.86889934539795,-0.2968810200691223,1.4437036514282227,0.54931640625,2.38037109375,-1.8157958984375
2.7299999,-9.832986831665039,-0.272938996553421,1.5275006294250488,-1.5411376953125,3.2806396484375,1.5411376953125
2.7499999,-9.849745750427246,-0.272938996553421,1.5203180313110352,-4.8980712890625,2.6092529296875,3.1280517578125
2.7699999,-9.859322547912598,-0.1867477297782898,1.50355863571167,-4.638671875,0.7171630859375,1.0223388671875
2.7899999,-9.890447616577148,-0.2059013396501541,1.4844050407409668,-1.8157958984375,-3.875732421875,1.40380859375
2.8099999,-9.84495735168457,-0.31364041566848755,1.5107412338256836,0.823974609375,0.79345703125,-7.110595703125
2.8299999,-9.828198432922363,-0.3758896589279175,1.50355863571167,1.312255859375,4.547119140625,-2.9296875
2.8499999,-9.818621635437012,-0.3758896589279175,1.5490485429763794,-0.1373291015625,4.94384765625,1.4190673828125
2.8699999,-9.854534149169922,-0.363918662071228,1.501164436340332,-3.082275390625,4.21142578125,2.349853515625
2.8899999,-9.897629737854004,-0.3256114423274994,1.50355863571167,-2.99072265625,2.7618408203125,0.579833984375
2.9099999,-9.921571731567383,-0.3064578175544739,1.4867992401123047,-0.762939453125,-1.9073486328125,0.5340576171875
2.9299999,-9.959878921508789,-0.3495534360408783,1.4867992401123047,1.7852783203125,-2.166748046875,-3.387451171875
2.9499999,-9.921571731567383,-0.40462008118629456,1.3886369466781616,5.157470703125,1.9683837890625,-6.378173828125
2.9699999,-9.950302124023438,-0.40222588181495667,1.3239935636520386,8.270263671875,2.410888671875,-1.5106201171875
2.9899999,-9.897629737854004,-0.3758896589279175,1.2401964664459229,6.4239501953125,-0.0152587890625,2.4566650390625
3.0099999,-9.888052940368652,-0.28969839215278625,1.2497732639312744,-1.0986328125,1.190185546875,2.593994140625
3.0299999,-9.909601211547852,-0.2106897532939911,1.3311761617660522,-5.401611328125,0.8087158203125,0.7476806640625
3.0499999,-9.904812812805176,-0.19393034279346466,1.4221558570861816,-5.9661865234375,-3.1585693359375,0.5035400390625
3.0699999,-9.909601211547852,-0.2346317619085312,1.4724340438842773,-5.06591796875,-2.685546875,-3.662109375
3.0899999,-9.856928825378418,-0.31364041566848755,1.41257905960083,-2.2430419921875,1.7852783203125,-5.55419921875
3.1099999,-9.830592155456543,-0.4357447028160095,1.4101848602294922,-0.0762939453125,3.173828125,0.9765625
3.1299999,-9.782708168029785,-0.4812345504760742,1.3646949529647827,-0.30517578125,1.2054443359375,4.791259765625
3.1499999,-9.806650161743164,-0.5267243981361389,1.338358759880066,-1.739501953125,0.244140625,4.5318603515625
3.1699999,-9.84495735168457,-0.3998316824436188,1.335964560508728,-0.30517578125,-2.3040771484375,2.5177001953125
3.1899999,-9.892841339111328,-0.31603461503982544,1.3766659498214722,2.01416015625,-6.3018798828125,1.4190673828125
3.2099999,-9.883264541625977,-0.22505496442317963,1.434126853942871,3.936767578125,-4.69970703125,-3.5552978515625
3.2299999,-9.871294021606445,-0.1867477297782898,1.5059528350830078,3.3721923828125,2.25830078125,-5.8746337890625
3.2499999,-9.81143856048584,-0.21308395266532898,1.5849615335464478,0.1678466796875,6.134033203125,-1.312255859375
3.2699999,-9.806650161743164,-0.14365209639072418,1.5945383310317993,-2.8839111328125,5.7220458984375,1.28173828125
3.2899999,-9.80904483795166,-0.181959331035614,1.5658079385757446,-5.1422119140625,5.4473876953125,0.18310546875
3.3099999,-9.873687744140625,-0.15562310814857483,1.522712230682373,-2.9754638671875,1.8768310546875,-1.6937255859375
3.3299999000000002,-9.952696800231934,-0.26575639843940735,1.4532804489135742,1.6021728515625,-4.2572021484375,-2.3040771484375
3.3499999,-9.964667320251465,-0.38067805767059326,1.357512354850769,5.645751953125,-3.72314453125,-6.6375732421875
3.3699999,-9.959878921508789,-0.4692635238170624,1.2665326595306396,8.4381103515625,0.8697509765625,-7.720947265625
3.3899999,-9.890447616577148,-0.5171475410461426,1.256955862045288,8.2855224609375,1.922607421875,-1.861572265625
3.4099999,-9.835380554199219,-0.5027823448181152,1.3024457693099976,3.1585693359375,0.396728515625,3.0670166015625
3.4299999,-9.801861763000488,-0.48602294921875,1.3623007535934448,-4.913330078125,3.021240234375,3.3416748046875
3.4499999,-9.825803756713867,-0.3878606855869293,1.4724340438842773,-6.9427490234375,0.9918212890625,2.74658203125
3.4699999,-9.876082420349121,-0.42616790533065796,1.4700398445129395,-4.8065185546875,-3.5247802734375,2.1514892578125
3.4899999,-9.8784761428833,-0.3734954595565796,1.5179238319396973,-2.1209716796875,-2.105712890625,-2.44140625
3.5099999,-9.852140426635742,-0.363918662071228,1.5203180313110352,-6.8206787109375,5.218505859375,-2.777099609375
3.5299999,-9.732429504394531,-0.10773907601833344,1.8363527059555054,-22.613525390625,11.505126953125,1.708984375
3.5499999,-9.464279174804688,0.21308395266532898,2.319981336593628,-58.7921142578125,23.956298828125,3.6163330078125
3.5699999,-9.095572471618652,0.8523358106613159,3.2369606494903564,-114.2578125,53.1463623046875,0.8697509765625
3.5899999,-8.980650901794434,0.9959878921508789,3.361459255218506,-176.1627197265625,88.623046875,0.2593994140625
3.6099999,-9.11233139038086,0.8523358106613159,2.9664158821105957,-163.543701171875,84.991455078125,-0.6866455078125
3.6299999,-9.605537414550781,0.4213795065879822,1.9560627937316895,-99.212646484375,52.215576171875,4.913330078125
3.6499999,-10.42195987701416,-0.14844051003456116,0.2346317619085312,-85.6781005859375,46.38671875,3.96728515625
3.6699999,-10.972626686096191,-0.10534487664699554,-0.5793967843055725,-73.8067626953125,41.6412353515625,-5.2337646484375
3.6899999,-10.826580047607422,0.2777273952960968,-0.7493851184844971,-75.68359375,39.1082763671875,-8.636474609375
3.7099999,-10.560823440551758,0.6512228846549988,-0.9744400978088379,-115.78369140625,58.9752197265625,-13.214111328125
3.7299999,-9.655815124511719,0.33758243918418884,-1.0678139925003052,-112.823486328125,43.975830078125,-30.517578125
3.7499999,-9.354146003723145,-0.6584054827690125,-1.8626888990402222,-51.6357421875,14.9078369140625,-11.810302734375
3.7699999,-9.232041358947754,-2.2242133617401123,-2.9305028915405273,8.0718994140625,-14.0380859375,-6.5155029296875
3.7899999,-9.6989107131958,-3.4165258407592773,-3.84269380569458,49.31640625,-42.0684814453125,7.5531005859375
3.8099999,-10.156203269958496,-3.861847400665283,-4.132391929626465,84.8846435546875,-59.173583984375,16.0064697265625
3.8299999000000002,-10.788272857666016,-3.268085241317749,-3.6727054119110107,114.013671875,-67.3065185546875,15.594482421875
3.8499999,-11.034875869750977,-2.006340980529785,-2.4803929328918457,117.9351806640625,-73.4405517578125,4.8980712890625
3.8699999,-11.250353813171387,-0.45489832758903503,-0.7134721279144287,92.315673828125,-56.1676025390625,-2.3651123046875
3.8899999,-11.085153579711914,0.8930372595787048,1.3503297567367554,50.2777099609375,-30.1666259765625,-8.6822509765625
3.9099999,-10.735600471496582,1.680729627609253,3.021482467651367,3.082275390625,0.1678466796875,-12.2222900390625
3.9299999,-10.357316970825195,1.6112977266311646,3.9264907836914062,-25.909423828125,21.6827392578125,-8.97216796875
3.9499999,-9.938331604003906,0.8475474119186401,3.8307228088378906,-23.406982421875,27.16064453125,-6.8206787109375
3.9699999,-9.6989107131958,-0.42616790533065796,2.853888511657715,-2.4871826171875,16.8609619140625,0.1373291015625
3.9899999,-9.488221168518066,-1.6400281190872192,1.4413094520568848,21.6064453125,4.302978515625,13.0462646484375
4.0099999,-9.248801231384277,-2.346317768096924,0.19871874153614044,36.7584228515625,-5.6610107421875,20.44677734375
4.029999900000001,-8.937555313110352,-2.3056161403656006,-0.5482721924781799,33.5693359375,-8.1939697265625,22.1099853515625
4.0499999,-8.588001251220703,-1.6519991159439087,-0.6919242739677429,14.923095703125,-2.50244140625,18.5699462890625
4.069999900000001,-8.434772491455078,-0.7038952708244324,-0.38067805767059326,-6.622314453125,5.1116943359375,14.0380859375
4.0899999000000005,-8.554482460021973,0.15083470940589905,0.06703764945268631,-7.598876953125,9.3841552734375,8.4228515625
4.1099999,-8.999804496765137,0.6943184733390808,0.43095630407333374,-6.3629150390625,8.0413818359375,2.9754638671875
4.1299999000000005,-9.59596061706543,0.8523358106613159,0.569819986820221,0.457763671875,4.302978515625,-3.448486328125
4.1499999,-10.273519515991211,0.727837324142456,0.5363011956214905,8.85009765625,0.0457763671875,-7.3394775390625
4.1699999000000005,-10.730812072753906,0.35913026332855225,0.4429273009300232,12.4053955078125,-2.3651123046875,-9.2926025390625
4.1899999,-10.970232009887695,-0.09576806426048279,0.38546648621559143,7.904052734375,-2.0294189453125,-6.4697265625
4.209999900000001,-10.888829231262207,-0.5291185975074768,0.38546648621559143,1.46484375,-0.6866455078125,-1.6021728515625
4.2299999,-10.579977035522461,-0.8643068075180054,0.43095630407333374,-2.1514892578125,0.06103515625,1.617431640625
4.249999900000001,-10.134655952453613,-1.048660397529602,0.47644615173339844,-2.6702880859375,-0.67138671875,3.0517578125
4.2699999,-9.6989107131958,-1.0869675874710083,0.4836287498474121,3.997802734375,0.396728515625,6.8511962890625
4.289999900000001,-9.363722801208496,-1.0079588890075684,0.4596867263317108,7.3089599609375,0.152587890625,9.27734375
4.3099999,-9.169792175292969,-0.8451532125473022,0.4189853072166443,12.8021240234375,-1.6632080078125,8.7890625
4.329999900000001,-9.174580574035645,-0.6751648783683777,0.038307227194309235,-22.979736328125,-2.7008056640625,12.0086669921875
4.3499999,-9.282320022583008,-0.47165772318840027,-0.07422025501728058,-71.7010498046875,-10.833740234375,11.7950439453125
4.369999900000001,-9.50737476348877,-0.363918662071228,-0.31124621629714966,38.14697265625,-11.2457275390625,3.326416015625
4.3899999,-9.744400978088379,-0.3256114423274994,-0.1867477297782898,43.45703125,-11.9476318359375,2.960205078125
4.409999900000001,-9.99339771270752,-0.3256114423274994,0.14365209639072418,40.496826171875,-10.6353759765625,4.7760009765625
4.4299999,-10.24000072479248,-0.29209262132644653,0.5722141861915588,35.7818603515625,-5.950927734375,5.7525634765625
4.449999900000001,-10.441113471984863,-0.21547815203666687,0.9074024558067322,25.665283203125,-1.1138916015625,3.41796875
4.4699999,-10.575188636779785,-0.05027823522686958,1.0845733880996704,24.7344970703125,1.708984375,2.44140625
4.489999900000001,-10.627861022949219,0.13168109953403473,1.0797849893569946,24.6734619140625,0.3509521484375,1.28173828125
4.5099999,-10.60152530670166,0.2753331959247589,0.9552865028381348,22.64404296875,-1.739501953125,-1.434326171875
4.529999900000001,-10.527304649353027,0.363918662071228,0.7996633648872375,21.0113525390625,-2.6397705078125,-5.035400390625
4.5499999,-10.376470565795898,0.3208230137825012,0.7350199222564697,18.8751220703125,-1.8157958984375,-7.4462890625
4.569999900000001,-10.129867553710938,0.14844051003456116,0.7422025203704834,17.4407958984375,0.0152587890625,-6.5155029296875
4.5899999000000005,-9.770736694335938,-0.12928688526153564,0.7972691655158997,16.571044921875,2.7923583984375,-2.044677734375
4.609999900000001,-9.452308654785156,-0.363918662071228,0.8044517636299133,20.69091796875,4.241943359375,2.2125244140625
4.6299999000000005,-9.188945770263672,-0.47884035110473633,0.689530074596405,25.634765625,3.8299560546875,1.434326171875
4.6499999,-9.11233139038086,-0.5003881454467773,0.4357447028160095,28.01513671875,-0.8087158203125,-1.373291015625
4.6699999000000005,-9.193734169006348,-0.45250412821769714,0.15801730751991272,33.14208984375,-7.8125,-0.762939453125
4.6899999,-9.41639518737793,-0.42856210470199585,-0.004788403399288654,36.224365234375,-14.007568359375,1.6326904296875
4.709999900000001,-9.732429504394531,-0.395043283700943,0.0694318488240242,25.360107421875,-13.7176513671875,5.4931640625
4.7299999,-10.098742485046387,-0.3064578175544739,0.3902548849582672,2.6397705078125,-7.5836181640625,9.5367431640625
4.749999900000001,-10.412383079528809,-0.05506663769483566,0.7637503147125244,7.6904296875,-2.9754638671875,4.425048828125
4.7699999,-10.579977035522461,0.23702596127986908,1.0606313943862915,10.7879638671875,-3.7078857421875,-0.7171630859375
4.789999900000001,-10.60152530670166,0.524330198764801,1.170764684677124,9.8876953125,-4.8675537109375,-5.828857421875
4.8099999,-10.465055465698242,0.6105214357376099,1.1875240802764893,4.7607421875,-5.706787109375,-9.70458984375
4.829999900000001,-10.304644584655762,0.395043283700943,1.173158884048462,12.3138427734375,-4.669189453125,-8.148193359375
4.8499999,-10.101137161254883,-0.031124621629714966,1.2186486721038818,29.1748046875,-1.8463134765625,-2.0904541015625
4.869999900000001,-9.928754806518555,-0.4572925269603729,1.3048399686813354,34.5306396484375,1.0223388671875,3.936767578125
4.8899999,-9.835380554199219,-0.6560112833976746,1.3431471586227417,31.0211181640625,4.608154296875,5.6304931640625
4.909999900000001,-9.919178009033203,-0.4405331015586853,1.2545616626739502,23.834228515625,6.591796875,2.227783203125
4.9299999,-10.002974510192871,0.08858546614646912,0.8978256583213806,18.5089111328125,0.79345703125,-9.21630859375
4.949999900000001,-10.314221382141113,0.6272808313369751,0.569819986820221,9.8114013671875,-4.6844482421875,-17.1966552734375
4.9699999,-10.503362655639648,0.9600749015808105,0.29209262132644653,7.843017578125,-9.7503662109375,-22.5067138671875
4.989999900000001,-10.630255699157715,0.9002198576927185,0.2777273952960968,4.180908203125,-8.8348388671875,-21.6217041015625
5.0099999,-10.632649421691895,0.47165772318840027,0.40940847992897034,0.8697509765625,-7.5836181640625,-12.7716064453125
5.029999900000001,-10.69489860534668,-0.15562310814857483,0.5554547905921936,14.09912109375,-8.36181640625,-4.4097900390625
5.0499999,-10.541669845581055,-0.6368576288223267,0.6392518281936646,34.36279296875,-18.524169921875,-14.09912109375
5.069999900000001,-10.541669845581055,-1.0797849893569946,0.689530074596405,38.818359375,-24.0936279296875,-6.53076171875
5.0899999000000005,-10.424354553222656,-1.1348515748977661,0.9600749015808105,36.6973876953125,-24.3072509765625,-2.899169921875
5.109999900000001,-10.108319282531738,-1.2473790645599365,1.192312479019165,30.303955078125,-16.17431640625,-2.5177001953125
5.1299999000000005,-9.761159896850586,-0.912190854549408,1.577778935432434,23.2086181640625,-9.82666015625,-1.9683837890625
5.1499999,-9.423578262329102,-0.6607996821403503,1.8818424940109253,25.3448486328125,-6.4239501953125,0.762939453125
5.1699999000000005,-9.08838939666748,-0.12210428714752197,2.169146776199341,14.4805908203125,3.143310546875,-2.74658203125
5.1899999,-9.157821655273438,0.21308395266532898,2.322375535964966,-5.157470703125,12.8021240234375,-5.615234375
5.209999900000001,-9.071630477905273,0.35434186458587646,2.319981336593628,-14.739990234375,11.2457275390625,-7.415771484375
5.2299999,-9.217676162719727,0.15322890877723694,2.145204782485962,-10.6048583984375,10.6353759765625,-1.8463134765625
5.249999900000001,-9.29189682006836,-0.22266076505184174,1.7693150043487549,-7.4615478515625,17.4713134765625,6.439208984375
5.2699999,-9.418789863586426,-0.6033388376235962,1.3982137441635132,0.5340576171875,12.1002197265625,5.645751953125
5.289999900000001,-9.66299819946289,-0.7230489253997803,1.0582371950149536,8.9263916015625,12.4969482421875,4.8675537109375
5.3099999,-9.979032516479492,-0.5506663918495178,0.9361328482627869,5.5999755859375,11.6119384765625,1.6632080078125
5.329999900000001,-10.199298858642578,-0.1149216815829277,0.9050082564353943,-9.490966796875,16.3421630859375,-6.591796875
5.3499999,-10.541669845581055,0.2992752194404602,1.0031704902648926,-22.4151611328125,18.218994140625,-10.284423828125
5.369999900000001,-10.632649421691895,0.4165911078453064,0.993593692779541,-17.39501953125,8.8348388671875,-16.1590576171875
5.3899999,-10.611102104187012,0.11013327538967133,0.8978256583213806,-2.2735595703125,3.96728515625,-12.4053955078125
5.409999900000001,-10.41956615447998,-0.49559974670410156,0.6751648783683777,15.80810546875,2.74658203125,-3.021240234375
5.4299999,-10.012551307678223,-1.0749965906143188,0.507570743560791,30.8837890625,-1.495361328125,1.007080078125
5.449999900000001,-9.725247383117676,-1.41257905960083,0.36152446269989014,38.4368896484375,-5.7220458984375,3.143310546875
5.4699999,-9.545681953430176,-1.3072341680526733,0.4118026793003082,37.8265380859375,-7.4462890625,1.9989013671875
5.489999900000001,-9.437943458557129,-0.8571242094039917,0.6631938815116882,22.2320556640625,-1.15966796875,1.983642578125
5.5099999,-9.437943458557129,-0.3471592366695404,1.0462661981582642,-3.814697265625,8.1329345703125,-0.2593994140625
5.529999900000001,-9.433155059814453,0.06224924325942993,1.3718775510787964,-19.989013671875,14.5721435546875,-2.5177001953125
5.5499999,-9.502586364746094,0.08140286058187485,1.5394717454910278,-13.214111328125,12.5579833984375,-2.5787353515625
5.569999900000001,-9.526528358459473,-0.08619125932455063,1.400607943534851,1.6326904296875,8.97216796875,-2.50244140625
5.5899999000000005,-9.617507934570312,-0.24420857429504395,1.3215993642807007,12.9241943359375,9.002685546875,0.244140625
5.609999900000001,-9.854534149169922,-0.043095629662275314,1.2617442607879639,3.6773681640625,17.913818359375,-1.03759765625
5.6299999000000005,-10.886435508728027,0.44532153010368347,1.4508862495422363,-23.74267578125,21.6522216796875,-11.0015869140625
5.6499999,-11.801020622253418,0.9840168952941895,1.6376339197158813,-50.537109375,-13.1378173828125,-40.435791015625
5.6699999000000005,-12.806585311889648,1.2306196689605713,1.659181833267212,-63.2171630859375,-9.1705322265625,-38.8031005859375
5.6899999,-12.966996192932129,1.0606313943862915,1.3527239561080933,-52.24609375,18.4173583984375,-19.5465087890625
5.709999900000001,-12.318167686462402,0.5770025849342346,0.727837324142456,-19.317626953125,25.4364013671875,1.220703125
5.7299999,-11.209651947021484,-0.090979665517807,-0.10773907601833344,9.82666015625,2.3345947265625,14.892578125
5.749999900000001,-9.995792388916016,-0.6536170840263367,-0.8571242094039917,4.1961669921875,-20.050048828125,18.24951171875
5.7699999,-8.834604263305664,-1.1540051698684692,-1.1109095811843872,7.2174072265625,-23.9410400390625,24.5819091796875
5.789999900000001,-7.864952564239502,-1.482010841369629,-1.0821791887283325,0.7781982421875,-6.134033203125,32.012939453125
5.8099999,-7.247248649597168,-1.6400281190872192,-0.7015010714530945,-0.1983642578125,12.3291015625,33.905029296875
5.829999900000001,-7.053318023681641,-1.7118542194366455,-0.40701428055763245,14.129638671875,17.0135498046875,31.7230224609375
5.8499999,-7.359776020050049,-1.6903064250946045,-0.31364041566848755,23.01025390625,5.7220458984375,25.08544921875
5.869999900000001,-7.91283655166626,-1.6208745241165161,-0.2801215946674347,29.35791015625,-8.453369140625,18.5699462890625
5.8899999,-8.556877136230469,-1.4987702369689941,-0.2059013396501541,32.40966796875,-13.9007568359375,10.9100341796875
5.909999900000001,-9.124302864074707,-1.3431471586227417,0.019153613597154617,30.487060546875,-6.3018798828125,3.2958984375
5.9299999,-9.648633003234863,-1.1300631761550903,0.3519476354122162,24.2919921875,5.462646484375,-3.173828125
5.949999900000001,-10.067618370056152,-0.9074024558067322,0.7015010714530945,15.93017578125,-0.0457763671875,-8.6517333984375
5.9699999,-10.395624160766602,-0.6751648783683777,0.9840168952941895,7.4005126953125,-20.4010009765625,-7.965087890625
5.989999900000001,-10.541669845581055,-0.4381389021873474,1.314416766166687,8.3160400390625,-29.6173095703125,-2.99072265625
6.0099999,-10.505757331848145,-0.2322375625371933,1.534683346748352,-4.3792724609375,-18.24951171875,-2.1209716796875
6.029999900000001,-10.32858657836914,-0.05985504388809204,1.7621324062347412,-15.2740478515625,0,-9.4451904296875
6.0499999,-10.15141487121582,-0.08619125932455063,1.8267759084701538,-17.4102783203125,8.819580078125,-18.402099609375
6.069999900000001,-9.885659217834473,0.002394201699644327,1.7549498081207275,-16.021728515625,18.6767578125,-22.0489501953125
6.0899999000000005,-9.864110946655273,-0.12449848651885986,1.501164436340332,-14.739990234375,42.3126220703125,-28.472900390625
6.109999900000001,-9.765948295593262,-0.17956513166427612,1.2114660739898682,-11.6119384765625,23.9105224609375,-28.74755859375
6.1299999000000005,-9.761159896850586,-0.272938996553421,0.9289502501487732,-13.12255859375,-1.0986328125,-18.1732177734375
6.149999900000001,-9.739612579345703,-0.3663128614425659,0.7565677165985107,-13.427734375,-5.7220458984375,-5.3558349609375
6.1699999000000005,-9.622296333312988,-0.4141969084739685,0.7038952708244324,-8.2855224609375,3.1890869140625,3.2501220703125
6.1899999,-9.490615844726562,-0.3902548849582672,0.7422025203704834,-2.62451171875,13.7176513671875,4.8370361328125
6.209999900000001,-9.44752025604248,-0.3064578175544739,0.7757213711738586,-4.2266845703125,19.622802734375,3.9825439453125
6.2299999,-9.497797966003418,-0.2059013396501541,0.7876923680305481,-3.47900390625,15.2435302734375,9.8114013671875
6.249999900000001,-9.59835433959961,-0.10534487664699554,0.7374141216278076,-0.5645751953125,14.129638671875,14.8468017578125
6.2699999,-9.703699111938477,-0.033518824726343155,0.6560112833976746,6.3323974609375,25.421142578125,11.04736328125
6.289999900000001,-9.775525093078613,-0.014365210197865963,0.5147533416748047,13.3514404296875,39.5965576171875,6.53076171875
6.3099999,-9.911994934082031,-0.033518824726343155,0.2849099934101105,19.2108154296875,47.2564697265625,1.800537109375
6.329999900000001,-10.070012092590332,-0.12689268589019775,0.0071826050989329815,25.146484375,29.388427734375,-1.251220703125
6.3499999,-10.223240852355957,-0.2513911724090576,-0.22026655077934265,23.9715576171875,-8.6212158203125,4.4403076171875
6.369999900000001,-10.335768699645996,-0.3447650372982025,-0.29209262132644653,15.7470703125,-36.07177734375,15.106201171875
6.3899999,-10.345345497131348,-0.40940847992897034,-0.17717093229293823,9.124755859375,-38.1622314453125,19.134521484375
6.409999900000001,-10.280701637268066,-0.40701428055763245,0.15083470940589905,5.523681640625,-33.4625244140625,16.937255859375
6.4299999,-10.32858657836914,-0.3423708379268646,0.507570743560791,1.2359619140625,-25.0244140625,16.0980224609375
6.449999900000001,-10.429142951965332,-0.26815059781074524,0.828393816947937,-1.52587890625,-23.7884521484375,15.594482421875
6.4699999,-10.56800651550293,-0.1843535304069519,1.0773907899856567,-3.4942626953125,-25.2838134765625,9.46044921875
6.489999900000001,-10.639832496643066,-0.13407529890537262,1.1851298809051514,-4.5166015625,-11.0015869140625,-1.5106201171875
6.5099999,-10.548852920532227,-0.1364694982767105,1.1827356815338135,-4.8675537109375,3.7384033203125,-6.134033203125
6.529999900000001,-10.287884712219238,-0.16759411990642548,1.0606313943862915,-4.8675537109375,5.7373046875,-1.8310546875
6.5499999,-9.854534149169922,-0.24181437492370605,0.8738836050033569,-4.0130615234375,2.5482177734375,4.302978515625
6.569999900000001,-9.378087997436523,-0.28969839215278625,0.6512228846549988,-4.2572021484375,7.2174072265625,11.5509033203125
6.5899999000000005,-9.433155059814453,-0.272938996553421,0.4812345504760742,-3.326416015625,13.9312744140625,15.106201171875
6.609999900000001,-9.461885452270508,-0.22266076505184174,0.3974374830722809,-0.9765625,0.91552734375,-3.5400390625
6.6299999000000005,-9.955090522766113,-0.14844051003456116,0.4141969084739685,0.3814697265625,-6.40869140625,-5.31005859375
6.649999900000001,-10.316615104675293,-0.0454898327589035,0.47884035110473633,1.129150390625,-0.3204345703125,6.7596435546875
6.6699999000000005,-10.438719749450684,0.023942016065120697,0.5578489899635315,1.495361328125,-1.2054443359375,4.119873046875
6.6899999,-10.371682167053223,0.0933738648891449,0.5961562395095825,0.5340576171875,-2.3040771484375,2.960205078125
6.709999900000001,-10.177751541137695,0.12689268589019775,0.5913678407669067,-1.7852783203125,-3.23486328125,2.38037109375
6.7299999,-9.986215591430664,0.17238251864910126,0.5434837937355042,-5.767822265625,-3.8909912109375,2.532958984375
6.749999900000001,-9.837775230407715,0.24181437492370605,0.4692635238170624,-9.27734375,-4.852294921875,0.579833984375
6.7699999,-9.830592155456543,0.33758243918418884,0.395043283700943,-11.5509033203125,-7.354736328125,-1.617431640625
6.789999900000001,-9.952696800231934,0.608127236366272,0.629675030708313,-26.763916015625,-4.5623779296875,-6.378173828125
6.8099999,-9.938331604003906,0.706289529800415,0.8523358106613159,-32.9742431640625,0.885009765625,-5.7525634765625
6.829999900000001,-10.014945983886719,0.5027823448181152,1.0558429956436157,-32.1044921875,0.5035400390625,-4.1961669921875
6.8499999,-10.077195167541504,0.23702596127986908,1.0558429956436157,-31.6925048828125,-3.7689208984375,-6.927490234375
6.869999900000001,-10.1753568649292,-0.31364041566848755,0.8762778043746948,-16.2811279296875,-7.2784423828125,-9.552001953125
6.8899999,-10.278307914733887,-0.7422025203704834,0.4596867263317108,7.354736328125,-11.5203857421875,-5.5389404296875
6.909999900000001,-10.321403503417969,-1.1659762859344482,0.0694318488240242,28.8238525390625,-21.3165283203125,1.4190673828125
6.9299999,-10.271124839782715,-1.1180921792984009,-0.2059013396501541,41.07666015625,-29.022216796875,4.8980712890625
6.949999900000001,-10.299856185913086,-1.0582371950149536,-0.19153612852096558,44.25048828125,-37.0025634765625,6.6070556640625
6.9699999,-10.168174743652344,-0.5961562395095825,0.1364694982767105,41.1224365234375,-40.83251953125,1.708984375
6.989999900000001,-9.983820915222168,-0.08858546614646912,0.6991068720817566,34.0118408203125,-33.7677001953125,-4.7760009765625
7.0099999,-9.761159896850586,0.45250412821769714,1.3982137441635132,22.76611328125,-23.01025390625,-6.011962890625
7.029999900000001,-9.521739959716797,0.8475474119186401,2.0039467811584473,8.97216796875,-13.275146484375,-6.28662109375
7.0499999,-9.464279174804688,1.115697979927063,2.542642116546631,-2.2125244140625,-9.185791015625,-7.8582763671875
7.069999900000001,-9.476250648498535,1.1204863786697388,2.8155810832977295,-11.65771484375,-8.2855224609375,-13.824462890625
7.0899999000000005,-9.536105155944824,0.9672574996948242,2.851494312286377,-19.2108154296875,0.946044921875,-20.9503173828125
7.109999900000001,-9.617507934570312,0.6177040338516235,2.6671407222747803,-20.5535888671875,10.406494140625,-20.233154296875
7.1299999000000005,-9.648633003234863,0.181959331035614,2.2457611560821533,-15.3961181640625,8.2855224609375,-15.289306640625
7.149999900000001,-9.830592155456543,-0.28969839215278625,1.7525556087493896,-7.2021484375,1.495361328125,-11.16943359375
7.1699999000000005,-10.036493301391602,-0.7422025203704834,1.2282254695892334,1.3427734375,-10.6658935546875,-12.3443603515625
7.1899999,-10.213664054870605,-1.1324573755264282,0.8212111592292786,10.4522705078125,-15.411376953125,-14.129638671875
7.209999900000001,-10.342951774597168,-1.3934253454208374,0.6009446382522583,20.8282470703125,-14.5721435546875,-7.049560546875
7.2299999,-10.199298858642578,-1.522712230682373,0.6033388376235962,27.28271484375,-19.744873046875,-0.4119873046875
7.249999900000001,-10.086771965026855,-1.3982137441635132,0.8092401623725891,26.06201171875,-23.13232421875,5.126953125
7.2699999,-9.916783332824707,-1.113303780555725,1.2330138683319092,19.2108154296875,-26.1993408203125,5.096435546875
7.289999900000001,-9.725247383117676,-0.751779317855835,1.7932571172714233,8.8958740234375,-21.881103515625,-0.1220703125
7.3099999,-9.607931137084961,-0.3447650372982025,2.3319525718688965,-2.0599365234375,-7.354736328125,0.091552734375
7.329999900000001,-9.425971984863281,-0.05506663769483566,2.7078421115875244,-11.7340087890625,-0.6866455078125,1.800537109375
7.3499999,-9.421183586120605,0.17238251864910126,2.782062292098999,-17.08984375,-0.7171630859375,2.2125244140625
7.369999900000001,-9.533711433410645,0.2298433631658554,2.6455929279327393,-16.754150390625,-6.6680908203125,1.5411376953125
7.3899999,-9.651026725769043,0.15083470940589905,2.451662540435791,-16.204833984375,-10.894775390625,-6.805419921875
7.409999900000001,-9.72285270690918,-0.07422025501728058,2.248155355453491,-16.571044921875,-1.6632080078125,-8.087158203125
7.4299999,-9.72285270690918,-0.3447650372982025,2.1811177730560303,-12.6495361328125,3.1890869140625,-1.6021728515625
7.449999900000001,-9.639056205749512,-0.6368576288223267,2.094926595687866,-5.8746337890625,-0.213623046875,1.0528564453125
7.4699999,-9.737217903137207,-0.8140285611152649,2.1116859912872314,0.5645751953125,-5.7525634765625,4.9896240234375
7.489999900000001,-9.792284965515137,-0.9169792532920837,2.1308395862579346,2.532958984375,-10.31494140625,-0.6256103515625
7.5099999,-9.787496566772461,-0.9002198576927185,2.1571757793426514,0.1220703125,-2.960205078125,-4.45556640625
7.529999900000001,-9.806650161743164,-0.7374141216278076,2.1715409755706787,0.1068115234375,2.716064453125,2.9144287109375
7.5499999,-9.682151794433594,-0.5770025849342346,2.118868589401245,-0.091552734375,-1.953125,2.349853515625
7.569999900000001,-9.770736694335938,-0.3902548849582672,2.10210919380188,-2.9449462890625,-5.3558349609375,4.4708251953125
7.5899999000000005,-9.821015357971191,-0.33039984107017517,2.1523873805999756,-5.7220458984375,-9.58251953125,0.1678466796875
7.609999900000001,-9.785101890563965,-0.26575639843940735,2.233790159225464,-8.941650390625,-5.18798828125,-6.0577392578125
7.6299999000000005,-9.794678688049316,-0.4141969084739685,2.3032219409942627,-9.4146728515625,3.7078857421875,1.77001953125
7.649999900000001,-9.66539192199707,-0.507570743560791,2.3702597618103027,-8.6212158203125,1.617431640625,4.150390625
7.6699999000000005,-9.660603523254395,-0.5291185975074768,2.3343467712402344,-7.8582763671875,-0.8697509765625,6.317138671875
7.6899999,-9.749189376831055,-0.5291185975074768,2.3702597618103027,-6.16455078125,-6.28662109375,5.2642822265625
7.709999900000001,-9.804255485534668,-0.5746083855628967,2.360682964324951,-7.7056884765625,-5.3253173828125,-3.448486328125
7.7299999,-9.835380554199219,-0.49320554733276367,2.3080103397369385,-8.087158203125,4.2724609375,0.3204345703125
7.749999900000001,-9.710882186889648,-0.5363011956214905,2.2146365642547607,-4.45556640625,2.166748046875,4.0435791015625
7.7699999,-9.706093788146973,-0.5195417404174805,2.1092917919158936,-1.46484375,-2.86865234375,6.072998046875
7.789999900000001,-9.679757118225098,-0.4357447028160095,2.054224967956543,-1.0223388671875,-8.819580078125,6.6680908203125
7.8099999,-9.624691009521484,-0.35434186458587646,2.0853497982025146,-4.425048828125,-8.8653564453125,-2.50244140625
7.829999900000001,-9.68694019317627,-0.31603461503982544,2.2146365642547607,-7.2784423828125,1.953125,-4.852294921875
7.8499999,-9.524134635925293,-0.20111294090747833,2.3535003662109375,-6.34765625,4.4708251953125,-0.274658203125
7.869999900000001,-9.550470352172852,-0.15083470940589905,2.451662540435791,-6.866455078125,3.021240234375,-0.5340576171875
7.8899999,-9.679757118225098,-0.17956513166427612,2.5043349266052246,-6.7138671875,-1.6021728515625,0.518798828125
7.909999900000001,-9.715670585632324,-0.21308395266532898,2.4803929328918457,-5.7830810546875,-5.2032470703125,-5.9814453125
7.9299999,-9.78989028930664,-0.33039984107017517,2.434903144836426,-5.0201416015625,1.6632080078125,-11.3983154296875
7.949999900000001,-9.749189376831055,-0.545877993106842,2.3750481605529785,-1.1749267578125,5.43212890625,-3.1585693359375
7.9699999,-9.655815124511719,-0.6320692300796509,2.2673089504241943,1.9073486328125,4.39453125,-1.6632080078125
7.989999900000001,-9.66539192199707,-0.7182605266571045,2.2242133617401123,3.2196044921875,-0.9918212890625,0.762939453125
8.0099999,-9.77791976928711,-0.7852981686592102,2.188300371170044,1.40380859375,-6.0577392578125,0.885009765625
8.0299999,-9.701305389404297,-0.7134721279144287,2.183511972427368,-1.8768310546875,-0.762939453125,-7.2784423828125
8.049999900000001,-9.725247383117676,-0.7206547260284424,2.231395959854126,-1.556396484375,6.3629150390625,-1.46484375
8.069999900000001,-9.643844604492188,-0.6799532771110535,2.2840683460235596,-2.1209716796875,6.7138671875,2.7923583984375
8.0899999,-9.610325813293457,-0.49799394607543945,2.2888567447662354,-5.767822265625,5.4473876953125,2.9144287109375
8.1099999,-9.780313491821289,-0.45010992884635925,2.3774423599243164,-11.8865966796875,0.0457763671875,2.8076171875
8.129999900000001,-9.744400978088379,-0.3687070608139038,2.3582887649536133,-14.9688720703125,0.5950927734375,-4.7149658203125
8.149999900000001,-9.75397777557373,-0.35913026332855225,2.341529369354248,-11.1541748046875,7.50732421875,-8.3770751953125
8.1699999,-9.691728591918945,-0.5722141861915588,2.2649147510528564,-3.4942626953125,5.279541015625,-0.2288818359375
8.1899999,-9.555258750915527,-0.5937620401382446,2.1164743900299072,-0.640869140625,4.4097900390625,1.1138916015625
8.2099999,-9.648633003234863,-0.667982280254364,2.0254945755004883,-3.021240234375,-3.2958984375,0.2288818359375
8.229999900000001,-9.75397777557373,-0.7326257228851318,1.946485996246338,-4.8675537109375,-8.60595703125,-1.6326904296875
8.2499999,-9.732429504394531,-0.6871358752250671,1.941697597503662,-2.2125244140625,-4.4403076171875,-8.4228515625
8.2699999,-9.806650161743164,-0.7781155705451965,1.98958158493042,4.4097900390625,-1.4495849609375,-2.166748046875
8.2899999,-9.744400978088379,-0.7852981686592102,2.1045033931732178,6.011962890625,-0.640869140625,3.2958984375
8.309999900000001,-9.68694019317627,-0.689530074596405,2.231395959854126,0.3662109375,-2.6702880859375,2.7313232421875
8.3299999,-9.837775230407715,-0.6847416758537292,2.4420857429504395,-6.561279296875,-5.950927734375,1.4495849609375
8.3499999,-9.672574996948242,-0.5530605912208557,2.585737943649292,-9.1705322265625,0.2593994140625,-5.889892578125
8.3699999,-9.6989107131958,-0.5530605912208557,2.6647465229034424,-5.5999755859375,8.880615234375,-5.0811767578125
8.389999900000001,-9.5624418258667,-0.5530605912208557,2.674323320388794,-2.4261474609375,8.5296630859375,0.701904296875
8.4099999,-9.509769439697266,-0.48602294921875,2.5498247146606445,-4.7149658203125,7.2174072265625,1.922607421875
8.4299999,-9.639056205749512,-0.5578489899635315,2.4660277366638184,-8.758544921875,0.9002685546875,-0.946044921875
8.4499999,-9.639056205749512,-0.629675030708313,2.2888567447662354,-8.5601806640625,0.9307861328125,-5.157470703125
8.469999900000001,-9.710882186889648,-0.7469909191131592,2.1763293743133545,-3.173828125,7.8125,-6.8206787109375
8.4899999,-9.651026725769043,-0.8978256583213806,2.0446481704711914,2.6702880859375,6.378173828125,-0.18310546875
8.5099999,-9.6989107131958,-0.933738648891449,1.944091796875,3.662109375,3.4332275390625,5.3253173828125
8.5299999,-9.775525093078613,-0.8882488012313843,1.9488801956176758,1.9683837890625,-3.6773681640625,1.0223388671875
8.549999900000001,-9.830592155456543,-0.8427590131759644,2.006340980529785,1.0833740234375,-7.0037841796875,-1.1749267578125
8.569999900000001,-9.823410034179688,-0.7015010714530945,2.099714994430542,-0.18310546875,1.190185546875,-7.4005126953125
8.5899999,-9.758766174316406,-0.7086837291717529,2.145204782485962,0.42724609375,7.0648193359375,-2.5482177734375
8.6099999,-9.718064308166504,-0.6009446382522583,2.1523873805999756,0.1220703125,2.777099609375,3.662109375
8.629999900000001,-9.6989107131958,-0.6153098344802856,2.126051187515259,-2.0294189453125,-3.448486328125,0.732421875
8.649999900000001,-9.821015357971191,-0.6655880808830261,2.1140801906585693,-3.0364990234375,-7.62939453125,-0.701904296875
8.6699999,-9.68933391571045,-0.6560112833976746,2.118868589401245,-2.01416015625,-3.997802734375,-7.781982421875
8.6899999,-9.720458984375,-0.8259995579719543,2.166752576828003,-0.1373291015625,5.0201416015625,-2.8839111328125
8.709999900000001,-9.600749015808105,-0.8236053586006165,2.1595699787139893,-1.1749267578125,3.509521484375,4.547119140625
8.729999900000001,-9.655815124511719,-0.8379706144332886,2.229001760482788,-4.2572021484375,-1.2664794921875,4.7760009765625
8.7499999,-9.782708168029785,-0.8738836050033569,2.229001760482788,-4.8675537109375,-5.950927734375,1.77001953125
8.7699999,-9.696516990661621,-0.768538773059845,2.2697031497955322,-3.7994384765625,-4.2572021484375,-4.6539306640625
8.7899999,-9.751583099365234,-0.7924807667732239,2.322375535964966,-2.5634765625,6.988525390625,-4.2572021484375
8.809999900000001,-9.560047149658203,-0.6991068720817566,2.315192937850952,-2.0751953125,8.7890625,3.3111572265625
8.8299999,-9.651026725769043,-0.6153098344802856,2.3487119674682617,-3.3721923828125,3.448486328125,4.5166015625
8.8499999,-9.696516990661621,-0.6344634294509888,2.298433542251587,-3.753662109375,-2.2430419921875,-0.274658203125
8.8699999,-9.765948295593262,-0.5841852426528931,2.274491548538208,-2.960205078125,-3.0059814453125,-3.8604736328125
8.889999900000001,-9.744400978088379,-0.7709329724311829,2.1954829692840576,-1.617431640625,6.0882568359375,-7.99560546875
8.9099999,-9.603142738342285,-0.7996633648872375,2.1571757793426514,1.190185546875,10.19287109375,1.28173828125
8.9299999,-9.605537414550781,-0.7996633648872375,2.1068975925445557,0.8392333984375,4.82177734375,4.791259765625
8.9499999,-9.646238327026367,-0.8020575642585754,2.123656988143921,-2.3345947265625,-0.213623046875,0.091552734375
8.969999900000001,-9.785101890563965,-0.6560112833976746,2.1475989818573,-3.204345703125,-2.471923828125,-3.0975341796875
8.9899999,-9.785101890563965,-0.7254431247711182,2.1380221843719482,-1.6021728515625,3.3111572265625,-9.918212890625
9.0099999,-9.713275909423828,-0.7182605266571045,2.1380221843719482,1.068115234375,10.7421875,-3.0059814453125
9.0299999,-9.677363395690918,-0.730231523513794,2.1092917919158936,0.274658203125,7.01904296875,3.204345703125
9.049999900000001,-9.674968719482422,-0.811634361743927,2.049436569213867,-2.0904541015625,1.0528564453125,0.7781982421875
9.069999900000001,-9.813833236694336,-0.7852981686592102,2.049436569213867,-1.89208984375,-3.5858154296875,-1.4801025390625
9.0899999,-9.84495735168457,-0.9528923034667969,2.0374655723571777,-0.4119873046875,-1.1138916015625,-6.7138671875
9.1099999,-9.81143856048584,-0.9720458984375,1.9991583824157715,1.708984375,7.720947265625,-3.3416748046875
9.129999900000001,-9.6989107131958,-0.9792284965515137,1.9823989868164062,1.9683837890625,5.2642822265625,5.79833984375
9.149999900000001,-9.682151794433594,-0.9193734526634216,1.968033790588379,-1.312255859375,-1.1444091796875,5.2490234375
9.1699999,-9.725247383117676,-0.7493851184844971,1.9584569931030273,-4.3182373046875,-5.2642822265625,1.0223388671875
9.1899999,-9.799467086791992,-0.7637503147125244,2.0685901641845703,-5.5999755859375,-4.180908203125,-4.791259765625
9.209999900000001,-9.737217903137207,-0.6823474764823914,2.1045033931732178,-5.2642822265625,7.2174072265625,-7.0648193359375
9.229999900000001,-9.677363395690918,-0.7134721279144287,2.2170307636260986,-5.645751953125,9.8724365234375,3.387451171875
9.2499999,-9.653421401977539,-0.7637503147125244,2.1763293743133545,-8.6669921875,5.0811767578125,6.1798095703125
9.2699999,-9.653421401977539,-0.7326257228851318,2.169146776199341,-8.819580078125,-0.579833984375,1.9073486328125
9.2899999,-9.780313491821289,-0.9050082564353943,2.118868589401245,-5.2490234375,-3.0975341796875,-1.15966796875
9.309999900000001,-9.679757118225098,-0.8762778043746948,2.0614075660705566,-2.0599365234375,4.45556640625,-6.89697265625
9.3299999,-9.691728591918945,-0.9217676520347595,1.9800047874450684,0.18310546875,9.8876953125,1.28173828125
9.3499999,-9.674968719482422,-0.8810662031173706,1.9177556037902832,0.6866455078125,3.8604736328125,5.9661865234375
9.3699999,-9.744400978088379,-0.7422025203704834,1.8315643072128296,-0.42724609375,-2.0751953125,1.190185546875
9.389999900000001,-9.931148529052734,-0.7996633648872375,1.867477297782898,-0.335693359375,-4.9591064453125,-2.0599365234375
9.4099999,-9.825803756713867,-0.7086837291717529,1.9297266006469727,-0.244140625,0.7781982421875,-8.97216796875
9.4299999,-9.818621635437012,-0.8188169598579407,2.0398597717285156,-0.7171630859375,11.7034912109375,-3.4637451171875
9.4499999,-9.636661529541016,-0.8236053586006165,2.1045033931732178,-2.227783203125,8.60595703125,4.608154296875
9.469999900000001,-9.639056205749512,-0.8595184087753296,2.118868589401245,-4.57763671875,2.8228759765625,3.448486328125
9.4899999,-9.746794700622559,-0.9313444495201111,2.1092917919158936,-4.5166015625,-1.40380859375,0.885009765625
9.5099999,-9.715670585632324,-0.9409212470054626,2.027888774871826,-3.3721923828125,-0.42724609375,-4.5318603515625
9.5299999,-9.81143856048584,-0.9792284965515137,1.9919757843017578,-1.8768310546875,9.9029541015625,-3.47900390625
9.549999900000001,-9.641449928283691,-0.8236053586006165,1.9704279899597168,-6.3323974609375,9.979248046875,5.1116943359375
9.569999900000001,-9.72285270690918,-0.8331822156906128,2.0661959648132324,-20.9808349609375,8.97216796875,6.2255859375
9.5899999,-9.497797966003418,-0.44771572947502136,2.2816741466522217,-36.2091064453125,11.53564453125,-0.4425048828125
9.6099999,-9.464279174804688,-0.2322375625371933,2.779668092727661,-58.65478515625,25.7110595703125,2.0294189453125
9.629999900000001,-8.935160636901855,-0.2059013396501541,2.8107926845550537,-96.3287353515625,46.417236328125,5.2337646484375
9.649999900000001,-7.783549785614014,-0.6392518281936646,2.8155810832977295,-96.4813232421875,50.048828125,13.3819580078125
9.6699999,-6.528987884521484,-1.6687586307525635,2.0159177780151367,-55.72509765625,40.2374267578125,26.2298583984375
9.6899999,-5.746084213256836,-2.674323320388794,0.8978256583213806,-9.5977783203125,26.5045166015625,37.5518798828125
9.709999900000001,-6.358999729156494,-3.0550012588500977,-0.22505496442317963,39.8406982421875,1.068115234375,40.9698486328125
9.729999900000001,-8.702922821044922,-2.2170307636260986,-0.7757213711738586,58.5784912109375,-23.223876953125,28.839111328125
9.7499999,-11.678915977478027,-0.5674257874488831,0.0454898327589035,25.2532958984375,-13.6871337890625,7.8277587890625
9.7699999,-14.271836280822754,1.659181833267212,2.1356279850006104,-74.005126953125,21.4080810546875,4.852294921875
9.7899999,-15.253458976745605,2.964021682739258,4.031835556030273,-210.2203369140625,57.9986572265625,22.8118896484375
9.809999900000001,-14.882357597351074,3.134010076522827,4.692635536193848,-240.05126953125,89.4927978515625,30.0140380859375
9.8299999,-13.354857444763184,2.6671407222747803,4.041412353515625,-164.1845703125,65.3076171875,18.5394287109375
9.8499999,-11.520898818969727,1.2330138683319092,1.702277421951294,-154.4952392578125,12.75634765625,24.7955322265625
9.8699999,-9.677363395690918,-0.42856210470199585,-1.1061211824417114,-124.0692138671875,17.852783203125,19.561767578125
9.889999900000001,-8.523358345031738,-1.50355863571167,-3.0358476638793945,14.8162841796875,13.763427734375,15.7928466796875
9.9099999,-7.7428483963012695,-2.207453966140747,-4.137180328369141,89.5233154296875,-44.6929931640625,12.6495361328125
9.9299999,-7.726089000701904,-2.073378562927246,-3.861847400665283,54.7637939453125,-32.257080078125,3.41796875
9.9499999,-8.145073890686035,-1.1540051698684692,-2.427720546722412,11.2457275390625,-1.46484375,1.861572265625
9.969999900000001,-8.712499618530273,-0.2753331959247589,-0.8140285611152649,3.72314453125,-0.885009765625,-0.3509521484375
9.9899999,-9.368511199951172,0.31603461503982544,0.4884171485900879,18.7530517578125,-3.84521484375,-4.119873046875
10.0099999,-9.916783332824707,0.569819986820221,1.3479355573654175,21.1029052734375,-3.692626953125,-3.021240234375
10.0299999,-10.20648193359375,0.5219359993934631,1.8411411046981812,-1.2969970703125,10.19287109375,-3.4332275390625
10.049999900000001,-10.362105369567871,0.3423708379268646,1.9800047874450684,-17.0135498046875,24.4140625,-1.0986328125
10.069999900000001,-10.376470565795898,0.002394201699644327,1.7717092037200928,-8.2550048828125,21.30126953125,1.6632080078125
10.0899999,-10.321403503417969,-0.3423708379268646,1.2282254695892334,6.927490234375,14.7857666015625,4.241943359375
10.1099999,-10.216058731079102,-0.5267243981361389,0.6224924325942993,2.655029296875,12.87841796875,7.87353515625
10.129999900000001,-10.017339706420898,-0.5219359993934631,0.10295066982507706,-11.5814208984375,12.14599609375,8.8958740234375
10.149999900000001,-9.86650562286377,-0.272938996553421,-0.21308395266532898,-11.4898681640625,9.521484375,5.5694580078125
10.1699999,-9.727641105651855,-0.019153613597154617,-0.3447650372982025,-3.8604736328125,6.40869140625,-1.5869140625
10.1899999,-9.679757118225098,0.22505496442317963,-0.3256114423274994,-1.2664794921875,6.1798095703125,-6.439208984375
10.209999900000001,-9.636661529541016,0.3423708379268646,-0.17717093229293823,-6.103515625,6.866455078125,-6.9580078125
10.229999900000001,-9.605537414550781,0.363918662071228,0.05746084079146385,-11.8865966796875,8.636474609375,-7.476806640625
10.2499999,-9.605537414550781,0.2849099934101105,0.22505496442317963,-19.6075439453125,17.486572265625,-8.8653564453125
10.2699999,-9.643844604492188,0.11971008777618408,0.2825157940387726,-22.979736328125,26.42822265625,-9.9334716796875
10.2899999,-9.751583099365234,-0.12449848651885986,0.1364694982767105,-19.04296875,29.571533203125,-8.4686279296875
10.309999900000001,-10.120290756225586,-0.3495534360408783,-0.14844051003456116,-6.6375732421875,22.4151611328125,-6.9122314453125
10.3299999,-10.524910926818848,-0.5961562395095825,-0.5003881454467773,-4.8675537109375,8.0108642578125,-5.2337646484375
10.3499999,-10.917559623718262,-0.7637503147125244,-0.7661445140838623,-7.87353515625,-2.4566650390625,-0.9918212890625
10.3699999,-11.192893028259277,-0.8331822156906128,-1.036689281463623,-25.4364013671875,1.77001953125,5.462646484375
10.389999900000001,-10.989385604858398,-0.667982280254364,-0.9193734526634216,-161.468505859375,8.1329345703125,17.303466796875
10.4099999,-10.690110206604004,-0.6224924325942993,-0.9576807022094727,-0.9918212890625,-8.544921875,-6.6070556640625
10.4299999,-10.182539939880371,-0.4429273009300232,-0.6488286852836609,15.960693359375,-9.796142578125,-4.8675537109375
10.4499999,-9.816226959228516,-0.48602294921875,-0.4165911078453064,12.725830078125,-12.20703125,1.800537109375
10.469999900000001,-9.732429504394531,-0.6105214357376099,-0.20111294090747833,13.7939453125,-10.6658935546875,7.38525390625
10.4899999,-9.806650161743164,-0.5841852426528931,0.043095629662275314,3.997802734375,-6.9580078125,13.5498046875
10.5099999,-10.036493301391602,-0.5291185975074768,0.22266076505184174,-2.3193359375,-1.7547607421875,11.9781494140625
10.5299999,-10.14902114868164,-0.3926490843296051,0.37828385829925537,0.0457763671875,3.3416748046875,9.1552734375
10.549999900000001,-10.11789608001709,-0.24660277366638184,0.43335050344467163,0.5035400390625,6.2103271484375,12.0391845703125
10.569999900000001,-10.02691650390625,-0.10534487664699554,0.27054479718208313,-3.1890869140625,8.2550048828125,13.18359375
10.5899999,-9.926360130310059,0.08379705995321274,-0.031124621629714966,-3.997802734375,1.3427734375,8.72802734375
10.6099999,-9.923966407775879,0.3208230137825012,-0.3998316824436188,-0.4730224609375,-8.3770751953125,2.44140625
10.629999900000001,-10.002974510192871,0.5410895943641663,-0.7182605266571045,4.2724609375,-12.87841796875,-2.6702880859375
10.649999900000001,-10.019734382629395,0.6057330369949341,-0.8020575642585754,15.6097412109375,-17.578125,-9.70458984375
10.6699999,-10.017339706420898,0.5482721924781799,-0.7230489253997803,49.74365234375,-19.5465087890625,-14.2974853515625
10.6899999,-9.99100399017334,0.3208230137825012,-0.4357447028160095,50.018310546875,-24.3377685546875,-14.3280029296875
10.709999900000001,-9.967061996459961,0.09816227108240128,-0.11013327538967133,8.2244873046875,-15.380859375,-5.5694580078125
10.729999900000001,-9.964667320251465,-0.13168109953403473,0.2322375625371933,2.2735595703125,-11.0626220703125,-4.302978515625
10.7499999,-9.964667320251465,-0.31124621629714966,0.4668693244457245,4.364013671875,-9.0179443359375,-4.364013671875
10.7699999,-9.923966407775879,-0.47644615173339844,0.5841852426528931,5.55419921875,-12.603759765625,-0.762939453125
10.7899999,-9.883264541625977,-0.40701428055763245,0.6584054827690125,1.251220703125,-11.138916015625,-0.8087158203125
10.809999900000001,-9.916783332824707,-0.24660277366638184,0.7134721279144287,-7.7056884765625,6.40869140625,1.4190673828125
10.8299999,-9.837775230407715,-0.11013327538967133,0.7182605266571045,-10.223388671875,20.7672119140625,2.7618408203125
10.8499999,-9.916783332824707,-0.026336219161748886,0.5530605912208557,-4.3487548828125,33.5235595703125,5.859375
10.8699999,-9.909601211547852,-0.033518824726343155,0.20350714027881622,-2.2125244140625,39.5050048828125,7.0037841796875
10.889999900000001,-10.029311180114746,-0.06703764945268631,-0.2513911724090576,-5.9814453125,25.543212890625,9.4757080078125
10.9099999,-10.079588890075684,-0.10773907601833344,-0.5889736413955688,-5.67626953125,8.6822509765625,10.9405517578125
10.9299999,-10.1753568649292,-0.24420857429504395,-0.8978256583213806,-1.2359619140625,-0.30517578125,9.002685546875
10.9499999,-10.319009780883789,-0.4812345504760742,-1.2258312702178955,23.37646484375,2.166748046875,8.30078125
10.969999900000001,-10.469843864440918,-0.6488286852836609,-1.414973258972168,68.0999755859375,-6.2408447265625,5.6610107421875
10.9899999,-10.682928085327148,-0.7350199222564697,-1.53707754611969,102.2491455078125,-23.712158203125,1.007080078125
11.0099999,-10.766724586486816,-0.6344634294509888,-1.436521053314209,121.063232421875,-36.9873046875,-3.84521484375
11.0299999,-10.644620895385742,-0.3447650372982025,-0.7110779285430908,127.6092529296875,-40.6036376953125,-2.2430419921875
11.049999900000001,-10.326191902160645,0.014365210197865963,0.09576806426048279,104.1412353515625,-18.7225341796875,5.4779052734375
11.069999900000001,-9.967061996459961,0.16759411990642548,0.8044517636299133,87.860107421875,-0.244140625,7.4005126953125
11.0899999,-9.785101890563965,0.5626373887062073,1.534683346748352,88.7908935546875,-4.5013427734375,4.4708251953125
11.1099999,-9.679757118225098,0.7445967197418213,1.7908629179000854,60.699462890625,-9.3231201171875,0.06103515625
11.129999900000001,-9.725247383117676,0.9385270476341248,2.118868589401245,21.0723876953125,8.4991455078125,-4.5623779296875
11.149999900000001,-9.660603523254395,1.0678139925003052,2.2649147510528564,-7.8887939453125,29.0069580078125,-4.058837890625
11.1699999,-9.593565940856934,0.9193734526634216,2.0398597717285156,-18.0816650390625,33.99658203125,1.7242431640625
11.1899999,-9.59835433959961,0.6177040338516235,1.290474772453308,-6.683349609375,26.4129638671875,4.1046142578125
11.209999900000001,-9.627084732055664,0.13407529890537262,0.22505496442317963,17.2119140625,6.28662109375,2.62451171875
11.229999900000001,-9.730035781860352,-0.2825157940387726,-0.7541735172271729,37.567138671875,-9.0179443359375,4.4708251953125
11.2499999,-9.888052940368652,-0.5626373887062073,-1.256955862045288,45.379638671875,-10.9710693359375,9.33837890625
11.2699999,-10.019734382629395,-0.47165772318840027,-1.1683704853057861,43.4722900390625,-5.6610107421875,8.6517333984375
11.2899999,-10.096348762512207,-0.10773907601833344,-0.629675030708313,33.26416015625,-2.716064453125,1.6021728515625
11.309999900000001,-10.165780067443848,0.2561795711517334,-0.011971008032560349,18.9208984375,5.4931640625,-3.2196044921875
11.3299999,-10.02452278137207,0.4620809257030487,0.4572925269603729,19.500732421875,8.9874267578125,-3.0364990234375
11.3499999,-9.892841339111328,0.395043283700943,0.5985504388809204,28.167724609375,5.06591796875,3.96728515625
11.3699999,-10.38844108581543,0.44532153010368347,0.4908113479614258,36.5447998046875,5.859375,5.2032470703125
11.389999900000001,-10.65898609161377,0.5650315880775452,0.19153612852096558,34.8358154296875,-4.974365234375,-10.7269287109375
11.4099999,-11.84650993347168,1.0438719987869263,-0.11971008777618408,29.022216796875,-5.5999755859375,-15.3961181640625
11.4299999,-12.780248641967773,1.525106430053711,-0.3926490843296051,25.3143310546875,1.28173828125,-23.5443115234375
11.4499999,-12.617443084716797,1.680729627609253,-0.5099649429321289,22.5677490234375,-8.23974609375,-30.8990478515625
11.469999900000001,-12.67011547088623,1.5155296325683594,-0.5003881454467773,23.040771484375,-7.87353515625,-11.6424560546875
11.4899999,-11.104307174682617,0.9002198576927185,-0.33279404044151306,27.2064208984375,-7.3699951171875,-26.5045166015625
11.5099999,-10.376470565795898,0.20350714027881622,-0.08379705995321274,26.5045166015625,-7.14111328125,-16.143798828125
11.5299999,-9.68694019317627,-0.4596867263317108,0.1388636976480484,23.6663818359375,3.021240234375,-18.096923828125
11.549999900000001,-9.684545516967773,-0.8331822156906128,0.28969839215278625,19.5465087890625,-1.922607421875,-32.16552734375
11.569999900000001,-9.897629737854004,-1.01753568649292,0.3495534360408783,12.8021240234375,-5.7220458984375,-33.6456298828125
11.5899999,-10.019734382629395,-1.0582371950149536,0.3423708379268646,10.4827880859375,6.7901611328125,-29.4342041015625
11.6099999,-10.017339706420898,-0.9792284965515137,0.33758243918418884,10.894775390625,16.1895751953125,-29.1595458984375
11.629999900000001,-9.895236015319824,-0.8738836050033569,0.49799394607543945,5.1422119140625,11.5966796875,-39.9932861328125
11.649999900000001,-9.708487510681152,-0.8307880163192749,0.6224924325942993,-16.6778564453125,1.800537109375,-59.3414306640625
11.6699999,-9.327810287475586,-0.9289502501487732,0.8092401623725891,-30.3192138671875,-7.9345703125,-77.728271484375
11.6899999,-8.757989883422852,-1.3431471586227417,0.8595184087753296,-26.7486572265625,-5.9356689453125,-84.1827392578125
11.709999900000001,-8.135497093200684,-1.9704279899597168,0.7350199222564697,-14.8773193359375,6.1492919921875,-79.071044921875
11.729999900000001,-7.60637903213501,-2.715024709701538,0.5195417404174805,-0.213623046875,8.148193359375,-73.6846923828125
11.7499999,-7.386112213134766,-3.3494882583618164,0.30885201692581177,10.589599609375,-3.143310546875,-77.880859375
11.7699999,-7.508216381072998,-3.7684733867645264,0.15562310814857483,16.2353515625,-13.1683349609375,-93.32275390625
11.7899999,-7.862558364868164,-3.9887399673461914,0.1364694982767105,23.13232421875,-16.7236328125,-113.2049560546875
11.809999900000001,-8.267178535461426,-4.144362926483154,0.22266076505184174,30.1971435546875,-15.3350830078125,-129.0283203125
11.8299999,-8.53293514251709,-4.367023944854736,0.3998316824436188,34.9578857421875,-13.12255859375,-139.0380859375
11.8499999,-8.683769226074219,-4.6471452713012695,0.5985504388809204,33.233642578125,-6.256103515625,-146.331787109375
11.8699999,-8.731653213500977,-5.073313236236572,0.7876923680305481,29.144287109375,2.1514892578125,-150.4058837890625
11.889999900000001,-8.71489429473877,-5.394136428833008,0.9217676520347595,16.5863037109375,6.16455078125,-149.6734619140625
11.9099999,-8.638279914855957,-5.686229228973389,1.0007762908935547,23.37646484375,-4.6539306640625,-145.5078125
11.9299999,-8.463502883911133,-5.858611583709717,0.9983820915222168,26.1993408203125,-10.8489990234375,-145.5535888671875
11.9499999,-8.101978302001953,-6.00226354598999,0.9864110946655273,25.726318359375,-15.4876708984375,-149.749755859375
11.969999900000001,-7.618350028991699,-6.141127586364746,0.993593692779541,23.1170654296875,-14.2059326171875,-155.2276611328125
11.9899999,-7.089231014251709,-6.258443355560303,0.9840168952941895,11.993408203125,4.0740966796875,-163.9404296875
12.0099999,-6.5696892738342285,-6.421248912811279,1.0031704902648926,13.5040283203125,20.0347900390625,-173.1109619140625
12.0299999,-6.117185115814209,-6.493074893951416,1.0127472877502441,18.9971923828125,29.3731689453125,-180.5267333984375
12.049999900000001,-5.813121795654297,-6.560112476348877,1.0271124839782715,19.3328857421875,39.4744873046875,-188.8580322265625
12.069999900000001,-5.542576789855957,-6.665457725524902,1.1061211824417114,17.51708984375,62.5,-196.3348388671875
12.0899999,-5.30076265335083,-6.885724067687988,1.2018892765045166,18.9361572265625,90.240478515625,-195.1751708984375
12.1099999,-5.082890033721924,-7.168240070343018,1.1420341730117798,16.7083740234375,111.8927001953125,-183.89892578125
12.129999900000001,-4.73573112487793,-7.548917770385742,0.9792284965515137,15.0299072265625,97.0611572265625,-170.8984375
12.149999900000001,-4.338293552398682,-7.90086555480957,0.7182605266571045,11.23046875,63.90380859375,-158.8592529296875
12.1699999,-3.909731388092041,-8.219294548034668,0.38307225704193115,3.265380859375,44.342041015625,-142.5323486328125
12.1899999,-3.421314239501953,-8.506598472595215,0.1412578970193863,-5.06591796875,28.656005859375,-122.467041015625
12.209999900000001,-2.964021682739258,-8.813055992126465,-0.05027823522686958,-6.439208984375,11.0626220703125,-102.783203125
12.229999900000001,-2.58813214302063,-9.062053680419922,-0.19871874153614044,-2.1514892578125,4.3487548828125,-84.1217041015625
12.2499999,-2.298433542251587,-9.354146003723145,-0.36152446269989014,3.387451171875,7.598876953125,-66.2994384765625
12.2699999,-2.0829553604125977,-9.787496566772461,-0.5195417404174805,-11.474609375,16.9219970703125,-53.192138671875
12.289999900000002,-2.013523578643799,-10.065223693847656,-0.7206547260284424,-1.617431640625,12.9547119140625,-35.9039306640625
12.309999900000001,-2.0685901641845703,-10.536881446838379,-0.9720458984375,5.1422119140625,7.32421875,-21.087646484375
12.3299999,-2.2026655673980713,-10.781089782714844,-1.1971008777618408,13.3819580078125,-2.0599365234375,-7.2174072265625
12.3499999,-2.3798365592956543,-10.936713218688965,-1.3670891523361206,19.53125,-11.7645263671875,1.9989013671875
12.3699999,-2.5067291259765625,-10.958261489868164,-1.3958195447921753,31.524658203125,-17.7154541015625,4.2266845703125
12.389999900000001,-2.896984100341797,-11.961431503295898,-1.015141487121582,44.219970703125,-7.6141357421875,0.3814697265625
12.4099999,-2.8203697204589844,-11.496956825256348,-0.6823474764823914,4.547119140625,42.694091796875,-43.243408203125
12.4299999,-2.8802247047424316,-11.674127578735352,-0.13407529890537262,12.481689453125,26.702880859375,-52.9937744140625
12.4499999,-2.5977089405059814,-11.08754825592041,0.5770025849342346,50.048828125,-8.819580078125,-40.924072265625
12.469999900000001,-2.051830768585205,-9.981427192687988,1.1563993692398071,5.2947998046875,28.7017822265625,-40.435791015625
12.4899999,-1.5466543436050415,-9.600749015808105,1.965639591217041,-18.8751220703125,37.2161865234375,-39.9017333984375
12.5099999,-1.1540051698684692,-9.14585018157959,2.499546527862549,-27.0538330078125,22.15576171875,-36.56005859375
12.5299999,-0.9481038451194763,-9.533711433410645,2.2673089504241943,-35.491943359375,12.1917724609375,-35.2020263671875
12.549999900000001,-0.5770025849342346,-9.785101890563965,1.5634137392044067,-18.5394287109375,-3.3416748046875,-48.7823486328125
12.569999900000001,-0.24420857429504395,-10.453084945678711,0.2561795711517334,5.9967041015625,-19.0277099609375,-28.594970703125
12.5899999,0.5315127968788147,-10.848128318786621,-0.6775590777397156,29.72412109375,-32.1502685546875,10.009765625
12.6099999,0.8355764150619507,-10.627861022949219,-1.0103530883789062,22.216796875,-34.24072265625,30.8990478515625
12.629999900000001,1.1492167711257935,-10.505757331848145,-0.8020575642585754,-13.916015625,-32.7911376953125,10.009765625
12.649999900000001,1.091755986213684,-10.132261276245117,-0.19632454216480255,-4.5013427734375,-30.5328369140625,-14.9078369140625
12.6699999,0.9074024558067322,-9.952696800231934,0.43095630407333374,6.2255859375,-8.6822509765625,-0.9765625
12.6899999,0.7781155705451965,-9.84256362915039,0.7637503147125244,-2.044677734375,3.021240234375,7.9193115234375
12.709999900000001,0.5147533416748047,-9.823410034179688,1.0342950820922852,-0.732421875,0.9918212890625,-0.3662109375
12.729999900000001,0.22505496442317963,-9.761159896850586,1.0845733880996704,3.11279296875,1.8157958984375,-4.3487548828125
12.7499999,0.009576806798577309,-9.856928825378418,0.9744400978088379,1.617431640625,1.3275146484375,-1.52587890625
12.7699999,-0.11971008777618408,-9.897629737854004,0.8858546018600464,1.2054443359375,0.3204345703125,1.678466796875
12.789999900000002,-0.09816227108240128,-9.916783332824707,0.8379706144332886,0.640869140625,0.3204345703125,-1.1749267578125
12.809999900000001,-0.05027823522686958,-9.967061996459961,0.751779317855835,-4.302978515625,-0.9765625,-2.9144287109375
12.8299999,-0.0694318488240242,-9.947908401489258,0.7422025203704834,-1.312255859375,0.762939453125,2.227783203125
12.8499999,-0.08140286058187485,-9.93593692779541,0.7206547260284424,3.1890869140625,1.678466796875,1.708984375
12.8699999,-0.009576806798577309,-9.93354320526123,0.6943184733390808,0.030517578125,-0.244140625,-5.31005859375
12.889999900000001,-0.004788403399288654,-9.923966407775879,0.7182605266571045,-1.6021728515625,-0.0457763671875,-2.1514892578125
12.9099999,0.014365210197865963,-9.926360130310059,0.7637503147125244,0.9002685546875,1.739501953125,4.39453125
12.9299999,0.05267243832349777,-9.938331604003906,0.751779317855835,0.5645751953125,0.8087158203125,-0.1068115234375
12.9499999,0.05746084079146385,-9.93354320526123,0.7565677165985107,-0.48828125,-0.152587890625,-3.3416748046875
12.969999900000001,-0.0071826050989329815,-9.93593692779541,0.7589619159698486,-0.457763671875,0.5645751953125,1.2054443359375
12.9899999,-0.014365210197865963,-9.928754806518555,0.7541735172271729,0,0.946044921875,1.4801025390625
13.0099999,0.011971008032560349,-9.931148529052734,0.7469909191131592,0.91552734375,0.8087158203125,-2.1514892578125
13.0299999,0.0071826050989329815,-9.921571731567383,0.7493851184844971,0.701904296875,0.701904296875,-1.251220703125
13.049999900000001,0.0071826050989329815,-9.921571731567383,0.7398083209991455,-0.9918212890625,0.5035400390625,1.4495849609375
13.069999900000001,0.016759412363171577,-9.923966407775879,0.7350199222564697,-0.8697509765625,0.1678466796875,-0.30517578125
13.0899999,-0.002394201699644327,-9.916783332824707,0.7541735172271729,0.762939453125,0.579833984375,-1.6326904296875
13.1099999,-0.021547814831137657,-9.919178009033203,0.7422025203704834,-0.1373291015625,0.6103515625,-0.42724609375
13.129999900000001,-0.019153613597154617,-9.923966407775879,0.7374141216278076,-0.9765625,0.4119873046875,0.1983642578125
13.149999900000001,-0.002394201699644327,-9.916783332824707,0.7565677165985107,0.9918212890625,0.9307861328125,-0.6561279296875
13.1699999,0.009576806798577309,-9.923966407775879,0.7493851184844971,0.4119873046875,0.6103515625,-0.732421875
13.1899999,-0.002394201699644327,-9.923966407775879,0.7445967197418213,-1.03759765625,0.396728515625,0.30517578125
13.209999900000001,-0.016759412363171577,-9.916783332824707,0.7589619159698486,0,0.701904296875,0.2593994140625
13.229999900000001,-0.016759412363171577,-9.921571731567383,0.751779317855835,0.3204345703125,0.48828125,-1.1444091796875
13.2499999,-0.011971008032560349,-9.923966407775879,0.7469909191131592,0.091552734375,0.5340576171875,-0.8544921875
13.2699999,0.002394201699644327,-9.928754806518555,0.751779317855835,0.30517578125,0.8392333984375,0.3662109375
13.289999900000002,0.028730420395731926,-9.93593692779541,0.7469909191131592,-0.1983642578125,0.5645751953125,-0.18310546875
13.309999900000001,0.028730420395731926,-9.93354320526123,0.7445967197418213,-0.213623046875,0.4119873046875,-0.5035400390625
13.3299999,0.004788403399288654,-9.928754806518555,0.7469909191131592,-0.0762939453125,0.5340576171875,-0.0762939453125
13.3499999,-0.009576806798577309,-9.926360130310059,0.7422025203704834,-0.5035400390625,0.396728515625,-0.732421875
13.3699999,-0.009576806798577309,-9.923966407775879,0.7422025203704834,-0.0762939453125,0.6103515625,-0.8087158203125
13.389999900000001,-0.009576806798577309,-9.928754806518555,0.7469909191131592,0.5950927734375,0.8544921875,-0.1068115234375
13.4099999,0.014365210197865963,-9.928754806518555,0.7398083209991455,0.0457763671875,0.5950927734375,-0.3204345703125
13.4299999,0.021547814831137657,-9.931148529052734,0.7422025203704834,-0.3204345703125,0.48828125,-0.18310546875
13.4499999,0.0071826050989329815,-9.921571731567383,0.7445967197418213,-0.0457763671875,0.640869140625,0.2593994140625
13.469999900000001,-0.002394201699644327,-9.923966407775879,0.730231523513794,-0.1220703125,0.5950927734375,-0.396728515625
13.4899999,-0.0071826050989329815,-9.923966407775879,0.7350199222564697,0.2288818359375,0.5950927734375,-0.9002685546875
13.5099999,-0.004788403399288654,-9.919178009033203,0.751779317855835,0.5340576171875,0.8544921875,-0.3204345703125
13.5299999,0.009576806798577309,-9.926360130310059,0.7469909191131592,-0.67138671875,0.5340576171875,-0.030517578125
13.549999900000001,0.011971008032560349,-9.926360130310059,0.7445967197418213,-0.48828125,0.42724609375,-0.335693359375
13.569999900000001,-0.004788403399288654,-9.919178009033203,0.7565677165985107,0.9918212890625,0.6866455078125,-0.3814697265625
13.5899999,-0.009576806798577309,-9.923966407775879,0.751779317855835,-0.1373291015625,0.42724609375,-0.8392333984375
13.6099999,-0.002394201699644327,-9.926360130310059,0.751779317855835,-1.0528564453125,0.4119873046875,-0.579833984375
13.629999900000001,0.002394201699644327,-9.928754806518555,0.7661445140838623,0.5950927734375,0.946044921875,0.213623046875
13.649999900000001,0.019153613597154617,-9.928754806518555,0.7661445140838623,0.7781982421875,0.8087158203125,-0.3509521484375
13.6699999,0.019153613597154617,-9.931148529052734,0.7493851184844971,-0.79345703125,0.3814697265625,-0.5645751953125
13.6899999,-0.002394201699644327,-9.923966407775879,0.751779317855835,-0.5035400390625,0.48828125,0.2593994140625
13.709999900000001,-0.016759412363171577,-9.921571731567383,0.7541735172271729,0.67138671875,0.8087158203125,-0.1068115234375
13.729999900000001,-0.009576806798577309,-9.923966407775879,0.7445967197418213,0.1068115234375,0.5340576171875,-1.068115234375
13.7499999,-0.004788403399288654,-9.923966407775879,0.7445967197418213,-0.244140625,0.54931640625,-0.2288818359375
13.7699999,0.002394201699644327,-9.923966407775879,0.751779317855835,0.1068115234375,0.7171630859375,0.3204345703125
13.789999900000002,0.019153613597154617,-9.923966407775879,0.7374141216278076,-0.18310546875,0.5340576171875,-0.67138671875
13.809999900000001,0.0071826050989329815,-9.923966407775879,0.7374141216278076,-0.0762939453125,0.54931640625,-0.5035400390625
13.8299999,-0.0071826050989329815,-9.919178009033203,0.7422025203704834,0.0152587890625,0.5950927734375,0.0457763671875
13.8499999,-0.002394201699644327,-9.928754806518555,0.7398083209991455,-0.335693359375,0.5035400390625,-0.579833984375
13.8699999,-0.002394201699644327,-9.926360130310059,0.7493851184844971,0.152587890625,0.732421875,-0.54931640625
13.889999900000001,0,-9.928754806518555,0.751779317855835,0.457763671875,0.8544921875,0.091552734375
13.9099999,0.0071826050989329815,-9.931148529052734,0.7469909191131592,-0.3662109375,0.518798828125,-0.30517578125
13.9299999,0.002394201699644327,-9.928754806518555,0.7541735172271729,-0.244140625,0.5645751953125,-0.3662109375
13.9499999,-0.009576806798577309,-9.928754806518555,0.7565677165985107,0.091552734375,0.6866455078125,-0.091552734375
13.969999900000001,-0.009576806798577309,-9.931148529052734,0.7541735172271729,-0.1068115234375,0.5950927734375,-0.42724609375
13.9899999,-0.0071826050989329815,-9.928754806518555,0.7541735172271729,0.0457763671875,0.67138671875,-0.54931640625
14.0099999,0,-9.928754806518555,0.751779317855835,0.0762939453125,0.7781982421875,-0.2593994140625
14.0299999,0.0071826050989329815,-9.926360130310059,0.7422025203704834,-0.091552734375,0.579833984375,-0.2288818359375
14.049999900000001,0.004788403399288654,-9.926360130310059,0.7445967197418213,-0.1068115234375,0.5340576171875,-0.3509521484375
14.069999900000001,-0.004788403399288654,-9.923966407775879,0.7469909191131592,-0.0152587890625,0.5340576171875,-0.3204345703125
14.0899999,-0.0071826050989329815,-9.923966407775879,0.7493851184844971,-0.2288818359375,0.54931640625,-0.4119873046875
14.1099999,-0.004788403399288654,-9.923966407775879,0.7493851184844971,-0.091552734375,0.640869140625,-0.30517578125
14.129999900000001,0.002394201699644327,-9.921571731567383,0.7469909191131592,0.152587890625,0.701904296875,-0.335693359375
14.149999900000001,0.004788403399288654,-9.923966407775879,0.7493851184844971,0.1678466796875,0.6103515625,-0.2288818359375
14.1699999,-0.002394201699644327,-9.921571731567383,0.7565677165985107,-0.213623046875,0.5645751953125,-0.0762939453125
14.1899999,-0.0071826050989329815,-9.921571731567383,0.7589619159698486,-0.579833984375,0.518798828125,-0.3204345703125
14.209999900000001,-0.011971008032560349,-9.921571731567383,0.7589619159698486,0.091552734375,0.5950927734375,-0.3814697265625
14.229999900000001,-0.011971008032560349,-9.923966407775879,0.7637503147125244,0.5035400390625,0.7476806640625,-0.3662109375
14.2499999,0.002394201699644327,-9.923966407775879,0.7565677165985107,-0.3509521484375,0.5645751953125,-0.4730224609375
14.2699999,0.0071826050989329815,-9.928754806518555,0.7565677165985107,-0.4119873046875,0.5950927734375,-0.0152587890625
14.289999900000002,0.002394201699644327,-9.928754806518555,0.7637503147125244,0.274658203125,0.67138671875,0.030517578125
14.309999900000001,0.002394201699644327,-9.928754806518555,0.7613561153411865,-0.0457763671875,0.518798828125,-0.6561279296875
14.3299999,-0.0071826050989329815,-9.928754806518555,0.7637503147125244,-0.3814697265625,0.42724609375,-0.42724609375
14.3499999,-0.004788403399288654,-9.923966407775879,0.7637503147125244,-0.0152587890625,0.6561279296875,-0.1068115234375
14.3699999,0,-9.923966407775879,0.7589619159698486,0.30517578125,0.7781982421875,-0.3204345703125
14.389999900000001,0.002394201699644327,-9.921571731567383,0.7589619159698486,0.152587890625,0.6256103515625,-0.396728515625
14.4099999,-0.002394201699644327,-9.919178009033203,0.7565677165985107,-0.42724609375,0.457763671875,-0.1220703125
14.4299999,-0.0071826050989329815,-9.923966407775879,0.7541735172271729,-0.396728515625,0.5340576171875,-0.1983642578125
14.4499999,-0.0071826050989329815,-9.926360130310059,0.751779317855835,0.2288818359375,0.6866455078125,-0.54931640625
14.469999900000001,-0.004788403399288654,-9.926360130310059,0.751779317855835,0.3204345703125,0.7476806640625,-0.48828125
