# Time (seconds),Accel_X,Accel_Y,Accel_Z,Gyro_X,Gyro_Y,Gyro_Z
0.0099999,1.4915876388549805,-9.75397777557373,1.0103530883789062,-0.30517578125,0.152587890625,0.152587890625
0.029999900000000003,1.4867992401123047,-9.758766174316406,1.015141487121582,0.5645751953125,0.457763671875,-0.06103515625
0.0499999,1.4963760375976562,-9.75637149810791,1.0199298858642578,1.373291015625,0.701904296875,0.7171630859375
0.0699999,1.5394717454910278,-9.744400978088379,1.0462661981582642,2.410888671875,3.9215087890625,1.068115234375
0.08999990000000001,1.580173134803772,-9.725247383117676,1.0773907899856567,0.8087158203125,11.4593505859375,-0.1373291015625
0.10999990000000001,1.6041151285171509,-9.703699111938477,1.1252747774124146,-0.30517578125,17.4560546875,-1.7852783203125
0.1299999,1.601720929145813,-9.706093788146973,1.1324573755264282,1.1749267578125,19.561767578125,-1.953125
0.14999990000000002,1.580173134803772,-9.737217903137207,1.1109095811843872,3.1890869140625,17.2576904296875,-0.3814697265625
0.1699999,1.558625340461731,-9.787496566772461,1.0821791887283325,5.4779052734375,12.5579833984375,2.3956298828125
0.1899999,1.5490485429763794,-9.825803756713867,1.070208191871643,6.9427490234375,9.6588134765625,5.615234375
0.20999990000000002,1.5418659448623657,-9.840168952941895,1.213860273361206,8.636474609375,7.14111328125,6.683349609375
0.2299999,1.6208745241165161,-9.928754806518555,1.192312479019165,11.90185546875,1.1444091796875,8.8958740234375
0.2499999,1.6950948238372803,-10.043676376342773,1.280897855758667,4.7149658203125,12.7716064453125,17.7001953125
0.2699999,1.8315643072128296,-10.453084945678711,0.9624691009521484,6.6070556640625,20.5535888671875,39.1693115234375
0.28999990000000003,1.680729627609253,-10.613495826721191,0.7661445140838623,12.420654296875,18.8751220703125,44.3267822265625
0.3099999,1.3096283674240112,-10.716446876525879,0.5937620401382446,19.622802734375,14.0838623046875,41.6107177734375
0.3299999,0.8140285611152649,-10.714052200317383,0.5171475410461426,27.1148681640625,7.1563720703125,34.454345703125
0.34999990000000003,0.2777273952960968,-10.697293281555176,0.5722141861915588,30.6854248046875,5.8135986328125,23.13232421875
0.3699999,-0.1388636976480484,-10.63743782043457,0.7852981686592102,27.618408203125,9.1094970703125,13.671875
0.3899999,-0.304063618183136,-10.54406452178955,1.1180921792984009,18.6614990234375,12.26806640625,10.0555419921875
0.40999990000000003,-0.28730419278144836,-10.503362655639648,1.4676456451416016,6.6375732421875,14.923095703125,10.1165771484375
0.4299999,-0.1173158809542656,-10.491392135620117,1.7381904125213623,-5.035400390625,16.1285400390625,14.892578125
0.4499999,0.06703764945268631,-10.51054573059082,1.845929503440857,-13.85498046875,14.4195556640625,23.468017578125
0.4699999,0.16998831927776337,-10.553641319274902,1.778891921043396,-20.5230712890625,8.697509765625,33.2183837890625
0.4899999,0.1843535304069519,-10.553641319274902,1.5969325304031372,-25.6500244140625,4.1961669921875,43.9300537109375
0.5099999,0.12449848651885986,-10.500968933105469,1.3694833517074585,-29.9224853515625,8.026123046875,53.253173828125
0.5299999,-0.002394201699644327,-10.402806282043457,1.1444283723831177,-34.0118408203125,15.838623046875,60.2264404296875
0.5499999,-0.181959331035614,-10.249577522277832,0.9193734526634216,-33.4930419921875,21.6064453125,65.6585693359375
0.5699999,-0.4141969084739685,-10.14902114868164,0.6751648783683777,-25.93994140625,20.8892822265625,70.709228515625
0.5899998999999999,-0.7110779285430908,-10.091560363769531,0.4692635238170624,-17.8680419921875,14.3585205078125,78.216552734375
0.6099998999999999,-0.9241618514060974,-10.050858497619629,0.3926490843296051,-11.3067626953125,6.988525390625,88.3026123046875
0.6299999,-1.161187767982483,-10.010157585144043,0.43095630407333374,18.524169921875,26.6876220703125,89.141845703125
0.6499999,-1.41257905960083,-9.947908401489258,0.5386953949928284,32.0892333984375,44.2962646484375,92.1630859375
0.6699999,-1.723825216293335,-9.804255485534668,0.6584054827690125,13.7481689453125,31.8145751953125,95.1080322265625
0.6899999,-2.0374655723571777,-9.615114212036133,0.7206547260284424,22.0489501953125,27.34375,95.8251953125
0.7099999,-2.300827741622925,-9.411606788635254,0.8236053586006165,21.42333984375,29.632568359375,96.3897705078125
0.7299998999999999,-2.5043349266052246,-9.193734169006348,0.9576807022094727,13.092041015625,37.4298095703125,97.6104736328125
0.7499998999999999,-2.6647465229034424,-8.96149730682373,1.113303780555725,11.5203857421875,47.66845703125,96.0235595703125
0.7699999,-2.786850690841675,-8.736441612243652,1.2641384601593018,14.5111083984375,56.671142578125,88.287353515625
0.7899999,-2.9305028915405273,-8.588001251220703,1.3694833517074585,15.2435302734375,64.02587890625,81.451416015625
0.8099999,-3.1004912853240967,-8.497021675109863,1.3766659498214722,19.500732421875,68.145751953125,90.606689453125
0.8299999,-3.2992098331451416,-8.449137687683105,1.3527239561080933,28.472900390625,59.783935546875,111.0382080078125
0.8499998999999999,-3.5170822143554688,-8.334216117858887,1.3192051649093628,34.5001220703125,48.3856201171875,120.6207275390625
0.8699998999999999,-3.8570590019226074,-8.166622161865234,1.3072341680526733,38.3453369140625,47.5616455078125,127.6092529296875
0.8899999,-4.268861770629883,-7.781155586242676,1.335964560508728,41.93115234375,48.797607421875,137.5732421875
0.9099999,-4.716577529907227,-7.299921035766602,1.3407529592514038,38.604736328125,45.501708984375,137.603759765625
0.9299999,-5.22175407409668,-6.7923502922058105,1.3646949529647827,25.0091552734375,36.2701416015625,123.5198974609375
0.9499999,-5.746084213256836,-6.299144744873047,1.3503297567367554,21.392822265625,31.3568115234375,114.4256591796875
0.9699998999999999,-6.244078159332275,-5.889736175537109,1.357512354850769,18.61572265625,31.768798828125,110.3363037109375
0.9899998999999999,-6.789956092834473,-5.609614372253418,1.3862427473068237,19.22607421875,29.9072265625,92.4072265625
1.0099999,-7.275979042053223,-5.463568210601807,1.4269442558288574,20.81298828125,25.6195068359375,65.216064453125
1.0299999,-7.654263019561768,-5.439626216888428,1.4700398445129395,18.2647705078125,22.39990234375,50.8575439453125
1.0499999,-7.927201747894287,-5.542576789855957,1.5179238319396973,15.045166015625,17.2119140625,51.788330078125
1.0699999,-8.08043098449707,-5.669469833374023,1.5753847360610962,14.923095703125,9.7503662109375,54.3365478515625
1.0899999,-8.142680168151855,-5.762843608856201,1.6184803247451782,14.6484375,5.706787109375,48.9654541015625
1.1099999,-8.142680168151855,-5.758055210113525,1.6759412288665771,11.2457275390625,5.279541015625,48.065185546875
1.1299999,-8.04930591583252,-5.671864032745361,1.742978811264038,5.4168701171875,3.7689208984375,59.783935546875
1.1499999,-7.948749542236328,-5.535394191741943,1.8291701078414917,-0.8392333984375,-2.288818359375,78.1097412109375
1.1699998999999999,-7.908048152923584,-5.30076265335083,1.900996208190918,-7.9345703125,-7.9803466796875,94.1314697265625
1.1899998999999999,-7.893682956695557,-4.965574264526367,1.9584569931030273,-14.9078369140625,-6.6375732421875,102.264404296875
1.2099999,-7.9415669441223145,-4.565742492675781,1.9704279899597168,-21.7132568359375,-0.823974609375,106.7352294921875
1.2299999,-8.063671112060547,-4.132391929626465,1.9488801956176758,-27.64892578125,4.2266845703125,109.92431640625
1.2499999,-8.312667846679688,-3.7277719974517822,1.86508309841156,-32.012939453125,8.514404296875,104.1107177734375
1.2699999,-8.65743350982666,-3.40216064453125,1.7597382068634033,-34.6832275390625,12.176513671875,90.39306640625
1.2899999,-9.124302864074707,-3.1914708614349365,1.6400281190872192,-37.689208984375,15.56396484375,79.5440673828125
1.3099999,-9.660603523254395,-3.028665065765381,1.45806884765625,-39.6575927734375,16.754150390625,71.990966796875
1.3299999,-10.134655952453613,-2.978386878967285,1.2330138683319092,-36.92626953125,11.1541748046875,55.877685546875
1.3499999,-10.457873344421387,-2.9903578758239746,0.9624691009521484,-31.341552734375,2.5634765625,37.4755859375
1.3699999,-10.532093048095703,-3.050212860107422,0.6847416758537292,-25.8331298828125,-1.373291015625,30.517578125
1.3899999,-10.359710693359375,-3.1651346683502197,0.4836287498474121,-20.751953125,-4.8675537109375,30.609130859375
1.4099999,-10.050858497619629,-3.265691041946411,0.38067805767059326,-15.899658203125,-7.75146484375,30.9600830078125
1.4299998999999999,-9.737217903137207,-3.3255462646484375,0.3447650372982025,-11.383056640625,-8.0108642578125,30.1513671875
1.4499999,-9.488221168518066,-3.2848446369171143,0.3519476354122162,-6.2255859375,-8.6669921875,33.0963134765625
1.4699999,-9.301473617553711,-3.157952070236206,0.38067805767059326,-2.0294189453125,-11.6119384765625,38.1011962890625
1.4899999,-9.174580574035645,-2.978386878967285,0.44532153010368347,-0.762939453125,-13.275146484375,43.243408203125
1.5099999,-9.17697525024414,-2.7126305103302,0.5410895943641663,-2.62451171875,-10.986328125,49.5758056640625
1.5299999,-9.294290542602539,-2.389413356781006,0.6607996821403503,-6.4239501953125,-6.4239501953125,51.3458251953125
1.5499999,-9.531316757202148,-2.030282974243164,0.7805097699165344,-10.6201171875,-3.0517578125,45.0286865234375
1.5699999,-9.847352027893066,-1.6879122257232666,0.8762778043746948,-15.07568359375,-1.2359619140625,38.0859375
1.5899999,-10.158597946166992,-1.3886369466781616,0.9074024558067322,-19.3939208984375,3.448486328125,33.6456298828125
1.6099999,-10.398017883300781,-1.2042834758758545,0.8834604024887085,-21.270751953125,8.3160400390625,25.8941650390625
1.6299999,-10.508151054382324,-1.1348515748977661,0.7852981686592102,-21.2554931640625,9.5977783203125,18.585205078125
1.6499999,-10.460267066955566,-1.1755530834197998,0.6512228846549988,-20.69091796875,8.11767578125,20.782470703125
1.6699999,-10.278307914733887,-1.2521674633026123,0.507570743560791,-20.6146240234375,8.30078125,29.6173095703125
1.6899998999999999,-10.20648193359375,-1.3120225667953491,0.38307225704193115,-20.782470703125,10.8489990234375,34.5306396484375
1.7099999,-10.254365921020508,-1.3886369466781616,0.3208230137825012,-18.5699462890625,8.9874267578125,23.040771484375
1.7299999,-10.321403503417969,-1.3646949529647827,0.3280056416988373,-14.46533203125,-2.3345947265625,2.3956298828125
1.7499999,-10.551246643066406,-1.3958195447921753,0.3998316824436188,-12.2833251953125,-1.6326904296875,11.7645263671875
1.7699999,-10.417171478271484,-1.3455413579940796,0.5195417404174805,-10.8184814453125,3.204345703125,18.035888671875
1.7899999,-10.304644584655762,-1.2401964664459229,0.6512228846549988,-11.29150390625,6.4544677734375,21.4691162109375
1.8099999,-10.072406768798828,-1.1300631761550903,0.8020575642585754,-11.749267578125,5.4473876953125,20.01953125
1.8299999,-9.897629737854004,-0.9768342971801758,0.9265560507774353,-15.1214599609375,5.1116943359375,17.913818359375
1.8499999,-9.806650161743164,-0.8307880163192749,1.0103530883789062,-17.730712890625,8.2855224609375,19.9432373046875
1.8699999,-9.794678688049316,-0.727837324142456,1.0462661981582642,-15.7928466796875,11.3372802734375,21.1639404296875
1.8899999,-9.794678688049316,-0.5123591423034668,0.9792284965515137,-14.9078369140625,13.336181640625,21.05712890625
1.9099999,-9.835380554199219,-0.2561795711517334,0.8331822156906128,-14.923095703125,14.6484375,18.096923828125
1.9299998999999999,-9.8784761428833,0.028730420395731926,0.6368576288223267,-12.0391845703125,13.9923095703125,12.0391845703125
1.9499999,-9.921571731567383,0.2825157940387726,0.38307225704193115,-8.23974609375,12.939453125,7.8277587890625
1.9699999,-10.055646896362305,0.47644615173339844,0.0933738648891449,-7.1563720703125,11.9171142578125,5.9356689453125
1.9899999,-10.194510459899902,0.5793967843055725,-0.17956513166427612,-7.2021484375,9.0179443359375,3.5858154296875
2.0099999,-10.287884712219238,0.6368576288223267,-0.4357447028160095,-9.3841552734375,4.3182373046875,0.213623046875
2.0299999,-10.326191902160645,0.6416460275650024,-0.5746083855628967,-10.4827880859375,2.838134765625,-3.60107421875
2.0499999,-10.261548042297363,0.5722141861915588,-0.6057330369949341,-9.2620849609375,3.7384033203125,-6.622314453125
2.0699999,-10.163386344909668,0.3519476354122162,-0.48602294921875,-4.486083984375,2.410888671875,-5.523681640625
2.0899999,-10.02691650390625,0.047884032130241394,-0.2801215946674347,2.838134765625,-1.5411376953125,-4.3792724609375
2.1099999,-9.959878921508789,-0.363918662071228,-0.038307227194309235,10.528564453125,0.1220703125,-4.150390625
2.1299999,-9.861717224121094,-0.7254431247711182,0.1388636976480484,16.632080078125,0.4425048828125,1.0528564453125
2.1499999,-9.84495735168457,-0.9193734526634216,0.21547815203666687,20.01953125,-1.0528564453125,6.988525390625
2.1699999,-9.856928825378418,-0.9193734526634216,0.18914192914962769,21.7132568359375,-1.2054443359375,9.0484619140625
2.1899999,-9.883264541625977,-0.6919242739677429,0.10534487664699554,19.0582275390625,-0.7781982421875,11.199951171875
2.2099999,-9.9000244140625,-0.35434186458587646,-0.002394201699644327,12.9547119140625,2.3651123046875,15.13671875
2.2299999,-9.892841339111328,0.016759412363171577,-0.13407529890537262,7.080078125,5.0506591796875,13.458251953125
2.2499999,-9.897629737854004,0.31364041566848755,-0.19632454216480255,3.1890869140625,4.94384765625,7.5531005859375
2.2699999,-9.93354320526123,0.45250412821769714,-0.24181437492370605,-0.91552734375,9.9945068359375,4.119873046875
2.2899999,-9.983820915222168,0.4165911078453064,-0.2537853717803955,-4.69970703125,13.7176513671875,5.9356689453125
2.3099999,-10.010157585144043,0.19871874153614044,-0.3016694188117981,-2.3345947265625,9.307861328125,6.53076171875
2.3299999,-10.067618370056152,-0.1173158809542656,-0.3208230137825012,7.110595703125,1.556396484375,2.7923583984375
2.3499999,-10.074800491333008,-0.40222588181495667,-0.28969839215278625,14.404296875,0.18310546875,-0.7781982421875
2.3699999,-10.067618370056152,-0.569819986820221,-0.11252748221158981,14.5263671875,6.500244140625,-1.220703125
2.3899999,-10.000580787658691,-0.6224924325942993,0.16998831927776337,9.09423828125,11.9171142578125,-2.3651123046875
2.4099999,-9.907206535339355,-0.5793967843055725,0.4596867263317108,1.9073486328125,14.495849609375,-4.1961669921875
2.4299999,-9.849745750427246,-0.49320554733276367,0.646434485912323,-1.4801025390625,17.0440673828125,-4.5928955078125
2.4499999,-9.847352027893066,-0.47165772318840027,0.6320692300796509,-0.18310546875,18.310546875,-6.28662109375
2.4699999,-9.93593692779541,-0.5339069962501526,0.42377370595932007,3.4027099609375,13.73291015625,-8.11767578125
2.4899999,-10.0580415725708,-0.5937620401382446,0.08379705995321274,8.087158203125,3.8604736328125,-7.99560546875
2.5099999,-10.170568466186523,-0.6009446382522583,-0.2585737705230713,12.75634765625,-4.0283203125,-7.01904296875
2.5299999,-10.180145263671875,-0.5578489899635315,-0.5434837937355042,14.5263671875,-7.9498291015625,-8.1939697265625
2.5499999,-10.165780067443848,-0.42616790533065796,-0.6943184733390808,12.5885009765625,-11.3677978515625,-6.256103515625
2.5699999,-10.103530883789062,-0.2322375625371933,-0.608127236366272,12.6495361328125,-13.6260986328125,-2.0599365234375
2.5899999,-10.012551307678223,-0.038307227194309235,-0.3663128614425659,11.2152099609375,-11.077880859375,0.579833984375
2.6099999,-9.967061996459961,0.09816227108240128,-0.0454898327589035,4.39453125,-6.04248046875,1.15966796875
2.6299999,-9.914389610290527,0.1388636976480484,0.2801215946674347,-1.6021728515625,-3.204345703125,6.195068359375
2.6499999,-9.883264541625977,0.15083470940589905,0.4620809257030487,-5.126953125,-2.0599365234375,13.1072998046875
2.6699999,-9.861717224121094,0.14604631066322327,0.5027823448181152,-6.4697265625,0.1220703125,12.4664306640625
2.6899999,-9.86650562286377,0.07422025501728058,0.3447650372982025,-8.087158203125,-0.244140625,7.8277587890625
2.7099999,-9.950302124023438,0.05267243832349777,0.14844051003456116,-6.6070556640625,-3.173828125,7.5531005859375
2.7299999,-9.974244117736816,0.016759412363171577,-0.11252748221158981,3.1890869140625,-7.232666015625,9.2315673828125
2.7499999,-10.129867553710938,0.0933738648891449,-0.1628057211637497,10.43701171875,-8.7738037109375,9.3994140625
2.7699999,-10.031704902648926,0.272938996553421,-0.10295066982507706,2.6092529296875,-9.2010498046875,6.011962890625
2.7899999,-10.010157585144043,0.4596867263317108,0.19871874153614044,-14.434814453125,-2.716064453125,0.335693359375
2.8099999,-9.78989028930664,0.5746083855628967,0.5817909836769104,-24.7955322265625,4.1656494140625,-9.796142578125
2.8299999,-9.765948295593262,0.40222588181495667,0.8834604024887085,-26.79443359375,9.5062255859375,-4.1656494140625
2.8499999,-9.80904483795166,0.12210428714752197,0.8954314589500427,-21.5606689453125,18.6004638671875,5.5084228515625
2.8699999,-9.967061996459961,-0.21787235140800476,0.7733271718025208,-5.1116943359375,11.8560791015625,8.880615234375
2.8899999,-9.981427192687988,-0.3974374830722809,0.40701428055763245,3.6163330078125,3.1280517578125,9.6435546875
2.9099999,-10.062829971313477,-0.4381389021873474,-0.014365210197865963,5.9967041015625,11.3372802734375,2.7008056640625
2.9299999,-10.005369186401367,-0.16519992053508759,-0.24899697303771973,8.23974609375,10.0860595703125,-4.150390625
2.9499999,-9.962273597717285,0.17717093229293823,-0.47644615173339844,-8.5601806640625,7.7056884765625,1.15966796875
2.9699999,-10.127472877502441,0.5099649429321289,-0.5602431893348694,-23.4222412109375,8.6212158203125,6.89697265625
2.9899999,-10.036493301391602,0.7206547260284424,-0.6248866319656372,-23.773193359375,2.532958984375,0.823974609375
3.0099999,-10.08198356628418,0.6344634294509888,-0.6967126727104187,-16.2353515625,-3.2196044921875,-10.6201171875
3.0299999,-10.079588890075684,0.3208230137825012,-0.6703764796257019,-4.9591064453125,-2.01416015625,-6.5765380859375
3.0499999,-10.034099578857422,0.009576806798577309,-0.727837324142456,-3.47900390625,6.6375732421875,5.3253173828125
3.0699999,-10.08198356628418,-0.2106897532939911,-0.6584054827690125,0.5950927734375,-2.3193359375,4.4403076171875
3.0899999,-10.15141487121582,-0.40701428055763245,-0.6823474764823914,10.406494140625,-13.8092041015625,2.593994140625
3.1099999,-10.086771965026855,-0.2753331959247589,-0.5793967843055725,18.6767578125,-10.25390625,0.4730224609375
3.1299999,-10.019734382629395,-0.026336219161748886,-0.22026655077934265,21.30126953125,-8.2855224609375,-5.706787109375
3.1499999,-9.885659217834473,0.2944868206977844,0.26815059781074524,2.3193359375,-0.1068115234375,-0.396728515625
3.1699999,-9.782708168029785,0.7254431247711182,0.8523358106613159,-22.88818359375,13.5040283203125,-3.8299560546875
3.1899999,-9.840168952941895,0.9528923034667969,1.161187767982483,-28.6102294921875,10.8184814453125,-7.9498291015625
3.2099999,-9.81143856048584,0.8690952062606812,1.072602391242981,-24.0478515625,9.70458984375,-8.1024169921875
3.2299999,-9.959878921508789,0.6727706789970398,0.5961562395095825,-14.678955078125,18.2952880859375,-14.09912109375
3.2499999,-10.017339706420898,0.2825157940387726,0.090979665517807,-8.697509765625,15.960693359375,-11.749267578125
3.2699999,-10.012551307678223,-0.038307227194309235,-0.569819986820221,-12.847900390625,11.7645263671875,-2.8839111328125
3.2899999,-10.120290756225586,-0.42856210470199585,-0.9888052940368652,-5.706787109375,4.4708251953125,-0.91552734375
3.3099999,-10.139444351196289,-0.7589619159698486,-1.3910311460494995,9.246826171875,-11.4898681640625,-6.378173828125
3.3299999000000002,-10.127472877502441,-1.0055646896362305,-1.5849615335464478,25.4364013671875,-12.0849609375,-6.134033203125
3.3499999,-10.08198356628418,-0.9696516990661621,-1.4245500564575195,32.6385498046875,-6.8359375,0.67138671875
3.3699999,-9.93593692779541,-0.6129156351089478,-0.950498104095459,12.908935546875,-8.087158203125,8.5601806640625
3.3899999,-9.938331604003906,-0.05506663769483566,-0.24660277366638184,-15.7012939453125,-2.349853515625,8.2550048828125
3.4099999,-9.856928825378418,0.5817909836769104,0.3711012601852417,-39.306640625,-0.213623046875,-3.1280517578125
3.4299999,-9.816226959228516,0.8451532125473022,0.8259995579719543,-51.1627197265625,2.7923583984375,-10.009765625
3.4499999,-9.84495735168457,0.9074024558067322,0.912190854549408,-42.8466796875,12.298583984375,-8.23974609375
3.4699999,-9.761159896850586,0.5123591423034668,0.7038952708244324,-39.031982421875,13.0462646484375,-2.105712890625
3.4899999,-9.828198432922363,-0.06224924325942993,0.20350714027881622,-24.5819091796875,10.8184814453125,-4.058837890625
3.5099999,-9.974244117736816,-0.586579442024231,-0.33518823981285095,5.279541015625,2.7008056640625,2.166748046875
3.5299999,-10.067618370056152,-1.158793568611145,-1.0414776802062988,17.4560546875,-7.2174072265625,8.087158203125
3.5499999,-10.127472877502441,-1.3287819623947144,-1.4891934394836426,24.2767333984375,-11.962890625,5.5694580078125
3.5699999,-10.129867553710938,-1.1492167711257935,-1.4652514457702637,23.101806640625,-16.0064697265625,3.662109375
3.5899999,-10.103530883789062,-0.6991068720817566,-1.1563993692398071,-1.5716552734375,-9.1552734375,7.0953369140625
3.6099999,-10.065223693847656,-0.0694318488240242,-0.507570743560791,-25.299072265625,-1.64794921875,8.544921875
3.6299999,-10.122684478759766,0.24660277366638184,-0.10295066982507706,-25.7415771484375,-8.056640625,1.251220703125
3.6499999,-10.08437728881836,0.16519992053508759,-0.1867477297782898,9.918212890625,-11.04736328125,4.7149658203125
3.6699999,-10.098742485046387,-0.1412578970193863,-0.5913678407669067,53.16162109375,-17.3797607421875,10.43701171875
3.6899999,-10.129867553710938,-0.4141969084739685,-0.950498104095459,75.927734375,-28.3966064453125,5.6304931640625
3.7099999,-9.976638793945312,-0.12210428714752197,-0.6320692300796509,60.333251953125,-24.8870849609375,4.2572021484375
3.7299999,-9.967061996459961,0.5267243981361389,0.14604631066322327,0.4119873046875,-8.3160400390625,4.241943359375
3.7499999,-9.830592155456543,1.1516109704971313,1.1635819673538208,-48.9349365234375,1.739501953125,-8.1939697265625
3.7699999,-9.873687744140625,1.3958195447921753,1.7262194156646729,-48.6297607421875,2.7313232421875,-7.659912109375
3.7899999,-9.823410034179688,0.9792284965515137,1.5490485429763794,-18.6309814453125,5.2032470703125,-3.753662109375
3.8099999,-9.945513725280762,0.28969839215278625,0.9217676520347595,20.0042724609375,1.1138916015625,-4.4097900390625
3.8299999000000002,-9.907206535339355,-0.28969839215278625,0.2801215946674347,38.787841796875,-2.4566650390625,-2.5177001953125
3.8499999,-9.909601211547852,-0.36152446269989014,0.12928688526153564,21.148681640625,3.173828125,3.5552978515625
3.8699999,-9.8784761428833,-0.21308395266532898,0.20111294090747833,-21.30126953125,11.8255615234375,0.48828125
3.8899999,-9.926360130310059,0.13168109953403473,0.5937620401382446,-42.2515869140625,11.3372802734375,-7.8125
3.9099999,-9.945513725280762,0.19632454216480255,0.569819986820221,-37.0941162109375,7.9498291015625,-1.15966796875
3.9299999,-10.103530883789062,-0.2849099934101105,-0.33039984107017517,19.10400390625,0.7171630859375,-2.7923583984375
3.9499999,-10.067618370056152,-0.45489832758903503,-0.7565677165985107,31.2652587890625,-4.3487548828125,-0.274658203125
3.9699999,-10.070012092590332,-0.3734954595565796,-0.8523358106613159,18.829345703125,-1.678466796875,6.3323974609375
3.9899999,-10.041281700134277,-0.16998831927776337,-0.5985504388809204,-4.547119140625,-1.6326904296875,2.9144287109375
4.0099999,-9.955090522766113,0.19393034279346466,-0.05985504388809204,-19.83642578125,-5.0201416015625,2.3193359375
4.029999900000001,-9.952696800231934,0.42856210470199585,0.38546648621559143,-43.88427734375,-1.0986328125,3.0059814453125
4.0499999,-9.854534149169922,0.5267243981361389,0.727837324142456,-54.1229248046875,5.584716796875,-1.861572265625
4.069999900000001,-9.785101890563965,0.47405192255973816,0.9481038451194763,-43.487548828125,8.1024169921875,-4.69970703125
4.0899999000000005,-9.823410034179688,0.15083470940589905,0.730231523513794,-28.778076171875,13.36669921875,0.1678466796875
4.1099999,-9.821015357971191,-0.19393034279346466,0.3878606855869293,-10.4827880859375,11.53564453125,5.4931640625
4.1299999000000005,-10.002974510192871,-0.5793967843055725,-0.21787235140800476,4.7760009765625,3.509521484375,3.021240234375
4.1499999,-10.120290756225586,-0.6607996821403503,-0.7589619159698486,19.683837890625,-2.13623046875,10.5438232421875
4.1699999000000005,-10.24000072479248,-0.7350199222564697,-1.2880805730819702,19.9737548828125,-10.040283203125,7.110595703125
4.1899999,-10.285490036010742,-0.6009446382522583,-1.6065093278884888,31.890869140625,-19.0277099609375,0.4425048828125
4.209999900000001,-10.254365921020508,-0.3998316824436188,-1.5825673341751099,54.840087890625,-25.1007080078125,3.6163330078125
4.2299999,-10.168174743652344,0.033518824726343155,-1.1061211824417114,52.8564453125,-25.1007080078125,6.103515625
4.249999900000001,-9.995792388916016,0.5171475410461426,-0.31603461503982544,19.8974609375,-16.2811279296875,2.410888671875
4.2699999,-9.938331604003906,0.9026140570640564,0.5650315880775452,-1.6326904296875,-8.392333984375,-4.547119140625
4.289999900000001,-9.830592155456543,1.0606313943862915,1.1516109704971313,10.7421875,-8.697509765625,-0.3509521484375
4.3099999,-9.871294021606445,0.811634361743927,1.2282254695892334,23.4222412109375,-10.7574462890625,-1.6021728515625
4.329999900000001,-9.854534149169922,0.5147533416748047,1.1492167711257935,32.3333740234375,-9.2010498046875,-8.3160400390625
4.3499999,-9.830592155456543,0.42616790533065796,1.3000515699386597,25.543212890625,-3.35693359375,-4.3487548828125
4.369999900000001,-9.785101890563965,0.5674257874488831,1.6304513216018677,-17.2119140625,9.857177734375,-2.227783203125
4.3899999,-9.768342971801758,0.6536170840263367,1.8171991109848022,-56.0302734375,21.2249755859375,-9.7198486328125
4.409999900000001,-9.861717224121094,0.5123591423034668,1.6711528301239014,-49.346923828125,20.1263427734375,-8.8348388671875
4.4299999,-9.943120002746582,0.021547814831137657,0.8212111592292786,-8.5296630859375,11.2152099609375,-1.190185546875
4.449999900000001,-10.110713958740234,-0.6344634294509888,-0.33039984107017517,30.3802490234375,-0.396728515625,2.0599365234375
4.4699999,-10.141838073730469,-0.9097966551780701,-1.1276689767837524,48.736572265625,-8.270263671875,2.8533935546875
4.489999900000001,-10.122684478759766,-0.689530074596405,-1.2952631711959839,34.0576171875,-9.613037109375,2.777099609375
4.5099999,-10.019734382629395,-0.2106897532939911,-0.828393816947937,-7.3394775390625,-4.5928955078125,-0.7781982421875
4.529999900000001,-9.99100399017334,0.33758243918418884,-0.06703764945268631,-31.646728515625,-0.0762939453125,-4.6234130859375
4.5499999,-9.914389610290527,0.47884035110473633,0.5386953949928284,-25.4364013671875,-1.678466796875,-1.7547607421875
4.569999900000001,-9.938331604003906,0.395043283700943,0.7924807667732239,-6.927490234375,-2.2125244140625,-0.701904296875
4.5899999000000005,-9.847352027893066,0.26575639843940735,0.9217676520347595,4.2877197265625,-2.4566650390625,-0.6561279296875
4.609999900000001,-9.782708168029785,0.3974374830722809,1.2521674633026123,-14.068603515625,7.415771484375,0.579833984375
4.6299999000000005,-9.708487510681152,0.5746083855628967,1.4772224426269531,-59.722900390625,21.8963623046875,-6.866455078125
4.6499999,-9.624691009521484,0.7015010714530945,1.6424223184585571,-74.9664306640625,26.702880859375,-9.1400146484375
4.6699999000000005,-9.627084732055664,0.6584054827690125,1.678335428237915,-61.09619140625,26.9775390625,-6.3629150390625
4.6899999,-9.78989028930664,0.31364041566848755,0.9528923034667969,-60.7757568359375,29.266357421875,-2.4871826171875
4.709999900000001,-9.914389610290527,-0.20111294090747833,0.07182604819536209,-50.811767578125,26.6571044921875,-2.9449462890625
4.7299999,-10.211270332336426,-0.7709329724311829,-1.2306196689605713,-6.3629150390625,7.6446533203125,-2.99072265625
4.749999900000001,-10.366893768310547,-1.2832920551300049,-2.360682964324951,49.896240234375,-10.955810546875,-1.52587890625
4.7699999,-10.450690269470215,-1.400607943534851,-2.82515811920166,78.948974609375,-21.5911865234375,5.645751953125
4.789999900000001,-10.366893768310547,-1.2545616626739502,-2.6575639247894287,57.830810546875,-22.4609375,7.354736328125
4.8099999,-10.299856185913086,-0.7924807667732239,-1.8148049116134644,34.1644287109375,-18.7225341796875,4.2572021484375
4.829999900000001,-10.091560363769531,-0.22026655077934265,-0.7733271718025208,35.0341796875,-22.6593017578125,8.11767578125
4.8499999,-9.971850395202637,0.16519992053508759,0.05746084079146385,31.1431884765625,-21.026611328125,6.103515625
4.869999900000001,-9.828198432922363,0.6105214357376099,0.7876923680305481,23.0560302734375,-13.4124755859375,-3.3721923828125
4.8899999,-9.730035781860352,1.0797849893569946,1.5729905366897583,9.5977783203125,-7.0953369140625,-5.157470703125
4.909999900000001,-9.600749015808105,1.4628572463989258,2.3080103397369385,-31.79931640625,8.9263916015625,-4.1046142578125
4.9299999,-9.548076629638672,1.5083470344543457,2.738966703414917,-75.653076171875,26.8402099609375,-11.199951171875
4.949999900000001,-9.694122314453125,0.9816226959228516,2.434903144836426,-68.5272216796875,30.2886962890625,-11.016845703125
4.9699999,-9.813833236694336,0.004788403399288654,1.2856862545013428,-13.6566162109375,18.768310546875,1.3580322265625
4.989999900000001,-10.091560363769531,-1.05105459690094,-0.38546648621559143,35.8734130859375,0.67138671875,5.9814453125
5.0099999,-10.232817649841309,-1.699883222579956,-1.7549498081207275,60.85205078125,-13.8092041015625,3.9215087890625
5.029999900000001,-10.24239444732666,-1.4844050407409668,-2.1140801906585693,57.7545166015625,-16.7999267578125,7.232666015625
5.0499999,-10.093954086303711,-0.7350199222564697,-1.4652514457702637,16.05224609375,-11.04736328125,5.7830810546875
5.069999900000001,-10.017339706420898,0.1388636976480484,-0.4141969084739685,-30.1513671875,0,-4.4097900390625
5.0899999000000005,-9.959878921508789,0.6919242739677429,0.5961562395095825,-37.0330810546875,3.662109375,-4.08935546875
5.109999900000001,-9.952696800231934,0.7206547260284424,0.8834604024887085,-18.9208984375,2.471923828125,0.0457763671875
5.1299999000000005,-10.005369186401367,0.2585737705230713,0.5817909836769104,12.8173828125,-4.3182373046875,-0.885009765625
5.1499999,-10.012551307678223,-0.05746084079146385,0.26815059781074524,34.8968505859375,-8.026123046875,2.410888671875
5.1699999000000005,-9.93354320526123,-0.14365209639072418,0.2561795711517334,19.47021484375,-5.06591796875,2.899169921875
5.1899999,-9.847352027893066,-0.002394201699644327,0.608127236366272,-21.270751953125,5.06591796875,-0.48828125
5.209999900000001,-9.86650562286377,0.19393034279346466,1.048660397529602,-47.7142333984375,14.2822265625,-5.096435546875
5.2299999,-9.837775230407715,0.12689268589019775,1.1276689767837524,-37.8570556640625,12.4359130859375,1.6021728515625
5.249999900000001,-9.998186111450195,-0.19153612852096558,0.5099649429321289,-9.7503662109375,6.317138671875,6.04248046875
5.2699999,-10.043676376342773,-0.4908113479614258,-0.31124621629714966,23.8189697265625,-6.103515625,5.3253173828125
5.289999900000001,-10.110713958740234,-0.5003881454467773,-0.9409212470054626,36.1175537109375,-13.427734375,4.2266845703125
5.3099999,-10.067618370056152,-0.2082955539226532,-0.8954314589500427,18.829345703125,-9.7808837890625,-0.1983642578125
5.329999900000001,-9.907206535339355,0.18914192914962769,-0.2992752194404602,-12.20703125,-2.3651123046875,-3.11279296875
5.3499999,-9.93354320526123,0.45010992884635925,0.38307225704193115,-28.8848876953125,5.4473876953125,-8.5601806640625
5.369999900000001,-9.86889934539795,0.3734954595565796,0.7829039692878723,-16.6168212890625,3.60107421875,-0.7781982421875
5.3899999,-9.931148529052734,0.06224924325942993,0.6368576288223267,-0.518798828125,0.4119873046875,2.2125244140625
5.409999900000001,-10.012551307678223,-0.17956513166427612,0.2801215946674347,18.2952880859375,-5.18798828125,1.6632080078125
5.4299999,-9.979032516479492,-0.19632454216480255,0.07900865375995636,20.355224609375,-5.7373046875,1.0986328125
5.449999900000001,-9.95748519897461,0.05027823522686958,0.3256114423274994,-0.3814697265625,-0.0762939453125,-3.021240234375
5.4699999,-9.837775230407715,0.3208230137825012,0.7110779285430908,-30.1666259765625,8.8348388671875,-4.058837890625
5.489999900000001,-9.931148529052734,0.31124621629714966,1.0247182846069336,-42.0379638671875,16.4794921875,-7.7362060546875
5.5099999,-9.926360130310059,0.1149216815829277,0.8212111592292786,-23.5137939453125,11.3067626953125,2.7923583984375
5.529999900000001,-10.08198356628418,-0.3687070608139038,0.047884032130241394,0.42724609375,1.4495849609375,5.3558349609375
5.5499999,-10.15141487121582,-0.5937620401382446,-0.7709329724311829,28.228759765625,-11.383056640625,2.86865234375
5.569999900000001,-10.079588890075684,-0.6440402865409851,-1.1899182796478271,41.839599609375,-18.9361572265625,0.701904296875
5.5899999000000005,-9.979032516479492,-0.17717093229293823,-0.667982280254364,18.5699462890625,-13.6871337890625,0.5340576171875
5.609999900000001,-9.794678688049316,0.26575639843940735,0.24181437492370605,-35.8428955078125,1.7852783203125,-1.5869140625
5.6299999000000005,-9.727641105651855,0.7110779285430908,1.4891934394836426,-71.075439453125,15.380859375,-6.256103515625
5.6499999,-9.619902610778809,0.9744400978088379,2.1595699787139893,-81.6802978515625,21.759033203125,1.64794921875
5.6699999000000005,-9.785101890563965,0.8259995579719543,1.8938134908676147,-88.226318359375,26.6571044921875,0.67138671875
5.6899999,-9.768342971801758,0.4572925269603729,1.015141487121582,-69.8089599609375,18.9666748046875,-3.204345703125
5.709999900000001,-9.962273597717285,0.0071826050989329815,0.021547814831137657,-21.42333984375,3.509521484375,-2.227783203125
5.7299999,-10.098742485046387,-0.8092401623725891,-1.1540051698684692,3.2501220703125,-0.6866455078125,-2.0751953125
5.749999900000001,-10.230423927307129,-1.4437036514282227,-1.764526605606079,26.2451171875,-4.57763671875,11.260986328125
5.7699999,-10.271124839782715,-2.030282974243164,-2.2194249629974365,59.5245361328125,-20.93505859375,17.3187255859375
5.789999900000001,-10.369287490844727,-2.1547815799713135,-2.3918075561523438,95.9625244140625,-32.4249267578125,19.378662109375
5.8099999,-10.225635528564453,-1.5705963373184204,-2.0015525817871094,99.2889404296875,-37.59765625,24.200439453125
5.829999900000001,-10.034099578857422,-0.2968810200691223,-0.8954314589500427,56.396484375,-34.66796875,18.646240234375
5.8499999,-9.782708168029785,1.53707754611969,0.8978256583213806,-2.655029296875,-15.56396484375,2.3040771484375
5.869999900000001,-9.44752025604248,3.155557870864868,2.7964274883270264,-68.7103271484375,13.6871337890625,-17.120361328125
5.8899999,-9.172186851501465,4.19224739074707,4.484339714050293,-124.6337890625,38.6199951171875,-28.62548828125
5.909999900000001,-9.10993766784668,3.6750996112823486,4.575319290161133,-149.7955322265625,63.385009765625,-27.9541015625
5.9299999,-9.315838813781738,2.140416383743286,3.246537446975708,-92.9718017578125,60.302734375,-16.571044921875
5.949999900000001,-9.581595420837402,0.026336219161748886,0.811634361743927,-0.0762939453125,29.998779296875,2.3956298828125
5.9699999,-10.11550235748291,-1.5418659448623657,-1.8124107122421265,41.6107177734375,-4.33349609375,8.026123046875
5.989999900000001,-10.302249908447266,-2.1930887699127197,-3.406949043273926,32.318115234375,-15.2740478515625,-1.068115234375
6.0099999,-10.369287490844727,-1.8291701078414917,-3.5170822143554688,22.216796875,-16.8914794921875,-5.859375
6.029999900000001,-10.316615104675293,-1.3024457693099976,-2.561795711517334,2.7313232421875,-6.134033203125,-8.7432861328125
6.0499999,-10.091560363769531,-0.9983820915222168,-1.522712230682373,7.9498291015625,1.2969970703125,-0.1678466796875
6.069999900000001,-10.103530883789062,-0.9193734526634216,-0.5051765441894531,46.7071533203125,-7.568359375,9.70458984375
6.0899999000000005,-10.046070098876953,-0.9481038451194763,-0.23702596127986908,68.603515625,-17.822265625,12.847900390625
6.109999900000001,-10.067618370056152,-0.45250412821769714,-0.026336219161748886,56.0302734375,-14.09912109375,11.749267578125
6.1299999000000005,-9.971850395202637,0.2944868206977844,0.5746083855628967,19.6990966796875,-10.80322265625,2.1514892578125
6.149999900000001,-9.835380554199219,1.1659762859344482,1.3910311460494995,-38.0859375,3.5400390625,-6.6680908203125
6.1699999000000005,-9.856928825378418,1.4221558570861816,1.7357962131500244,-77.911376953125,28.01513671875,-8.636474609375
6.1899999,-9.864110946655273,1.1324573755264282,1.5705963373184204,-49.2706298828125,21.1029052734375,-0.091552734375
6.209999900000001,-10.029311180114746,0.33039984107017517,0.26815059781074524,4.6234130859375,-0.823974609375,5.5999755859375
6.2299999,-10.11550235748291,-0.3471592366695404,-0.9026140570640564,44.1131591796875,-19.287109375,-0.42724609375
6.249999900000001,-10.070012092590332,-0.5817909836769104,-1.173158884048462,45.1812744140625,-20.3704833984375,-2.9144287109375
6.2699999,-9.986215591430664,-0.6320692300796509,-0.8786720037460327,0.18310546875,-1.953125,-0.6866455078125
6.289999900000001,-9.99100399017334,-0.507570743560791,-0.090979665517807,-15.0146484375,9.429931640625,6.2713623046875
6.3099999,-9.9000244140625,-0.3758896589279175,0.3016694188117981,6.9732666015625,-1.434326171875,12.8021240234375
6.329999900000001,-9.99100399017334,-0.05746084079146385,0.21787235140800476,20.01953125,-8.72802734375,4.0740966796875
6.3499999,-9.84495735168457,0.45489832758903503,0.49320554733276367,9.1094970703125,-6.04248046875,-6.4697265625
6.369999900000001,-9.739612579345703,1.1851298809051514,0.9361328482627869,-37.4908447265625,9.8114013671875,-12.0086669921875
6.3899999,-8.769960403442383,1.8124107122421265,1.9177556037902832,-76.446533203125,27.984619140625,-7.171630859375
6.409999900000001,-7.182605266571045,2.0039467811584473,2.2242133617401123,-108.2763671875,41.44287109375,16.204833984375
6.4299999,-7.484274387359619,1.766920804977417,1.436521053314209,-89.111328125,37.261962890625,-12.664794921875
6.449999900000001,-7.043741226196289,0.5434837937355042,-0.19632454216480255,-41.534423828125,26.5045166015625,-38.604736328125
6.4699999,-7.354987621307373,-1.039083480834961,-2.008735179901123,13.3514404296875,3.2806396484375,11.8255615234375
6.489999900000001,-9.181763648986816,-2.389413356781006,-2.9257144927978516,89.7064208984375,-43.2891845703125,47.576904296875
6.5099999,-9.057265281677246,-3.1747114658355713,-2.4875755310058594,120.2545166015625,-27.28271484375,16.0369873046875
6.529999900000001,-11.784260749816895,-2.456450939178467,-1.237802267074585,54.046630859375,19.622802734375,24.8870849609375
6.5499999,-13.328520774841309,-1.3503297567367554,0.7326257228851318,-20.6298828125,24.0020751953125,12.63427734375
6.569999900000001,-14.609418869018555,0.05027823522686958,1.2689268589019775,-89.41650390625,44.98291015625,23.3917236328125
6.5899999000000005,-14.381969451904297,1.4173674583435059,1.357512354850769,-78.5980224609375,47.9278564453125,37.9638671875
6.609999900000001,-12.536040306091309,2.0446481704711914,0.09816227108240128,-45.4864501953125,2.5482177734375,2.7313232421875
6.6299999000000005,-10.919954299926758,1.900996208190918,-1.3431471586227417,-6.40869140625,-24.566650390625,-24.627685546875
6.649999900000001,-9.880870819091797,1.072602391242981,-2.212242364883423,59.2803955078125,-31.341552734375,-17.5628662109375
6.6699999000000005,-9.481039047241211,0.05027823522686958,-2.2361843585968018,96.25244140625,-20.477294921875,17.364501953125
6.6899999,-9.533711433410645,-0.3974374830722809,-1.53707754611969,90.4998779296875,-10.2081298828125,21.78955078125
6.709999900000001,-9.643844604492188,0.07900865375995636,-0.5386953949928284,63.1256103515625,-9.765625,-7.2479248046875
6.7299999,-9.646238327026367,1.070208191871643,0.395043283700943,31.982421875,-1.2969970703125,-25.3753662109375
6.749999900000001,-9.813833236694336,1.8483237028121948,0.9888052940368652,5.828857421875,11.993408203125,-22.1405029296875
6.7699999,-9.93593692779541,1.965639591217041,1.1109095811843872,-10.3607177734375,14.6331787109375,-8.1634521484375
6.789999900000001,-10.189722061157227,1.6184803247451782,0.7589619159698486,-11.3677978515625,6.561279296875,7.4310302734375
6.8099999,-10.125079154968262,0.9840168952941895,0.12449848651885986,-2.7923583984375,0.701904296875,11.4593505859375
6.829999900000001,-10.220847129821777,0.4884171485900879,-0.4141969084739685,2.3193359375,-2.8839111328125,13.2904052734375
6.8499999,-10.280701637268066,0.05267243832349777,-0.6991068720817566,-1.1749267578125,-5.615234375,7.9193115234375
6.869999900000001,-10.182539939880371,-0.07422025501728058,-0.6799532771110535,-5.340576171875,0.8087158203125,6.65283203125
6.8899999,-9.945513725280762,-0.07661445438861847,-0.5722141861915588,-4.8980712890625,5.2490234375,10.009765625
6.909999900000001,-9.579200744628906,0.028730420395731926,-0.47884035110473633,-0.4119873046875,-2.3956298828125,-4.9591064453125
6.9299999,-9.320627212524414,0.16519992053508759,-0.4668693244457245,-0.42724609375,-5.06591796875,-19.683837890625
6.949999900000001,-9.718064308166504,0.19871874153614044,-0.5147533416748047,-2.838134765625,-1.0833740234375,-19.683837890625
6.9699999,-10.690110206604004,0.038307227194309235,-0.6392518281936646,-1.4495849609375,-1.6632080078125,-16.4947509765625
6.989999900000001,-11.899182319641113,-0.2537853717803955,-0.8188169598579407,6.195068359375,-13.885498046875,-10.1318359375
7.0099999,-13.048398971557617,-0.4357447028160095,-1.0893617868423462,20.6756591796875,-17.2271728515625,-3.2196044921875
7.029999900000001,-13.414711952209473,-0.45010992884635925,-1.3096283674240112,37.5518798828125,-22.76611328125,-15.8538818359375
7.0499999,-13.374011039733887,-0.19632454216480255,-1.3694833517074585,48.187255859375,-27.923583984375,-15.594482421875
7.069999900000001,-12.567164421081543,0.14365209639072418,-1.1563993692398071,51.849365234375,-33.203125,-20.721435546875
7.0899999000000005,-11.465831756591797,0.4668693244457245,-0.6105214357376099,46.7529296875,-29.0374755859375,-15.13671875
7.109999900000001,-10.278307914733887,0.6751648783683777,0.11971008777618408,32.867431640625,-9.8724365234375,-4.0740966796875
7.1299999000000005,-9.198522567749023,0.7781155705451965,0.8259995579719543,17.547607421875,4.5166015625,-3.35693359375
7.149999900000001,-8.4108304977417,0.7469909191131592,1.3048399686813354,5.5084228515625,5.0506591796875,-10.7269287109375
7.1699999000000005,-7.931990146636963,0.5578489899635315,1.455674648284912,-0.9613037109375,2.3345947265625,-19.256591796875
7.1899999,-7.608773231506348,0.17477671802043915,1.3527239561080933,-1.4190673828125,5.6304931640625,-23.0560302734375
7.209999900000001,-7.405265808105469,-0.3256114423274994,1.072602391242981,0.9002685546875,10.1470947265625,-18.035888671875
7.2299999,-7.316680431365967,-0.8068459630012512,0.7230489253997803,3.814697265625,7.6141357421875,-10.9100341796875
7.249999900000001,-7.338228225708008,-1.2066776752471924,0.3711012601852417,7.6904296875,-0.1373291015625,-8.9874267578125
7.2699999,-7.474697589874268,-1.403002142906189,0.1149216815829277,10.1165771484375,-6.591796875,-5.584716796875
7.289999900000001,-7.690176010131836,-1.4293384552001953,-0.002394201699644327,7.965087890625,-3.0059814453125,-4.6539306640625
7.3099999,-7.922413349151611,-1.3335703611373901,0.021547814831137657,3.11279296875,5.3253173828125,-9.979248046875
7.329999900000001,-8.192957878112793,-1.1971008777618408,0.12928688526153564,-2.960205078125,9.735107421875,-12.63427734375
7.3499999,-8.525752067565918,-1.0654197931289673,0.24420857429504395,-9.002685546875,11.4898681640625,-7.415771484375
7.369999900000001,-8.908824920654297,-0.9816226959228516,0.31124621629714966,-12.1917724609375,14.129638671875,-5.6915283203125
7.3899999,-9.30386734008789,-0.9169792532920837,0.2968810200691223,-12.26806640625,13.9617919921875,-9.1552734375
7.409999900000001,-9.658209800720215,-0.871489405632019,0.2106897532939911,-10.894775390625,9.46044921875,-9.7198486328125
7.4299999,-9.921571731567383,-0.8068459630012512,0.07182604819536209,-9.3231201171875,6.439208984375,-7.110595703125
7.449999900000001,-10.053253173828125,-0.730231523513794,-0.08619125932455063,-6.6680908203125,6.8206787109375,-8.11767578125
7.4699999,-10.091560363769531,-0.6272808313369751,-0.19153612852096558,-4.852294921875,5.1422119140625,-6.805419921875
7.489999900000001,-10.098742485046387,-0.49320554733276367,-0.21547815203666687,-6.591796875,2.3040771484375,1.617431640625
7.5099999,-10.15141487121582,-0.3280056416988373,-0.1604115068912506,-9.0789794921875,4.7454833984375,7.720947265625
7.529999900000001,-10.27591323852539,-0.181959331035614,-0.08619125932455063,-9.307861328125,10.345458984375,4.6844482421875
7.5499999,-10.450690269470215,-0.090979665517807,0.004788403399288654,-8.697509765625,7.50732421875,2.7008056640625
7.569999900000001,-10.852916717529297,-0.0933738648891449,0.035913024097681046,-8.3465576171875,4.8370361328125,9.33837890625
7.5899999000000005,-10.951078414916992,-0.2106897532939911,0.002394201699644327,-6.0272216796875,2.2125244140625,0.42724609375
7.609999900000001,-10.924742698669434,-0.363918662071228,-0.011971008032560349,-2.5482177734375,-6.9580078125,-1.6632080078125
7.6299999000000005,-10.848128318786621,-0.5434837937355042,-0.002394201699644327,-0.1983642578125,-11.77978515625,5.950927734375
7.649999900000001,-10.771512985229492,-0.6967126727104187,0.05985504388809204,0.4119873046875,-9.490966796875,10.2996826171875
7.6699999000000005,-10.742782592773438,-0.7757213711738586,0.16998831927776337,-1.0833740234375,-8.9874267578125,4.8675537109375
7.6899999,-10.737994194030762,-0.7374141216278076,0.2968810200691223,-4.1961669921875,-15.625,0.67138671875
7.709999900000001,-10.60152530670166,-0.6224924325942993,0.4118026793003082,-7.293701171875,-19.1650390625,0.91552734375
7.7299999,-10.271124839782715,-0.45250412821769714,0.49799394607543945,-8.4381103515625,-11.993408203125,2.44140625
7.749999900000001,-9.86650562286377,-0.26575639843940735,0.5195417404174805,-8.3160400390625,-3.326416015625,7.232666015625
7.7699999,-9.485827445983887,-0.08858546614646912,0.4836287498474121,-9.4757080078125,-7.0343017578125,14.7552490234375
7.789999900000001,-9.224859237670898,0.07900865375995636,0.42856210470199585,-13.00048828125,-15.533447265625,18.8446044921875
7.8099999,-9.078812599182129,0.22026655077934265,0.3519476354122162,-16.2811279296875,-8.30078125,13.61083984375
7.829999900000001,-9.2033109664917,0.23942017555236816,0.272938996553421,-16.4794921875,6.0272216796875,4.5318603515625
7.8499999,-9.536105155944824,0.1364694982767105,0.12689268589019775,-15.6097412109375,14.3280029296875,-6.988525390625
7.869999900000001,-9.952696800231934,-0.0933738648891449,-0.10534487664699554,-13.0462646484375,14.0838623046875,3.3721923828125
7.8899999,-10.400412559509277,-0.33279404044151306,-0.35673606395721436,-5.2490234375,11.9476318359375,11.3677978515625
7.909999900000001,-10.5344877243042,-0.5602431893348694,-0.5937620401382446,4.486083984375,5.6915283203125,8.636474609375
7.9299999,-10.488997459411621,-0.6631938815116882,-0.730231523513794,12.7716064453125,-2.6397705078125,3.3721923828125
7.949999900000001,-10.350133895874023,-0.6871358752250671,-0.6799532771110535,21.05712890625,-7.537841796875,3.6163330078125
7.9699999,-10.189722061157227,-0.5722141861915588,-0.47405192255973816,23.193359375,-4.364013671875,8.056640625
7.989999900000001,-10.043676376342773,-0.3471592366695404,-0.2513911724090576,17.974853515625,-2.38037109375,7.4005126953125
8.0099999,-9.967061996459961,-0.08140286058187485,-0.009576806798577309,13.2598876953125,-4.0435791015625,2.13623046875
8.0299999,-9.926360130310059,0.2346317619085312,0.26336219906806946,4.5928955078125,-4.2266845703125,0.885009765625
8.049999900000001,-9.907206535339355,0.5147533416748047,0.47405192255973816,-9.94873046875,0.9613037109375,2.86865234375
8.069999900000001,-9.959878921508789,0.730231523513794,0.5793967843055725,-18.1427001953125,5.584716796875,-2.2430419921875
8.0899999,-9.962273597717285,0.7829039692878723,0.5650315880775452,-16.7999267578125,2.9296875,-8.5601806640625
8.1099999,-10.000580787658691,0.6320692300796509,0.31603461503982544,-16.2200927734375,-1.4801025390625,-8.270263671875
8.129999900000001,-10.034099578857422,0.31842881441116333,0.002394201699644327,-14.22119140625,-2.3040771484375,-6.256103515625
8.149999900000001,-10.079588890075684,-0.21547815203666687,-0.35673606395721436,-4.4708251953125,-7.0953369140625,-5.7220458984375
8.1699999,-10.065223693847656,-0.8092401623725891,-0.6009446382522583,9.1400146484375,-12.63427734375,-4.6539306640625
8.1899999,-10.055646896362305,-1.1851298809051514,-0.667982280254364,17.6239013671875,-17.791748046875,2.6397705078125
8.2099999,-9.995792388916016,-1.290474772453308,-0.3902548849582672,15.8538818359375,-15.1519775390625,9.6588134765625
8.229999900000001,-9.971850395202637,-0.9552865028381348,0.047884032130241394,7.8125,-8.8653564453125,7.1258544921875
8.2499999,-9.90241813659668,-0.4165911078453064,0.545877993106842,-1.678466796875,-5.5694580078125,2.899169921875
8.2699999,-9.916783332824707,0.15801730751991272,1.0534487962722778,-9.2315673828125,-2.105712890625,4.486083984375
8.2899999,-9.847352027893066,0.6224924325942993,1.403002142906189,-18.06640625,1.2054443359375,3.509521484375
8.309999900000001,-9.835380554199219,0.828393816947937,1.5705963373184204,-26.79443359375,4.425048828125,-6.744384765625
8.3299999,-9.780313491821289,0.7469909191131592,1.4197616577148438,-26.30615234375,9.8114013671875,-10.345458984375
8.3499999,-9.825803756713867,0.5195417404174805,1.0103530883789062,-13.4735107421875,11.04736328125,-5.0201416015625
8.3699999,-9.813833236694336,0.1604115068912506,0.4429273009300232,-1.40380859375,7.2021484375,-1.0528564453125
8.389999900000001,-9.885659217834473,-0.16998831927776337,-0.06224924325942993,-4.608154296875,4.058837890625,-0.0457763671875
8.4099999,-10.125079154968262,-0.3423708379268646,-0.26336219906806946,-15.5029296875,2.01416015625,1.2359619140625
8.4299999,-9.95748519897461,-0.38067805767059326,-0.014365210197865963,-21.4385986328125,-3.7689208984375,3.0517578125
8.4499999,-10.053253173828125,-0.507570743560791,0.23942017555236816,-27.8472900390625,3.875732421875,-3.23486328125
8.469999900000001,-9.959878921508789,-0.38546648621559143,0.7038952708244324,-14.8162841796875,13.4735107421875,-11.3372802734375
8.4899999,-9.895236015319824,-0.4189853072166443,0.8619126081466675,-11.8255615234375,20.1873779296875,-1.6021728515625
8.5099999,-9.9000244140625,-0.38067805767059326,0.6871358752250671,-12.6190185546875,21.820068359375,-0.030517578125
8.5299999,-10.053253173828125,-0.1628057211637497,0.6703764796257019,4.0435791015625,8.209228515625,1.8463134765625
8.549999900000001,-9.895236015319824,0.0071826050989329815,0.4812345504760742,-6.378173828125,14.6636962890625,-2.3193359375
8.569999900000001,-9.950302124023438,0.33518823981285095,0.507570743560791,-23.712158203125,23.3001708984375,-17.2271728515625
8.5899999,-9.847352027893066,0.5339069962501526,0.5099649429321289,-42.17529296875,22.003173828125,-12.63427734375
8.6099999,-9.897629737854004,0.44532153010368347,0.07182604819536209,-65.12451171875,31.341552734375,-4.180908203125
8.629999900000001,-10.062829971313477,-0.10295066982507706,-0.6129156351089478,-44.3878173828125,18.096923828125,-4.9285888671875
8.649999900000001,-10.156203269958496,-0.8403648138046265,-1.5107412338256836,2.9449462890625,-3.84521484375,-1.251220703125
8.6699999,-10.366893768310547,-1.7070658206939697,-2.4899697303771973,45.22705078125,-13.214111328125,1.2969970703125
8.6899999,-10.342951774597168,-2.03507137298584,-2.8562827110290527,73.486328125,-21.9879150390625,8.7890625
8.709999900000001,-10.225635528564453,-1.8555063009262085,-2.6024973392486572,56.976318359375,-27.191162109375,16.2353515625
8.729999900000001,-10.259154319763184,-1.335964560508728,-1.8531121015548706,24.4903564453125,-24.7955322265625,9.368896484375
8.7499999,-9.974244117736816,-0.4812345504760742,-0.6799532771110535,15.9759521484375,-27.374267578125,9.857177734375
8.7699999,-9.90241813659668,-0.06703764945268631,0.24181437492370605,10.9405517578125,-24.627685546875,7.049560546875
8.7899999,-9.768342971801758,0.4141969084739685,1.113303780555725,14.4500732421875,-11.4898681640625,1.1138916015625
8.809999900000001,-9.655815124511719,0.646434485912323,1.8339585065841675,-1.739501953125,-1.4190673828125,6.744384765625
8.8299999,-9.643844604492188,0.7757213711738586,2.1356279850006104,-33.9508056640625,12.1307373046875,6.2713623046875
8.8499999,-9.651026725769043,0.6775590777397156,2.10210919380188,-32.6385498046875,14.556884765625,2.197265625
8.8699999,-9.75397777557373,0.33039984107017517,1.4317326545715332,-5.5999755859375,2.50244140625,-1.312255859375
8.889999900000001,-9.813833236694336,-0.05985504388809204,0.6272808313369751,19.378662109375,5.3253173828125,-1.708984375
8.9099999,-10.034099578857422,-0.17717093229293823,-0.031124621629714966,15.6097412109375,4.730224609375,-0.18310546875
8.9299999,-9.96945571899414,-0.011971008032560349,-0.1628057211637497,-17.1356201171875,5.7525634765625,1.1138916015625
8.9499999,-10.20648193359375,0.1843535304069519,-0.1364694982767105,-34.6221923828125,12.0697021484375,-5.584716796875
8.969999900000001,-10.101137161254883,0.23942017555236816,-0.031124621629714966,-18.06640625,2.838134765625,-10.8642578125
8.9899999,-10.15141487121582,-0.002394201699644327,-0.24181437492370605,7.8277587890625,-1.0528564453125,-7.4310302734375
9.0099999,-10.163386344909668,-0.22026655077934265,-0.36152446269989014,19.8822021484375,-0.06103515625,-5.706787109375
9.0299999,-10.041281700134277,-0.38067805767059326,-0.31603461503982544,0.946044921875,3.4027099609375,0.7171630859375
9.049999900000001,-10.046070098876953,-0.37828385829925537,-0.12449848651885986,-20.6451416015625,6.2255859375,-0.1983642578125
9.069999900000001,-9.943120002746582,-0.5386953949928284,-0.021547814831137657,-13.153076171875,1.556396484375,-1.2969970703125
9.0899999,-9.907206535339355,-0.7230489253997803,-0.16998831927776337,11.1083984375,-5.67626953125,1.8157958984375
9.1099999,-9.95748519897461,-0.7972691655158997,-0.30885201692581177,28.7017822265625,-8.5296630859375,0.640869140625
9.129999900000001,-9.96945571899414,-0.6153098344802856,-0.272938996553421,12.4969482421875,-3.1890869140625,3.2806396484375
9.149999900000001,-9.950302124023438,-0.3256114423274994,-0.08140286058187485,-12.2528076171875,3.11279296875,4.791259765625
9.1699999,-10.041281700134277,-0.011971008032560349,0.304063618183136,-12.8021240234375,0.3814697265625,2.777099609375
9.1899999,-9.928754806518555,0.05746084079146385,0.4141969084739685,-9.521484375,-3.1280517578125,-0.8392333984375
9.209999900000001,-9.907206535339355,0.14604631066322327,0.5363011956214905,-1.7547607421875,0.91552734375,-2.2430419921875
9.229999900000001,-9.890447616577148,0.11252748221158981,0.524330198764801,-8.514404296875,7.4005126953125,-2.2430419921875
9.2499999,-9.75397777557373,0.17238251864910126,0.5219359993934631,-18.9361572265625,9.063720703125,-0.7171630859375
9.2699999,-9.849745750427246,0.2585737705230713,0.706289529800415,-17.181396484375,11.1846923828125,0.8087158203125
9.2899999,-9.785101890563965,0.395043283700943,0.8020575642585754,-48.6907958984375,13.6871337890625,-0.823974609375
9.309999900000001,-9.871294021606445,0.38307225704193115,0.7661445140838623,-79.2236328125,21.453857421875,-9.6893310546875
9.3299999,-9.931148529052734,0.15083470940589905,0.4668693244457245,-62.1795654296875,18.73779296875,-10.25390625
9.3499999,-10.043676376342773,-0.24660277366638184,-0.026336219161748886,-24.4140625,15.2740478515625,-4.852294921875
9.3699999,-10.18493366241455,-1.1635819673538208,-1.0893617868423462,4.5623779296875,10.55908203125,4.08935546875
9.389999900000001,-10.400412559509277,-1.821987509727478,-2.0183119773864746,52.001953125,-10.528564453125,11.5509033203125
9.4099999,-10.371682167053223,-2.140416383743286,-2.7964274883270264,98.5107421875,-32.16552734375,20.904541015625
9.4299999,-10.395624160766602,-1.7956513166427612,-3.160346269607544,99.42626953125,-36.407470703125,14.251708984375
9.4499999,-10.15141487121582,-0.6871358752250671,-2.3056161403656006,69.3511962890625,-35.1104736328125,5.4473876953125
9.469999900000001,-9.947908401489258,0.5386953949928284,-1.0295066833496094,9.2620849609375,-21.209716796875,-3.7078857421875
9.4899999,-9.86889934539795,1.522712230682373,0.6440402865409851,-29.388427734375,-7.0648193359375,-9.8724365234375
9.5099999,-9.718064308166504,1.7286136150360107,1.7884687185287476,-30.94482421875,-3.8299560546875,-10.80322265625
9.5299999,-9.667786598205566,1.338358759880066,2.1954829692840576,-25.909423828125,-0.030517578125,-12.3443603515625
9.549999900000001,-9.672574996948242,0.5937620401382446,2.1499931812286377,-18.4783935546875,9.2315673828125,-12.02392578125
9.569999900000001,-9.59596061706543,-0.3256114423274994,1.5658079385757446,-18.8446044921875,16.4337158203125,1.0223388671875
9.5899999,-9.646238327026367,-0.933738648891449,1.0247182846069336,-13.397216796875,13.9923095703125,3.021240234375
9.6099999,-9.847352027893066,-1.3048399686813354,0.3687070608139038,-12.8173828125,4.730224609375,10.833740234375
9.629999900000001,-9.971850395202637,-1.3096283674240112,-0.304063618183136,-25.57373046875,-6.3934326171875,14.312744140625
9.649999900000001,-10.213664054870605,-1.0271124839782715,-0.8595184087753296,-14.923095703125,-10.19287109375,7.9193115234375
9.6699999,-10.309432983398438,-0.6368576288223267,-1.0558429956436157,14.373779296875,-15.1824951171875,5.218505859375
9.6899999,-10.29746150970459,-0.3495534360408783,-1.1875240802764893,19.10400390625,-15.5181884765625,8.72802734375
9.709999900000001,-10.326191902160645,-0.3232172429561615,-1.1204863786697388,32.3333740234375,-16.693115234375,7.2479248046875
9.729999900000001,-10.156203269958496,-0.20350714027881622,-0.7852981686592102,63.7969970703125,-29.571533203125,12.786865234375
9.7499999,-10.093954086303711,-0.028730420395731926,-0.3423708379268646,66.0400390625,-29.4189453125,8.60595703125
9.7699999,-9.828198432922363,0.5841852426528931,0.8212111592292786,39.0625,-12.2222900390625,1.89208984375
9.7899999,-9.548076629638672,1.4460978507995605,2.2649147510528564,-25.1922607421875,19.8822021484375,-6.134033203125
9.809999900000001,-9.39245319366455,1.9823989868164062,3.2585084438323975,-75.37841796875,56.0150146484375,-15.3045654296875
9.8299999,-9.258378028869629,2.0614075660705566,3.308786630630493,-65.3228759765625,62.9425048828125,-12.8326416015625
9.8499999,-9.437943458557129,1.5083470344543457,2.1308395862579346,-28.7628173828125,51.8951416015625,-12.237548828125
9.8699999,-9.677363395690918,0.6512228846549988,0.31603461503982544,5.9661865234375,38.8946533203125,-14.3585205078125
9.889999900000001,-9.883264541625977,0,-1.1803414821624756,14.22119140625,31.7535400390625,-10.894775390625
9.9099999,-10.086771965026855,-0.5482721924781799,-2.1499931812286377,-5.2490234375,28.045654296875,-3.8909912109375
9.9299999,-10.24239444732666,-0.912190854549408,-2.5450363159179688,-7.232666015625,19.744873046875,5.3558349609375
9.9499999,-10.32858657836914,-1.2473790645599365,-2.63362193107605,18.0206298828125,-7.6141357421875,9.3841552734375
9.969999900000001,-10.465055465698242,-1.5514427423477173,-2.542642116546631,49.224853515625,-28.1829833984375,5.2642822265625
9.9899999,-10.409989356994629,-1.4772224426269531,-1.8698714971542358,64.9871826171875,-35.308837890625,6.0577392578125
10.0099999,-10.29746150970459,-1.359906554222107,-0.933738648891449,43.5333251953125,-28.076171875,5.31005859375
10.0299999,-10.141838073730469,-0.9097966551780701,0.19632454216480255,22.308349609375,-19.012451171875,7.781982421875
10.049999900000001,-9.897629737854004,-0.42377370595932007,1.0223240852355957,12.847900390625,-16.5557861328125,11.871337890625
10.069999900000001,-9.763554573059082,0.028730420395731926,1.4389152526855469,4.852294921875,-11.6119384765625,4.7760009765625
10.0899999,-9.706093788146973,0.6703764796257019,1.6950948238372803,-7.4920654296875,-2.1209716796875,-3.387451171875
10.1099999,-9.646238327026367,1.0462661981582642,1.6759412288665771,-31.1431884765625,8.2550048828125,-5.645751953125
10.129999900000001,-9.823410034179688,1.1635819673538208,1.53707754611969,-38.5589599609375,12.7716064453125,-4.5318603515625
10.149999900000001,-9.90241813659668,0.8020575642585754,0.8331822156906128,-27.4810791015625,7.6141357421875,-3.7994384765625
10.1699999,-10.014945983886719,0.1364694982767105,-0.06703764945268631,-1.28173828125,-3.84521484375,-3.1280517578125
10.1899999,-10.096348762512207,-0.4692635238170624,-1.0055646896362305,25.4058837890625,-13.214111328125,-4.6234130859375
10.209999900000001,-10.08198356628418,-0.9241618514060974,-1.580173134803772,33.294677734375,-15.3350830078125,0.42724609375
10.229999900000001,-10.098742485046387,-0.9217676520347595,-1.45806884765625,30.426025390625,-19.47021484375,4.913330078125
10.2499999,-10.127472877502441,-0.7445967197418213,-1.0965443849563599,16.998291015625,-19.8211669921875,5.4931640625
10.2699999,-9.998186111450195,-0.36152446269989014,-0.3519476354122162,4.8980712890625,-20.9197998046875,2.8533935546875
10.2899999,-9.921571731567383,0.12928688526153564,0.4644751250743866,-3.5552978515625,-15.045166015625,-2.960205078125
10.309999900000001,-9.840168952941895,0.44771572947502136,1.1276689767837524,-16.5863037109375,-1.0986328125,-5.7220458984375
10.3299999,-9.593565940856934,0.7757213711738586,1.8411411046981812,-26.0772705078125,5.645751953125,-3.11279296875
10.3499999,-9.617507934570312,0.8906430602073669,2.3127987384796143,-42.4957275390625,10.6201171875,-2.9449462890625
10.3699999,-9.555258750915527,0.8571242094039917,2.432508945465088,-67.8863525390625,22.27783203125,-7.01904296875
10.389999900000001,-9.727641105651855,0.6392518281936646,2.03507137298584,-75.6378173828125,33.0352783203125,-10.8184814453125
10.4099999,-9.81143856048584,0.2849099934101105,1.414973258972168,-48.4619140625,27.8778076171875,-7.171630859375
10.4299999,-10.02452278137207,-0.14844051003456116,0.49559974670410156,-32.77587890625,23.5748291015625,-4.9591064453125
10.4499999,-10.216058731079102,-0.9481038451194763,-0.8236053586006165,-25.970458984375,22.52197265625,-4.6844482421875
10.469999900000001,-10.338163375854492,-1.5825673341751099,-1.9129672050476074,23.9715576171875,0.885009765625,4.6844482421875
10.4899999,-10.467450141906738,-2.0805611610412598,-3.0334534645080566,75.531005859375,-25.5889892578125,14.09912109375
10.5099999,-10.433931350708008,-2.013523578643799,-3.5170822143554688,91.644287109375,-39.8101806640625,13.18359375
10.5299999,-10.237606048583984,-1.0845733880996704,-2.6623523235321045,78.9947509765625,-40.52734375,7.32421875
10.549999900000001,-9.921571731567383,0.304063618183136,-0.7589619159698486,22.8271484375,-25.1617431640625,-1.4801025390625
10.569999900000001,-9.617507934570312,1.3623007535934448,1.3838485479354858,-50.689697265625,8.880615234375,-13.458251953125
10.5899999,-9.5624418258667,1.6615760326385498,2.736572504043579,-70.49560546875,29.2510986328125,-8.819580078125
10.6099999,-9.533711433410645,0.9696516990661621,2.695871114730835,-26.397705078125,15.9149169921875,5.67626953125
10.629999900000001,-9.818621635437012,-0.12449848651885986,1.3958195447921753,24.2919921875,-4.2877197265625,10.9405517578125
10.649999900000001,-9.979032516479492,-1.0247182846069336,-0.10773907601833344,49.7589111328125,-14.617919921875,9.796142578125
10.6699999,-10.11789608001709,-0.9888052940368652,-0.706289529800415,47.6531982421875,-16.1895751953125,11.1846923828125
10.6899999,-10.050858497619629,-0.33758243918418884,-0.3663128614425659,3.5400390625,-4.08935546875,2.25830078125
10.709999900000001,-9.921571731567383,0.49559974670410156,0.6129156351089478,-48.5992431640625,15.7928466796875,-9.3841552734375
10.729999900000001,-9.84256362915039,0.8643068075180054,1.3000515699386597,-65.9637451171875,26.9317626953125,-10.009765625
10.7499999,-9.854534149169922,0.5195417404174805,0.9816226959228516,-34.423828125,17.9595947265625,1.40380859375
10.7699999,-9.99339771270752,-0.30885201692581177,-0.09816227108240128,24.10888671875,-3.5552978515625,9.735107421875
10.7899999,-10.199298858642578,-1.0582371950149536,-1.4772224426269531,66.2841796875,-21.6064453125,10.0250244140625
10.809999900000001,-10.261548042297363,-1.1779472827911377,-2.188300371170044,74.951171875,-33.172607421875,9.82666015625
10.8299999,-10.194510459899902,-0.7038952708244324,-1.9033904075622559,52.2918701171875,-30.9906005859375,6.04248046875
10.8499999,-10.038887977600098,0.31124621629714966,-0.5267243981361389,16.2353515625,-20.08056640625,-1.89208984375
10.8699999,-9.691728591918945,1.3862427473068237,1.414973258972168,-35.82763671875,-1.678466796875,-7.4920654296875
10.889999900000001,-9.545681953430176,2.013523578643799,3.0142998695373535,-88.714599609375,25.2838134765625,-20.1568603515625
10.9099999,-9.399636268615723,1.8938134908676147,3.84269380569458,-97.0458984375,42.755126953125,-19.59228515625
10.9299999,-9.459490776062012,1.0031704902648926,3.294421434402466,-62.8662109375,42.694091796875,-9.46044921875
10.9499999,-9.715670585632324,-0.42856210470199585,1.5873557329177856,-13.2904052734375,31.768798828125,0.2288818359375
10.969999900000001,-10.005369186401367,-1.6328455209732056,-0.5506663918495178,40.5731201171875,11.8408203125,11.0321044921875
10.9899999,-10.237606048583984,-2.3080103397369385,-2.535459518432617,72.6470947265625,-12.2833251953125,15.7318115234375
11.0099999,-10.424354553222656,-2.1499931812286377,-3.6176388263702393,79.5745849609375,-29.4647216796875,10.833740234375
11.0299999,-10.42195987701416,-1.3694833517074585,-3.5721490383148193,65.643310546875,-35.614013671875,6.011962890625
11.049999900000001,-10.26394271850586,-0.24181437492370605,-2.561795711517334,39.0777587890625,-34.3780517578125,2.0904541015625
11.069999900000001,-10.091560363769531,0.730231523513794,-0.912190854549408,15.31982421875,-27.4505615234375,-6.317138671875
11.0899999,-9.86650562286377,1.5298948287963867,0.9864110946655273,-1.617431640625,-17.059326171875,-8.0718994140625
11.1099999,-9.588777542114258,1.9512743949890137,2.7772738933563232,-36.285400390625,1.9378662109375,-7.4920654296875
11.129999900000001,-9.457097053527832,1.86508309841156,4.046200752258301,-81.9091796875,26.1383056640625,-12.8326416015625
11.149999900000001,-9.390059471130371,1.3263877630233765,4.216189384460449,-99.7467041015625,49.13330078125,-12.5274658203125
11.1699999,-9.476250648498535,0.15562310814857483,3.136404275894165,-65.521240234375,48.4771728515625,-0.9002685546875
11.1899999,-9.804255485534668,-1.072602391242981,0.9552865028381348,0.274658203125,25.146484375,7.8887939453125
11.209999900000001,-10.055646896362305,-2.0422539710998535,-1.4939818382263184,56.94580078125,-3.90625,15.3350830078125
11.229999900000001,-10.359710693359375,-2.2361843585968018,-3.318363666534424,81.54296875,-25.4669189453125,12.3138427734375
11.2499999,-10.42195987701416,-1.6663644313812256,-3.912125587463379,75.0732421875,-35.9039306640625,9.368896484375
11.2699999,-10.374075889587402,-0.5626373887062073,-3.2082302570343018,43.609619140625,-34.85107421875,3.72314453125
11.2899999,-10.137049674987793,0.7230489253997803,-1.3838485479354858,6.7291259765625,-28.5491943359375,-2.8533935546875
11.309999900000001,-9.813833236694336,1.800439715385437,1.0438719987869263,-40.1458740234375,-10.528564453125,-11.8255615234375
11.3299999,-9.485827445983887,2.2170307636260986,3.138798475265503,-91.033935546875,20.0347900390625,-20.6298828125
11.3499999,-9.315838813781738,1.802833914756775,4.168305397033691,-106.99462890625,46.051025390625,-14.923095703125
11.3699999,-9.677363395690918,-0.9289502501487732,1.558625340461731,15.5029296875,17.27294921875,8.819580078125
11.389999900000001,-10.141838073730469,-1.98958158493042,-0.8954314589500427,71.7315673828125,-5.7525634765625,10.3912353515625
11.4099999,-10.295066833496094,-2.3032219409942627,-2.693476915359497,83.404541015625,-23.6663818359375,10.7421875
11.4299999,-10.412383079528809,-1.534683346748352,-3.045424461364746,55.328369140625,-25.7415771484375,6.1492919921875
11.4499999,-10.199298858642578,-0.16998831927776337,-1.922544002532959,1.373291015625,-16.4794921875,0.67138671875
11.469999900000001,-9.93354320526123,1.1013327836990356,0.07661445438861847,-60.6689453125,2.197265625,-10.5438232421875
11.4899999,-9.732429504394531,1.5897499322891235,1.7286136150360107,-91.8426513671875,24.9176025390625,-15.1519775390625
11.5099999,-9.691728591918945,1.0797849893569946,2.3032219409942627,-60.455322265625,28.62548828125,-3.9215087890625
11.5299999,-9.818621635437012,-0.16759411990642548,1.5107412338256836,2.4261474609375,8.6669921875,7.965087890625
11.549999900000001,-10.08198356628418,-1.3431471586227417,-0.09816227108240128,53.1158447265625,-12.14599609375,12.603759765625
11.569999900000001,-10.168174743652344,-1.845929503440857,-1.45806884765625,71.6705322265625,-24.261474609375,16.571044921875
11.5899999,-10.232817649841309,-1.3072341680526733,-1.7262194156646729,54.7943115234375,-25.8636474609375,11.016845703125
11.6099999,-9.99339771270752,0.002394201699644327,-0.7206547260284424,0.9765625,-12.02392578125,1.953125
11.629999900000001,-9.75637149810791,1.2545616626739502,0.9265560507774353,-65.9942626953125,14.7247314453125,-14.7857666015625
11.649999900000001,-9.607931137084961,1.821987509727478,2.2146365642547607,-91.522216796875,35.064697265625,-20.6756591796875
11.6699999,-9.610325813293457,1.3072341680526733,2.31758713722229,-57.2509765625,32.5164794921875,-6.4544677734375
11.6899999,-9.792284965515137,-0.002394201699644327,1.1540051698684692,4.302978515625,12.4969482421875,7.171630859375
11.709999900000001,-10.127472877502441,-1.2641384601593018,-0.6871358752250671,54.0313720703125,-7.8582763671875,12.237548828125
11.729999900000001,-10.213664054870605,-1.7908629179000854,-2.0207061767578125,71.8994140625,-26.7181396484375,14.2364501953125
11.7499999,-10.302249908447266,-1.2042834758758545,-2.185906171798706,52.886962890625,-28.3050537109375,5.9661865234375
11.7699999,-10.031704902648926,-0.019153613597154617,-1.0438719987869263,0.0152587890625,-10.2081298828125,-6.1187744140625
11.7899999,-9.823410034179688,1.0079588890075684,0.5578489899635315,-52.8106689453125,12.7410888671875,-18.218994140625
11.809999900000001,-9.658209800720215,1.2401964664459229,1.656787633895874,-60.72998046875,26.0162353515625,-13.36669921875
11.8299999,-9.703699111938477,0.6153098344802856,1.6328455209732056,-20.538330078125,16.2811279296875,1.708984375
11.8499999,-9.897629737854004,-0.4668693244457245,0.5554547905921936,28.0609130859375,-3.5552978515625,7.904052734375
11.8699999,-10.110713958740234,-1.173158884048462,-0.6631938815116882,58.8836669921875,-18.9208984375,10.55908203125
11.889999900000001,-10.187328338623047,-1.0630255937576294,-1.1276689767837524,52.825927734375,-23.773193359375,7.6751708984375
11.9099999,-10.06043529510498,-0.2944868206977844,-0.524330198764801,3.5400390625,-9.9334716796875,-1.9989013671875
11.9299999,-9.852140426635742,0.5267243981361389,0.6320692300796509,-56.1065673828125,12.6495361328125,-12.87841796875
11.9499999,-9.780313491821289,0.8858546018600464,1.5203180313110352,-71.5179443359375,27.5421142578125,-10.986328125
11.969999900000001,-9.732429504394531,0.4381389021873474,1.5825673341751099,-37.7197265625,19.683837890625,4.150390625
11.9899999,-9.988609313964844,-0.4884171485900879,0.47884035110473633,9.9639892578125,1.9989013671875,9.796142578125
12.0099999,-10.137049674987793,-1.237802267074585,-0.7493851184844971,48.7823486328125,-14.404296875,14.16015625
12.0299999,-10.20887565612793,-1.1204863786697388,-1.3670891523361206,52.1697998046875,-25.9552001953125,12.939453125
12.049999900000001,-10.065223693847656,-0.42856210470199585,-0.993593692779541,8.758544921875,-15.106201171875,1.922607421875
12.069999900000001,-9.926360130310059,0.33758243918418884,-0.1149216815829277,-40.52734375,8.209228515625,-13.7481689453125
12.0899999,-9.6989107131958,0.751779317855835,0.8667010068893433,-38.2232666015625,11.4288330078125,-8.2855224609375
12.1099999,-9.696516990661621,0.4836287498474121,1.1899182796478271,-10.223388671875,5.645751953125,6.3629150390625
12.129999900000001,-9.780313491821289,0.038307227194309235,1.1013327836990356,0.2899169921875,3.3111572265625,9.4146728515625
12.149999900000001,-9.940725326538086,-0.24660277366638184,0.524330198764801,-10.8642578125,4.2724609375,7.598876953125
12.1699999,-9.952696800231934,0.033518824726343155,0.38067805767059326,-25.299072265625,-2.532958984375,6.5765380859375
12.1899999,-9.926360130310059,0.35673606395721436,0.3687070608139038,-47.8515625,0.9307861328125,-6.0272216796875
12.209999900000001,-9.907206535339355,0.47884035110473633,0.4620809257030487,-63.0340576171875,17.4407958984375,-13.1072998046875
12.229999900000001,-9.78989028930664,0.6392518281936646,1.0127472877502441,-57.6019287109375,17.4560546875,0.54931640625
12.2499999,-9.890447616577148,0.1843535304069519,0.8619126081466675,-78.6895751953125,25.8331298828125,6.5155029296875
12.2699999,-10.022128105163574,-0.35673606395721436,0.3016694188117981,-57.7239990234375,21.1639404296875,3.0975341796875
12.289999900000002,-10.232817649841309,-0.9816226959228516,-0.6823474764823914,-0.2288818359375,2.105712890625,2.0904541015625
12.309999900000001,-10.280701637268066,-1.259350061416626,-1.460463047027588,37.384033203125,-18.1427001953125,15.2130126953125
12.3299999,-10.309432983398438,-1.3335703611373901,-1.8962076902389526,25.726318359375,-15.19775390625,11.474609375
12.3499999,-10.199298858642578,-0.6871358752250671,-1.4508862495422363,19.7296142578125,-10.55908203125,4.058837890625
12.3699999,-9.895236015319824,0.1867477297782898,-0.37828385829925537,19.2108154296875,-8.1024169921875,-1.495361328125
12.389999900000001,-9.818621635437012,0.9409212470054626,0.768538773059845,-11.5509033203125,9.307861328125,-11.77978515625
12.4099999,-9.684545516967773,1.3048399686813354,1.5825673341751099,-47.393798828125,24.5361328125,-13.336181640625
12.4299999,-9.797073364257812,1.0031704902648926,1.2473790645599365,-43.182373046875,25.08544921875,-0.5950927734375
12.4499999,-9.95748519897461,0.08858546614646912,0.1173158809542656,10.467529296875,1.64794921875,0.9307861328125
12.469999900000001,-10.14902114868164,-0.8307880163192749,-1.4413094520568848,69.3817138671875,-31.7840576171875,6.9122314453125
12.4899999,-10.24239444732666,-1.2497732639312744,-2.276885747909546,84.320068359375,-35.919189453125,10.6201171875
12.5099999,-10.11789608001709,-0.7326257228851318,-1.6759412288665771,52.4139404296875,-29.2205810546875,8.0108642578125
12.5299999,-9.816226959228516,0.646434485912323,0.4644751250743866,-27.6641845703125,-6.9580078125,-4.6539306640625
12.549999900000001,-9.461885452270508,1.7860745191574097,2.564189910888672,-127.4261474609375,36.7584228515625,-23.5595703125
12.569999900000001,-9.339780807495117,2.231395959854126,3.6559460163116455,-166.0308837890625,62.103271484375,-13.85498046875
12.5899999,-9.442731857299805,1.625662922859192,2.5522189140319824,-115.78369140625,49.25537109375,6.3629150390625
12.6099999,-9.600749015808105,0.5937620401382446,0.4596867263317108,-31.3262939453125,2.01416015625,12.4053955078125
12.629999900000001,-8.913613319396973,-0.4692635238170624,-1.4628572463989258,-1.739501953125,-27.099609375,-4.150390625
12.649999900000001,-8.066065788269043,-1.4460978507995605,-2.585737943649292,-18.829345703125,3.4332275390625,-2.0599365234375
12.6699999,-6.888118267059326,-2.0231003761291504,-1.941697597503662,22.8271484375,-0.579833984375,19.6533203125
12.6899999,-7.316680431365967,-1.8171991109848022,-0.9696516990661621,52.2308349609375,0.3662109375,35.125732421875
12.709999900000001,-8.362946510314941,-0.828393816947937,0.14604631066322327,-6.9732666015625,27.03857421875,19.1192626953125
12.729999900000001,-10.44350814819336,0.9576807022094727,0.9768342971801758,-88.19580078125,42.938232421875,3.2806396484375
12.7499999,-11.815385818481445,1.9081788063049316,0.569819986820221,-95.3521728515625,37.3992919921875,-40.374755859375
12.7699999,-12.63899040222168,1.5538369417190552,-0.5099649429321289,-20.6756591796875,3.1585693359375,-8.48388671875
12.789999900000002,-12.660538673400879,-0.090979665517807,-2.0829553604125977,61.4471435546875,-21.1334228515625,17.0135498046875
12.809999900000001,-12.368446350097656,-2.0805611610412598,-3.090914487838745,110.198974609375,-39.0625,22.8424072265625
12.8299999,-11.489773750305176,-2.513911724090576,-2.3104045391082764,109.06982421875,-38.4063720703125,52.7496337890625
12.8499999,-10.527304649353027,-1.3215993642807007,-0.6775590777397156,29.876708984375,4.4403076171875,27.9693603515625
12.8699999,-9.62947940826416,0.6703764796257019,1.0295066833496094,-68.66455078125,52.703857421875,-27.6947021484375
12.889999900000001,-9.485827445983887,2.054224967956543,1.1420341730117798,-94.42138671875,53.680419921875,-64.4073486328125
12.9099999,-10.050858497619629,2.1284453868865967,0.31842881441116333,-36.2091064453125,-1.3275146484375,-6.256103515625
12.9299999,-10.687716484069824,0.8020575642585754,-1.4245500564575195,26.641845703125,-41.9921875,32.5469970703125
12.9499999,-10.958261489868164,-0.2298433631658554,-2.1595699787139893,58.2427978515625,-30.5633544921875,34.8358154296875
12.969999900000001,-10.821791648864746,-0.5027823448181152,-1.8914192914962769,45.8526611328125,-18.0511474609375,2.25830078125
12.9899999,-10.467450141906738,0.06703764945268631,-0.9672574996948242,19.317626953125,-7.537841796875,-15.8538818359375
13.0099999,-10.165780067443848,0.8667010068893433,-0.035913024097681046,-3.448486328125,-0.5035400390625,-4.2724609375
13.0299999,-9.99339771270752,1.414973258972168,0.7038952708244324,-18.0816650390625,3.662109375,0.0457763671875
13.049999900000001,-10.57040023803711,1.292868971824646,0.7924807667732239,-27.0538330078125,5.1727294921875,-9.9334716796875
13.069999900000001,-10.771512985229492,0.8810662031173706,0.5817909836769104,-8.4686279296875,3.753662109375,-12.8936767578125
13.0899999,-11.365275382995605,0.3663128614425659,0.014365210197865963,15.0604248046875,1.373291015625,9.9945068359375
13.1099999,-11.860875129699707,-0.1604115068912506,-0.646434485912323,26.30615234375,-9.796142578125,1.6937255859375
13.129999900000001,-11.03248119354248,-0.2585737705230713,-1.0103530883789062,28.3660888671875,-18.49365234375,-11.810302734375
13.149999900000001,-11.39400577545166,-0.0933738648891449,-1.015141487121582,21.4080810546875,-9.4451904296875,3.5400390625
13.1699999,-10.512939453125,0.014365210197865963,-0.8858546018600464,17.9595947265625,-17.1051025390625,-15.2740478515625
13.1899999,-10.663774490356445,0.21308395266532898,-0.5267243981361389,18.707275390625,-15.8843994140625,-2.044677734375
13.209999900000001,-10.438719749450684,0.33279404044151306,-0.22744916379451752,17.1661376953125,-17.242431640625,5.4168701171875
13.229999900000001,-10.096348762512207,0.5602431893348694,0.10055647045373917,13.4735107421875,-3.84521484375,-14.0533447265625
13.2499999,-9.63187313079834,0.7493851184844971,0.3232172429561615,10.9100341796875,10.284423828125,-29.23583984375
13.2699999,-9.097966194152832,0.8690952062606812,0.4357447028160095,8.4228515625,12.8631591796875,-23.345947265625
13.289999900000002,-8.547300338745117,0.7924807667732239,0.3902548849582672,5.645751953125,9.002685546875,-7.14111328125
13.309999900000001,-8.099584579467773,0.5817909836769104,0.2537853717803955,5.3863525390625,6.317138671875,3.4942626953125
13.3299999,-7.836222171783447,0.304063618183136,0.10773907601833344,8.36181640625,8.60595703125,3.1280517578125
13.3499999,-7.82185697555542,0.043095629662275314,-0.011971008032560349,12.1612548828125,9.6893310546875,-2.166748046875
13.3699999,-7.999027729034424,-0.1628057211637497,-0.07900865375995636,13.5345458984375,6.0577392578125,-5.2337646484375
13.389999900000001,-8.291120529174805,-0.2968810200691223,-0.12449848651885986,13.7786865234375,5.096435546875,-8.544921875
13.4099999,-8.628703117370605,-0.3734954595565796,-0.15801730751991272,15.3656005859375,7.2021484375,-10.19287109375
13.4299999,-8.983044624328613,-0.38546648621559143,-0.1867477297782898,16.021728515625,7.8887939453125,-6.0577392578125
13.4499999,-9.313444137573242,-0.3519476354122162,-0.2082955539226532,14.34326171875,7.62939453125,-0.030517578125
13.469999900000001,-9.643844604492188,-0.2537853717803955,-0.2106897532939911,12.115478515625,6.591796875,2.532958984375
13.4899999,-9.916783332824707,-0.12689268589019775,-0.1843535304069519,10.467529296875,5.096435546875,0.2288818359375
13.5099999,-10.127472877502441,-0.002394201699644327,-0.14844051003456116,8.6822509765625,5.828857421875,-2.3193359375
13.5299999,-10.251971244812012,0.06703764945268631,-0.11252748221158981,7.293701171875,6.8206787109375,-1.7852783203125
13.549999900000001,-10.273519515991211,0.06224924325942993,-0.08619125932455063,7.5531005859375,4.669189453125,-0.1068115234375
13.569999900000001,-10.220847129821777,-0.0071826050989329815,-0.05027823522686958,9.185791015625,3.41796875,1.5411376953125
13.5899999,-10.163386344909668,-0.12689268589019775,-0.014365210197865963,9.613037109375,4.150390625,4.2724609375
13.6099999,-10.156203269958496,-0.24899697303771973,0.05746084079146385,8.3770751953125,0.1220703125,5.767822265625
13.629999900000001,-10.196905136108398,-0.363918662071228,0.17717093229293823,6.5155029296875,-6.9580078125,1.52587890625
13.649999900000001,-10.235212326049805,-0.49559974670410156,0.33518823981285095,4.241943359375,-9.552001953125,-5.218505859375
13.6699999,-10.254365921020508,-0.6177040338516235,0.5291185975074768,0.9002685546875,-9.9029541015625,-7.5836181640625
13.6899999,-10.244789123535156,-0.7350199222564697,0.6967126727104187,-1.5411376953125,-9.1094970703125,-10.9405517578125
13.709999900000001,-10.196905136108398,-0.8523358106613159,0.8044517636299133,-1.15966796875,-12.3443603515625,-14.801025390625
13.729999900000001,-10.110713958740234,-0.9002198576927185,0.8307880163192749,-0.9613037109375,-22.8424072265625,-11.1236572265625
13.7499999,-9.93354320526123,-0.8523358106613159,0.7757213711738586,-2.9144287109375,-28.717041015625,-6.7138671875
13.7699999,-9.667786598205566,-0.7182605266571045,0.6488286852836609,-5.9814453125,-23.193359375,-6.40869140625
13.789999900000002,-9.406818389892578,-0.49320554733276367,0.47165772318840027,-9.5977783203125,-16.0675048828125,-3.448486328125
13.809999900000001,-9.251194953918457,-0.21787235140800476,0.2322375625371933,-13.85498046875,-10.43701171875,-0.5035400390625
13.8299999,-9.255983352661133,0.014365210197865963,-0.05746084079146385,-17.6239013671875,-1.5106201171875,-1.434326171875
13.8499999,-9.430760383605957,0.19393034279346466,-0.363918662071228,-19.1497802734375,6.439208984375,1.6021728515625
13.8699999,-9.734824180603027,0.2777273952960968,-0.6727706789970398,-17.181396484375,10.4827880859375,5.6915283203125
13.889999900000001,-10.043676376342773,0.2561795711517334,-0.9481038451194763,-10.43701171875,8.9569091796875,4.1046142578125
13.9099999,-10.237606048583984,0.15322890877723694,-1.1348515748977661,-1.2969970703125,3.143310546875,2.5634765625
13.9299999,-10.287884712219238,-0.002394201699644327,-1.1875240802764893,6.0882568359375,-0.4730224609375,7.75146484375
13.9499999,-10.225635528564453,-0.15322890877723694,-1.1109095811843872,10.3607177734375,-0.79345703125,14.16015625
13.969999900000001,-10.074800491333008,-0.2777273952960968,-0.8762778043746948,12.4053955078125,-6.8511962890625,13.946533203125
13.9899999,-9.9000244140625,-0.33758243918418884,-0.5291185975074768,12.14599609375,-9.7198486328125,8.5296630859375
14.0099999,-9.730035781860352,-0.3280056416988373,-0.13407529890537262,8.9263916015625,-1.373291015625,5.06591796875
14.0299999,-9.706093788146973,-0.2825157940387726,0.2537853717803955,4.0435791015625,4.4708251953125,5.8441162109375
14.049999900000001,-9.955090522766113,-0.29209262132644653,0.5147533416748047,1.983642578125,-2.9449462890625,0.8087158203125
14.069999900000001,-10.326191902160645,-0.35913026332855225,0.5410895943641663,4.82177734375,-2.532958984375,-12.603759765625
14.0899999,-10.716446876525879,-0.395043283700943,0.40462008118629456,5.615234375,1.5106201171875,1.9378662109375
14.1099999,-10.831368446350098,-0.35673606395721436,0.08619125932455063,6.34765625,-4.2572021484375,2.7313232421875
14.129999900000001,-10.699687004089355,-0.2298433631658554,-0.2082955539226532,10.8489990234375,-9.796142578125,-5.8441162109375
14.149999900000001,-10.412383079528809,-0.08858546614646912,-0.3208230137825012,14.3280029296875,-11.5509033203125,-7.415771484375
14.1699999,-10.180145263671875,-0.0071826050989329815,-0.22505496442317963,10.9710693359375,-10.43701171875,-4.058837890625
14.1899999,-9.974244117736816,-0.047884032130241394,0.08379705995321274,6.8817138671875,-8.1024169921875,-2.8076171875
14.209999900000001,-9.835380554199219,-0.0933738648891449,0.5339069962501526,3.692626953125,-4.21142578125,-3.5552978515625
14.229999900000001,-9.718064308166504,-0.13168109953403473,1.0127472877502441,-0.8087158203125,1.708984375,-5.2337646484375
14.2499999,-9.703699111938477,-0.14844051003456116,1.434126853942871,-11.29150390625,8.514404296875,-6.317138671875
14.2699999,-9.691728591918945,-0.2585737705230713,1.6136919260025024,-17.7764892578125,14.22119140625,-5.767822265625
14.289999900000002,-9.780313491821289,-0.42856210470199585,1.5059528350830078,-12.14599609375,16.357421875,-2.1514892578125
14.309999900000001,-9.830592155456543,-0.6584054827690125,1.1300631761550903,-2.716064453125,15.2435302734375,2.2430419921875
14.3299999,-9.964667320251465,-0.7613561153411865,0.5051765441894531,1.983642578125,15.07568359375,4.45556640625
14.3499999,-10.043676376342773,-0.7829039692878723,-0.21547815203666687,5.157470703125,13.18359375,7.965087890625
14.3699999,-10.230423927307129,-0.6991068720817566,-0.8667010068893433,12.8936767578125,3.7078857421875,8.9874267578125
14.389999900000001,-10.280701637268066,-0.4620809257030487,-1.2282254695892334,20.2178955078125,-10.5438232421875,8.758544921875
14.4099999,-10.211270332336426,-0.22744916379451752,-1.2737152576446533,16.6778564453125,-14.3890380859375,4.302978515625
14.4299999,-10.165780067443848,0.016759412363171577,-0.9840168952941895,15.0146484375,-8.1939697265625,-4.7454833984375
14.4499999,-9.979032516479492,0.21547815203666687,-0.4381389021873474,17.9901123046875,-7.2784423828125,-4.9285888671875
14.469999900000001,-9.926360130310059,0.4405331015586853,0.2753331959247589,9.33837890625,-0.823974609375,0.0152587890625
14.4899999,-9.849745750427246,0.6033388376235962,0.9193734526634216,-8.6669921875,8.941650390625,-3.3111572265625
14.5099999,-9.8784761428833,0.5937620401382446,1.3694833517074585,-15.93017578125,12.8936767578125,-7.32421875
14.5299999,-9.873687744140625,0.49799394607543945,1.5394717454910278,-13.9007568359375,9.1552734375,-5.2947998046875
14.549999900000001,-9.859322547912598,0.15562310814857483,1.3000515699386597,-17.1051025390625,13.3514404296875,-6.16455078125
14.569999900000001,-9.923966407775879,-0.2944868206977844,0.828393816947937,-16.11328125,18.3563232421875,-6.317138671875
14.5899999,-9.914389610290527,-0.7134721279144287,0.2968810200691223,-8.36181640625,15.3045654296875,-1.4495849609375
14.6099999,-9.897629737854004,-0.9864110946655273,-0.304063618183136,-1.220703125,14.251708984375,3.509521484375
14.629999900000001,-10.022128105163574,-1.0797849893569946,-0.6823474764823914,6.0577392578125,7.7056884765625,8.7127685546875
14.649999900000001,-9.998186111450195,-0.8810662031173706,-0.8427590131759644,7.2021484375,0.8544921875,10.833740234375
14.6699999,-10.050858497619629,-0.5147533416748047,-0.7445967197418213,2.1820068359375,-0.7476806640625,4.7607421875
14.6899999,-10.125079154968262,-0.2849099934101105,-0.7469909191131592,-0.8087158203125,2.38037109375,-4.5318603515625
14.709999900000001,-10.06043529510498,-0.14604631066322327,-0.569819986820221,6.9580078125,-4.5623779296875,-0.48828125
14.729999900000001,-10.041281700134277,-0.021547814831137657,-0.3734954595565796,4.058837890625,-2.5482177734375,11.16943359375
14.7499999,-9.93593692779541,0.07182604819536209,-0.004788403399288654,-21.4691162109375,6.8511962890625,5.18798828125
14.7699999,-9.780313491821289,0.44771572947502136,0.6248866319656372,-41.1834716796875,16.1590576171875,2.685546875
14.789999900000002,-9.797073364257812,0.6057330369949341,0.8379706144332886,-51.45263671875,18.2342529296875,3.9520263671875
14.809999900000001,-9.832986831665039,0.569819986820221,0.768538773059845,-43.487548828125,14.46533203125,-5.3863525390625
14.8299999,-9.854534149169922,0.21547815203666687,0.19393034279346466,-13.9617919921875,6.988525390625,-4.94384765625
14.8499999,-10.038887977600098,-0.18914192914962769,-0.45010992884635925,9.735107421875,7.1258544921875,-2.685546875
14.8699999,-10.0580415725708,-0.7015010714530945,-1.173158884048462,15.93017578125,3.60107421875,2.7008056640625
14.889999900000001,-10.156203269958496,-0.9217676520347595,-1.4460978507995605,15.5029296875,-1.7852783203125,3.8604736328125
14.9099999,-10.268731117248535,-1.0630255937576294,-1.7741034030914307,15.106201171875,-8.97216796875,4.6844482421875
14.9299999,-10.3549222946167,-1.0271124839782715,-1.7357962131500244,34.5611572265625,-17.578125,12.6495361328125
14.9499999,-10.235212326049805,-0.6440402865409851,-1.5083470344543457,43.9453125,-23.2391357421875,11.0626220703125
14.969999900000001,-10.1753568649292,-0.12928688526153564,-0.9648633003234863,31.6619873046875,-24.0631103515625,-1.1444091796875
14.9899999,-9.828198432922363,0.6344634294509888,0,8.270263671875,-13.8092041015625,-7.4005126953125
15.0099999,-9.672574996948242,1.3431471586227417,1.161187767982483,-29.6478271484375,5.2947998046875,-1.922607421875
15.0299999,-9.53849983215332,1.6927006244659424,2.056619167327881,-75.469970703125,22.3846435546875,-9.21630859375
15.049999900000001,-9.588777542114258,1.3982137441635132,2.274491548538208,-82.6873779296875,28.8848876953125,-11.871337890625
15.069999900000001,-10.017339706420898,-0.5746083855628967,0.29209262132644653,18.4173583984375,7.2021484375,3.2806396484375
15.0899999,-10.189722061157227,-1.534683346748352,-1.2737152576446533,54.0008544921875,-4.791259765625,4.0130615234375
15.1099999,-10.247182846069336,-1.8363527059555054,-2.27209734916687,62.2100830078125,-17.39501953125,5.4931640625
15.129999900000001,-10.182539939880371,-1.2713210582733154,-2.1978771686553955,37.90283203125,-16.1895751953125,8.056640625
15.149999900000001,-10.034099578857422,-0.2585737705230713,-1.3718775510787964,-21.2860107421875,-5.3253173828125,4.4403076171875
15.1699999,-9.998186111450195,0.608127236366272,-0.3064578175544739,-66.7724609375,10.406494140625,-7.3394775390625
15.1899999,-9.943120002746582,1.015141487121582,0.4357447028160095,-46.3714599609375,4.57763671875,-7.843017578125
15.209999900000001,-10.070012092590332,0.6009446382522583,0.37828385829925537,1.2054443359375,-7.0953369140625,-2.3193359375
15.229999900000001,-10.074800491333008,-0.12928688526153564,-0.15083470940589905,33.7677001953125,-9.9639892578125,0.152587890625
15.2499999,-10.137049674987793,-0.7110779285430908,-0.5889736413955688,48.1109619140625,-12.2833251953125,1.9378662109375
15.2699999,-10.017339706420898,-0.7110779285430908,-0.5913678407669067,33.9813232421875,-13.6566162109375,4.150390625
15.289999900000002,-9.9000244140625,-0.26336219906806946,-0.028730420395731926,-9.9639892578125,-4.1351318359375,3.997802734375
15.309999900000001,-9.86650562286377,0.272938996553421,0.5602431893348694,-52.5970458984375,12.3443603515625,-4.547119140625
15.3299999,-9.81143856048584,0.5530605912208557,0.9409212470054626,-42.572021484375,11.322021484375,-6.683349609375
15.3499999,-9.919178009033203,0.36152446269989014,0.6440402865409851,-2.4261474609375,-0.48828125,-6.1187744140625
15.3699999,-10.019734382629395,-0.26096799969673157,-0.17477671802043915,37.5213623046875,-9.58251953125,-3.753662109375
15.389999900000001,-10.101137161254883,-0.7015010714530945,-0.8307880163192749,62.6373291015625,-11.77978515625,0
15.4099999,-10.04846477508545,-0.7876923680305481,-0.9816226959228516,52.154541015625,-15.0909423828125,3.2196044921875
15.4299999,-9.971850395202637,-0.35673606395721436,-0.42856210470199585,7.32421875,-4.8675537109375,2.8533935546875
15.4499999,-9.892841339111328,0.09576806426048279,0.26575639843940735,-37.78076171875,6.988525390625,-1.9683837890625
15.469999900000001,-9.919178009033203,0.40462008118629456,0.7541735172271729,-38.330078125,8.3770751953125,-4.39453125
15.4899999,-9.947908401489258,0.2513911724090576,0.727837324142456,-6.1187744140625,-1.8157958984375,0.0152587890625
15.5099999,-10.072406768798828,-0.2082955539226532,0.2298433631658554,22.6287841796875,-8.6517333984375,0.30517578125
15.5299999,-10.050858497619629,-0.5123591423034668,-0.19153612852096558,34.5306396484375,-5.7525634765625,0.762939453125
15.549999900000001,-9.99339771270752,-0.5578489899635315,-0.31124621629714966,22.0489501953125,-4.0130615234375,1.8768310546875
15.569999900000001,-9.880870819091797,-0.2346317619085312,0.014365210197865963,-7.2021484375,1.89208984375,1.0528564453125
15.5899999,-9.876082420349121,0.14844051003456116,0.4357447028160095,-34.6832275390625,8.8043212890625,-1.5106201171875
15.6099999,-9.84256362915039,0.42856210470199585,0.8020575642585754,-40.0848388671875,10.589599609375,-2.62451171875
15.629999900000001,-9.955090522766113,0.4381389021873474,0.8259995579719543,-26.947021484375,8.148193359375,-2.38037109375
15.649999900000001,-9.976638793945312,0.06703764945268631,0.42377370595932007,-6.256103515625,3.7841796875,-6.3629150390625
15.6699999,-10.108319282531738,-0.28969839215278625,-0.1149216815829277,15.3656005859375,2.777099609375,-4.8828125
15.6899999,-10.06043529510498,-0.7038952708244324,-0.6440402865409851,24.169921875,-0.5035400390625,-0.335693359375
15.709999900000001,-10.093954086303711,-0.751779317855835,-0.9050082564353943,20.5078125,-3.2196044921875,2.9296875
15.729999900000001,-10.055646896362305,-0.7134721279144287,-0.9792284965515137,16.5863037109375,-8.1787109375,2.960205078125
15.7499999,-10.02691650390625,-0.2585737705230713,-0.45010992884635925,14.312744140625,-10.589599609375,4.7149658203125
15.7699999,-9.971850395202637,0.19632454216480255,0.1173158809542656,-17.852783203125,-6.2713623046875,4.8675537109375
15.789999900000002,-9.854534149169922,0.6488286852836609,0.9217676520347595,-59.4940185546875,4.1046142578125,-7.4310302734375
15.809999900000001,-9.763554573059082,0.7876923680305481,1.3646949529647827,-70.9075927734375,17.2882080078125,-14.1754150390625
15.8299999,-9.634267807006836,0.545877993106842,1.400607943534851,-54.931640625,21.3623046875,-7.3699951171875
15.8499999,-9.710882186889648,-0.10295066982507706,0.8906430602073669,-29.4189453125,19.04296875,2.8839111328125
15.869999900000002,-9.782708168029785,-0.7398083209991455,0.22505496442317963,-8.97216796875,8.1939697265625,6.3934326171875
15.889999900000001,-10.012551307678223,-1.4101848602294922,-0.7015010714530945,-0.1220703125,6.927490234375,6.9427490234375
15.9099999,-10.27591323852539,-1.6519991159439087,-1.5107412338256836,29.296875,-4.82177734375,12.87841796875
15.9299999,-10.333374977111816,-1.5298948287963867,-1.9345149993896484,47.637939453125,-19.59228515625,13.0767822265625
15.9499999,-10.38844108581543,-1.1037269830703735,-2.1787235736846924,47.30224609375,-24.566650390625,6.3323974609375
15.969999900000001,-10.216058731079102,-0.3734954595565796,-1.6903064250946045,50.9796142578125,-24.0478515625,1.3427734375
15.9899999,-10.067618370056152,0.4644751250743866,-0.7565677165985107,42.41943359375,-21.1944580078125,3.8299560546875
16.0099999,-9.852140426635742,1.1659762859344482,0.5410895943641663,-0.1373291015625,-8.7738037109375,-3.9215087890625
16.0299999,-9.749189376831055,1.5059528350830078,1.6065093278884888,-48.33984375,8.758544921875,-8.8958740234375
16.0499999,-9.734824180603027,1.0989385843276978,1.9632453918457031,-45.5780029296875,14.801025390625,-7.843017578125
16.0699999,-9.849745750427246,0.3280056416988373,1.4963760375976562,11.0015869140625,3.4332275390625,1.5106201171875
16.089999900000002,-9.981427192687988,-0.7469909191131592,0.4141969084739685,56.0760498046875,-10.9710693359375,6.53076171875
16.109999900000002,-10.110713958740234,-1.359906554222107,-0.6033388376235962,64.239501953125,-14.2364501953125,5.340576171875
16.1299999,-10.067618370056152,-1.1827356815338135,-0.7948749661445618,52.154541015625,-14.312744140625,7.4920654296875
16.1499999,-9.981427192687988,-0.3519476354122162,-0.31124621629714966,6.2713623046875,-5.6915283203125,5.828857421875
16.1699999,-9.792284965515137,0.5985504388809204,0.6871358752250671,-53.4515380859375,8.5601806640625,-2.716064453125
16.1899999,-9.84256362915039,1.278503656387329,1.4269442558288574,-76.84326171875,19.6990966796875,-7.8277587890625
16.2099999,-9.84256362915039,1.0749965906143188,1.3503297567367554,-47.4395751953125,14.739990234375,-5.9661865234375
16.2299999,-9.986215591430664,0.3423708379268646,0.5530605912208557,12.2833251953125,0.8697509765625,0.2899169921875
16.249999900000002,-10.105925559997559,-0.6344634294509888,-0.6272808313369751,54.0618896484375,-12.0697021484375,3.692626953125
16.269999900000002,-10.160991668701172,-1.1204863786697388,-1.3096283674240112,64.239501953125,-17.578125,7.01904296875
16.2899999,-10.065223693847656,-0.7996633648872375,-1.0247182846069336,36.376953125,-13.275146484375,8.72802734375
16.3099999,-9.926360130310059,-0.011971008032560349,0.06224924325942993,-24.8870849609375,1.5106201171875,-0.244140625
16.3299999,-9.816226959228516,0.8092401623725891,1.1803414821624756,-69.915771484375,22.1099853515625,-8.5296630859375
16.3499999,-9.734824180603027,1.094150185585022,1.7525556087493896,-58.685302734375,22.552490234375,-5.8135986328125
16.3699999,-9.907206535339355,0.6943184733390808,1.3311761617660522,-13.4124755859375,9.9639892578125,-4.3487548828125
16.3899999,-9.962273597717285,-0.10295066982507706,0.2059013396501541,32.4554443359375,-1.3580322265625,-1.89208984375
16.4099999,-10.129867553710938,-0.6943184733390808,-0.7852981686592102,56.1676025390625,-9.490966796875,1.1749267578125
16.429999900000002,-10.113107681274414,-0.6991068720817566,-1.0773907899856567,43.4722900390625,-11.138916015625,3.0364990234375
16.4499999,-10.012551307678223,-0.2585737705230713,-0.5410895943641663,-5.92041015625,-0.3814697265625,-2.2430419921875
16.4699999,-9.938331604003906,0.3423708379268646,0.38307225704193115,-52.154541015625,13.4124755859375,-7.14111328125
16.4899999,-9.84256362915039,0.6440402865409851,1.137245774269104,-58.8531494140625,19.8822021484375,-4.7149658203125
16.5099999,-9.876082420349121,0.36152446269989014,1.0103530883789062,-30.8990478515625,13.00048828125,-2.960205078125
16.5299999,-9.962273597717285,-0.20350714027881622,0.2801215946674347,15.869140625,1.373291015625,-1.03759765625
16.5499999,-10.067618370056152,-0.727837324142456,-0.7158663272857666,52.459716796875,-9.4146728515625,1.3580322265625
16.5699999,-10.086771965026855,-0.6943184733390808,-1.0031704902648926,52.3834228515625,-15.106201171875,3.0364990234375
16.589999900000002,-10.002974510192871,-0.31124621629714966,-0.6584054827690125,-0.9002685546875,-1.40380859375,-0.48828125
16.609999900000002,-9.852140426635742,0.26096799969673157,0.19153612852096558,-47.0733642578125,9.2620849609375,-5.5389404296875
16.6299999,-9.744400978088379,0.6823474764823914,1.1779472827911377,-54.0771484375,15.777587890625,-4.547119140625
16.6499999,-9.615114212036133,0.9313444495201111,1.7693150043487549,-61.492919921875,19.012451171875,1.708984375
16.6699999,-9.80904483795166,0.689530074596405,1.5634137392044067,-90.88134765625,30.487060546875,-5.55419921875
16.6899999,-9.890447616577148,0.2513911724090576,0.6775590777397156,-75.68359375,28.3203125,-6.7901611328125
16.7099999,-10.139444351196289,-0.395043283700943,-0.5650315880775452,-13.1988525390625,3.204345703125,-4.119873046875
16.7299999,-10.220847129821777,-1.2018892765045166,-1.8195933103561401,39.2608642578125,-10.589599609375,0.335693359375
16.749999900000002,-10.302249908447266,-1.6112977266311646,-2.2433669567108154,53.77197265625,-10.894775390625,3.265380859375
16.769999900000002,-10.146626472473145,-1.5131354331970215,-1.7932571172714233,39.031982421875,-9.613037109375,13.153076171875
16.7899999,-10.120290756225586,-1.3646949529647827,-1.335964560508728,16.4947509765625,-1.7852783203125,10.8642578125
16.8099999,-10.11550235748291,-0.7613561153411865,-0.7565677165985107,38.39111328125,-10.498046875,9.5672607421875
16.8299999,-10.070012092590332,-0.26336219906806946,-0.6416460275650024,54.9774169921875,-21.17919921875,8.7890625
16.8499999,-10.125079154968262,0.3711012601852417,-0.5051765441894531,45.745849609375,-18.768310546875,1.8768310546875
16.8699999,-10.022128105163574,1.0749965906143188,-0.090979665517807,27.618408203125,-14.83154296875,-7.6446533203125
16.8899999,-9.885659217834473,1.6496049165725708,0.7422025203704834,-1.220703125,-4.669189453125,-12.0391845703125
16.9099999,-9.730035781860352,1.742978811264038,1.6687586307525635,-43.5028076171875,11.1541748046875,-15.167236328125
16.929999900000002,-9.667786598205566,1.2330138683319092,2.1092917919158936,-69.915771484375,27.3590087890625,-12.237548828125
16.9499999,-9.761159896850586,0.12928688526153564,1.6879122257232666,-40.6036376953125,25.726318359375,0.3204345703125
16.9699999,-9.943120002746582,-1.1228805780410767,0.40222588181495667,24.3988037109375,3.8299560546875,10.4522705078125
16.9899999,-10.14902114868164,-1.9560627937316895,-1.2425906658172607,69.915771484375,-16.5863037109375,14.83154296875
17.0099999,-10.27591323852539,-1.900996208190918,-2.298433542251587,71.71630859375,-25.8941650390625,11.7645263671875
17.0299999,-10.18493366241455,-0.9074024558067322,-2.0422539710998535,43.9605712890625,-24.9481201171875,5.0201416015625
17.0499999,-9.995792388916016,0.33997663855552673,-0.871489405632019,-13.397216796875,-8.8348388671875,-3.997802734375
17.0699999,-9.739612579345703,1.2880805730819702,0.6823474764823914,-61.1572265625,10.1776123046875,-11.6729736328125
17.089999900000002,-9.713275909423828,1.2880805730819702,1.4867992401123047,-57.6019287109375,19.83642578125,-6.3629150390625
17.109999900000002,-9.742006301879883,0.5554547905921936,1.314416766166687,-3.1890869140625,3.90625,5.0506591796875
17.1299999,-9.943120002746582,-0.5027823448181152,0.2992752194404602,47.4700927734375,-13.092041015625,8.3465576171875
17.1499999,-10.04846477508545,-1.1109095811843872,-0.6512228846549988,64.8193359375,-20.660400390625,9.4451904296875
17.1699999,-10.08198356628418,-0.7661445140838623,-0.6847416758537292,46.295166015625,-18.73779296875,7.354736328125
17.1899999,-9.892841339111328,0.22266076505184174,0.2585737705230713,-13.824462890625,-2.4261474609375,-3.0975341796875
17.2099999,-9.770736694335938,1.2473790645599365,1.5682021379470825,-83.9385986328125,26.123046875,-15.7012939453125
17.2299999,-9.607931137084961,1.5945383310317993,2.3989901542663574,-104.095458984375,41.4276123046875,-15.5487060546875
17.249999900000002,-9.679757118225098,1.0223240852355957,2.03507137298584,-60.6231689453125,33.4320068359375,-3.7994384765625
17.269999900000002,-9.854534149169922,-0.12449848651885986,0.5339069962501526,3.4637451171875,12.1307373046875,4.241943359375
17.2899999,-10.074800491333008,-1.0797849893569946,-1.2545616626739502,48.583984375,-8.23974609375,8.4991455078125
17.3099999,-10.196905136108398,-1.4532804489135742,-2.47560453414917,54.901123046875,-21.6064453125,3.6163330078125
17.3299999,-10.218452453613281,-1.094150185585022,-2.4875755310058594,37.2772216796875,-21.17919921875,-1.7852783203125
17.3499999,-10.110713958740234,-0.4812345504760742,-1.7357962131500244,-3.3721923828125,-7.843017578125,-1.2664794921875
17.3699999,-9.955090522766113,0.016759412363171577,-0.4381389021873474,-22.7203369140625,-4.1656494140625,-0.1373291015625
17.3899999,-9.84495735168457,0.2585737705230713,0.629675030708313,-14.22119140625,-0.9765625,1.3580322265625
17.409999900000003,-9.746794700622559,0.363918662071228,1.4293384552001953,-14.1448974609375,3.41796875,6.3934326171875
17.429999900000002,-9.806650161743164,0.26096799969673157,1.580173134803772,-45.196533203125,14.0228271484375,-0.18310546875
17.4499999,-9.883264541625977,0.2537853717803955,1.3239935636520386,-45.7000732421875,14.0838623046875,-0.457763671875
17.4699999,-9.986215591430664,0.15083470940589905,0.6129156351089478,-16.632080078125,7.171630859375,0.9765625
17.4899999,-10.046070098876953,-0.09816227108240128,-0.2346317619085312,11.90185546875,-0.54931640625,-4.7607421875
17.5099999,-10.156203269958496,-0.2968810200691223,-0.706289529800415,24.2767333984375,-3.4027099609375,-5.0506591796875
17.5299999,-10.08198356628418,-0.5195417404174805,-0.768538773059845,11.016845703125,-3.9215087890625,6.683349609375
17.5499999,-10.213664054870605,-0.8164227604866028,-0.8020575642585754,-3.3416748046875,0.579833984375,6.65283203125
17.5699999,-10.17296314239502,-0.9552865028381348,-0.7829039692878723,23.712158203125,-7.9498291015625,10.5438232421875
17.589999900000002,-10.199298858642578,-0.8930372595787048,-0.9552865028381348,52.2003173828125,-21.97265625,12.451171875
17.609999900000002,-10.158597946166992,-0.3471592366695404,-0.9074024558067322,50.6591796875,-22.1099853515625,6.5765380859375
17.6299999,-10.002974510192871,0.6177040338516235,-0.14365209639072418,23.223876953125,-15.655517578125,-1.953125
17.6499999,-9.78989028930664,1.5682021379470825,1.115697979927063,-30.670166015625,3.1280517578125,-13.7786865234375
17.6699999,-9.617507934570312,2.013523578643799,2.3367409706115723,-79.52880859375,29.23583984375,-22.5067138671875
17.6899999,-9.464279174804688,1.4748282432556152,2.779668092727661,-83.67919921875,41.0003662109375,-10.7269287109375
17.7099999,-9.593565940856934,0.16998831927776337,1.9129672050476074,-35.247802734375,30.7464599609375,5.2337646484375
17.7299999,-9.856928825378418,-1.2425906658172607,0.10773907601833344,35.5987548828125,6.7901611328125,17.15087890625
17.749999900000002,-10.129867553710938,-2.0446481704711914,-1.7381904125213623,75.86669921875,-17.333984375,21.2249755859375
17.769999900000002,-10.311826705932617,-1.9536685943603516,-2.7892448902130127,71.7315673828125,-26.0467529296875,13.7176513671875
17.7899999,-10.259154319763184,-0.8259995579719543,-2.296039342880249,46.2799072265625,-23.3001708984375,7.171630859375
17.8099999,-10.010157585144043,0.4668693244457245,-0.8044517636299133,-8.5601806640625,-3.997802734375,-2.8533935546875
17.8299999,-9.758766174316406,1.4413094520568848,0.9696516990661621,-58.2427978515625,20.5535888671875,-10.528564453125
17.8499999,-9.682151794433594,1.6615760326385498,1.9177556037902832,-65.185546875,31.585693359375,-4.33349609375
17.8699999,-9.818621635437012,1.1300631761550903,1.5897499322891235,-29.84619140625,20.20263671875,2.7618408203125
17.8899999,-9.995792388916016,0.33039984107017517,0.24660277366638184,18.341064453125,-1.28173828125,5.3253173828125
17.909999900000003,-10.223240852355957,-0.31124621629714966,-1.2641384601593018,46.5087890625,-18.4326171875,1.251220703125
17.929999900000002,-10.216058731079102,-0.4118026793003082,-1.8555063009262085,50.9033203125,-24.7039794921875,-3.35693359375
17.9499999,-10.077195167541504,-0.08619125932455063,-1.3479355573654175,25.81787109375,-17.425537109375,-6.0882568359375
17.9699999,-9.86650562286377,0.17238251864910126,-0.08858546614646912,-22.430419921875,3.0517578125,-9.1705322265625
17.9899999,-9.732429504394531,0.23942017555236816,1.2018892765045166,-46.7071533203125,20.56884765625,-2.5787353515625
18.0099999,-9.691728591918945,-0.16519992053508759,1.659181833267212,-26.9775390625,19.8211669921875,10.1776123046875
18.0299999,-9.837775230407715,-0.5003881454467773,1.2258312702178955,11.4898681640625,11.199951171875,16.1895751953125
18.0499999,-10.02452278137207,-0.49799394607543945,0.15083470940589905,33.1878662109375,0.06103515625,11.77978515625
18.0699999,-10.137049674987793,0.14604631066322327,-0.6631938815116882,25.360107421875,-9.6893310546875,1.7547607421875
18.089999900000002,-10.098742485046387,1.0223240852355957,-0.950498104095459,-2.3956298828125,-7.4920654296875,-13.5040283203125
18.109999900000002,-10.043676376342773,1.4748282432556152,-0.6943184733390808,-30.609130859375,4.6844482421875,-24.96337890625
18.1299999,-9.928754806518555,1.113303780555725,-0.17238251864910126,-34.8358154296875,7.6904296875,-16.143798828125
18.1499999,-9.964667320251465,-0.13168109953403473,-0.1364694982767105,-8.4381103515625,3.60107421875,4.0435791015625
18.1699999,-10.093954086303711,-1.4628572463989258,-0.6129156351089478,39.9322509765625,-9.8419189453125,18.85986328125
18.1899999,-10.156203269958496,-2.212242364883423,-1.170764684677124,77.1942138671875,-25.6500244140625,24.200439453125
18.2099999,-10.165780067443848,-1.699883222579956,-1.3239935636520386,67.779541015625,-30.6243896484375,22.6287841796875
18.2299999,-10.019734382629395,0.12689268589019775,-0.23702596127986908,9.3231201171875,-19.622802734375,9.796142578125
18.249999900000002,-9.703699111938477,2.027888774871826,1.3335703611373901,-81.8023681640625,10.6048583984375,-14.2364501953125
18.269999900000002,-9.552865028381348,3.050212860107422,2.6455929279327393,-133.6669921875,43.27392578125,-30.6854248046875
18.2899999,-9.509769439697266,2.557007312774658,2.655169725418091,-96.7559814453125,43.64013671875,-14.3890380859375
18.3099999,-9.696516990661621,0.6272808313369751,1.0797849893569946,-6.77490234375,16.8914794921875,8.575439453125
18.3299999,-10.08198356628418,-1.400607943534851,-1.3263877630233765,76.0955810546875,-13.48876953125,20.0347900390625
18.3499999,-10.304644584655762,-2.2409727573394775,-3.1268274784088135,112.1826171875,-39.24560546875,22.430419921875
18.3699999,-10.335768699645996,-1.5610195398330688,-3.2776620388031006,80.3070068359375,-42.938232421875,13.916015625
18.3899999,-10.072406768798828,0.31124621629714966,-1.7094600200653076,0.4730224609375,-21.6522216796875,-1.953125
18.409999900000003,-9.742006301879883,1.8579005002975464,0.4908113479614258,-78.8116455078125,13.6566162109375,-25.32958984375
18.429999900000002,-9.533711433410645,2.389413356781006,2.248155355453491,-89.8284912109375,33.5845947265625,-23.98681640625
18.4499999,-9.495404243469238,1.5418659448623657,2.516305923461914,-39.2303466796875,23.712158203125,-1.4495849609375
18.4699999,-9.81143856048584,-0.06224924325942993,1.2761094570159912,17.5323486328125,5.5999755859375,9.7198486328125
18.4899999,-10.0580415725708,-1.237802267074585,-0.4141969084739685,50.96435546875,-11.566162109375,17.76123046875
18.5099999,-10.26394271850586,-1.3934253454208374,-1.6160861253738403,50.4608154296875,-27.9541015625,17.1051025390625
18.5299999,-10.220847129821777,-0.38067805767059326,-1.482010841369629,12.3138427734375,-25.7568359375,4.2724609375
18.5499999,-9.974244117736816,0.7350199222564697,-0.6033388376235962,-48.919677734375,0.1678466796875,-11.077880859375
18.5699999,-9.825803756713867,1.4053963422775269,0.6392518281936646,-68.5577392578125,16.78466796875,-18.7225341796875
18.589999900000002,-9.655815124511719,1.0893617868423462,1.2018892765045166,-36.3922119140625,10.5438232421875,-3.0059814453125
18.609999900000002,-9.739612579345703,0.21787235140800476,1.2617442607879639,4.7454833984375,3.2806396484375,10.711669921875
18.6299999,-9.940725326538086,-0.586579442024231,0.5051765441894531,4.9591064453125,2.9449462890625,14.312744140625
18.6499999,-9.976638793945312,-0.6009446382522583,0.1364694982767105,-10.467529296875,-2.166748046875,10.986328125
18.6699999,-10.089165687561035,0.047884032130241394,-0.1843535304069519,-24.6124267578125,-5.2642822265625,4.8370361328125
18.6899999,-10.014945983886719,1.1492167711257935,0.2346317619085312,-37.933349609375,0.6561279296875,-10.833740234375
18.7099999,-9.885659217834473,1.7286136150360107,0.768538773059845,-58.7615966796875,17.2119140625,-28.38134765625
18.7299999,-9.600749015808105,1.4915876388549805,2.2577321529388428,-118.95751953125,50.7659912109375,-4.69970703125
18.749999900000002,-9.641449928283691,0.7134721279144287,1.3886369466781616,-107.84912109375,57.6324462890625,2.532958984375
18.769999900000002,-9.734824180603027,0.1388636976480484,-0.05267243832349777,-45.7611083984375,21.9879150390625,-3.3721923828125
18.7899999,-10.055646896362305,-0.7350199222564697,-2.22660756111145,-18.24951171875,-10.3912353515625,-14.83154296875
18.8099999,-10.273519515991211,-1.5682021379470825,-3.7397429943084717,25.390625,-16.7083740234375,-13.61083984375
18.8299999,-10.271124839782715,-1.6879122257232666,-3.1723172664642334,97.83935546875,-33.1268310546875,15.56396484375
18.8499999,-9.782708168029785,-1.1827356815338135,-1.6759412288665771,40.283203125,-7.8582763671875,24.7802734375
18.8699999,-9.138668060302734,0.20350714027881622,0.363918662071228,-93.3990478515625,30.8837890625,7.5531005859375
18.8899999,-8.89685344696045,1.5490485429763794,1.41257905960083,-137.7716064453125,44.86083984375,-16.937255859375
18.909999900000003,-8.678980827331543,1.86508309841156,0.7445967197418213,-100.0823974609375,27.2674560546875,-7.6904296875
18.929999900000002,-9.009381294250488,0.8643068075180054,-1.1635819673538208,-22.03369140625,-19.10400390625,4.5318603515625
18.9499999,-8.995016098022461,-0.9026140570640564,-2.782062292098999,76.446533203125,-48.2330322265625,8.7432861328125
18.9699999,-9.32302188873291,-1.845929503440857,-3.050212860107422,140.07568359375,-45.5780029296875,19.4549560546875
18.9899999,-9.816226959228516,-1.5849615335464478,-1.4676456451416016,93.26171875,-23.98681640625,18.1427001953125
19.0099999,-10.213664054870605,-0.7158663272857666,0.5674257874488831,-25.4058837890625,24.7039794921875,-6.16455078125
19.0299999,-11.034875869750977,0.48602294921875,2.030282974243164,-49.8046875,45.10498046875,-4.547119140625
19.0499999,-11.044452667236328,0.7805097699165344,2.1715409755706787,0.4425048828125,24.59716796875,8.30078125
19.0699999,-11.312602996826172,0.5985504388809204,1.0678139925003052,28.9154052734375,7.476806640625,21.6064453125
19.089999900000002,-11.106701850891113,0.40940847992897034,-0.2849099934101105,23.4832763671875,1.28173828125,19.195556640625
19.109999900000002,-11.106701850891113,0.2346317619085312,-1.4652514457702637,4.638671875,-2.716064453125,-1.9683837890625
19.1299999,-10.781089782714844,0.12928688526153564,-2.070984363555908,25.4974365234375,-9.6435546875,2.4871826171875
19.1499999,-10.424354553222656,-0.0454898327589035,-2.123656988143921,50.537109375,-21.3165283203125,17.4713134765625
19.1699999,-10.046070098876953,-0.038307227194309235,-1.5418659448623657,37.139892578125,-22.003173828125,18.524169921875
19.1899999,-9.6989107131958,0.3471592366695404,-0.5746083855628967,0.9613037109375,-6.744384765625,8.392333984375
19.2099999,-9.50737476348877,0.6967126727104187,0.1388636976480484,-16.571044921875,10.2081298828125,-8.148193359375
19.2299999,-9.476250648498535,1.0797849893569946,0.646434485912323,-0.244140625,1.64794921875,-2.3193359375
19.249999900000002,-9.588777542114258,1.0534487962722778,0.6392518281936646,1.28173828125,-6.103515625,5.2642822265625
19.269999900000002,-9.80904483795166,0.8451532125473022,0.37828385829925537,-10.1470947265625,3.9825439453125,1.983642578125
19.2899999,-9.888052940368652,0.7876923680305481,0.28730419278144836,-1.4190673828125,3.4332275390625,2.7313232421875
19.3099999,-9.914389610290527,0.751779317855835,0.13168109953403473,7.1563720703125,-1.0986328125,-0.9307861328125
19.3299999,-9.93354320526123,0.6847416758537292,0.031124621629714966,9.1400146484375,4.364013671875,-9.3231201171875
19.3499999,-9.945513725280762,0.5674257874488831,-0.002394201699644327,9.4451904296875,6.866455078125,-6.6070556640625
19.3699999,-10.005369186401367,0.43335050344467163,-0.06224924325942993,8.1329345703125,5.9967041015625,3.2196044921875
19.3899999,-10.02691650390625,0.33039984107017517,-0.22505496442317963,6.805419921875,4.9591064453125,1.2969970703125
19.409999900000003,-10.010157585144043,0.40701428055763245,-0.36152446269989014,4.425048828125,1.6937255859375,-4.791259765625
19.429999900000002,-10.014945983886719,0.47644615173339844,-0.5219359993934631,2.9754638671875,1.0986328125,-8.8958740234375
19.4499999,-10.02691650390625,0.4429273009300232,-0.6153098344802856,3.936767578125,-0.48828125,-4.1961669921875
19.4699999,-10.065223693847656,0.3758896589279175,-0.5961562395095825,1.3427734375,-6.40869140625,9.8876953125
19.4899999,-10.096348762512207,0.24181437492370605,-0.5746083855628967,-7.9193115234375,-6.8817138671875,9.5367431640625
19.5099999,-10.103530883789062,0.2082955539226532,-0.47884035110473633,-11.9781494140625,-3.96728515625,-0.8544921875
19.5299999,-10.096348762512207,0.17238251864910126,-0.33039984107017517,-6.5155029296875,-5.2947998046875,-0.3814697265625
19.5499999,-10.019734382629395,0.09576806426048279,-0.15562310814857483,1.77001953125,-3.4027099609375,5.889892578125
19.5699999,-9.919178009033203,0.1604115068912506,-0.033518824726343155,2.2430419921875,0.6866455078125,9.765625
19.589999900000002,-9.856928825378418,0.3495534360408783,0.023942016065120697,-0.5035400390625,1.46484375,3.1585693359375
19.609999900000002,-9.821015357971191,0.706289529800415,0.028730420395731926,-0.0457763671875,-0.7171630859375,-6.9732666015625
19.6299999,-9.923966407775879,0.933738648891449,-0.05746084079146385,-0.091552734375,-0.0457763671875,-11.1236572265625
19.6499999,-10.105925559997559,0.8978256583213806,-0.16998831927776337,10.8795166015625,0.9002685546875,-10.6353759765625
19.6699999,-10.216058731079102,0.5674257874488831,-0.33279404044151306,23.2086181640625,-3.753662109375,-3.7078857421875
19.6899999,-10.20887565612793,0.26575639843940735,-0.40462008118629456,21.78955078125,-10.1165771484375,6.2255859375
19.7099999,-10.077195167541504,0.17956513166427612,-0.2968810200691223,5.43212890625,-9.6588134765625,8.148193359375
19.7299999,-9.907206535339355,0.21547815203666687,-0.1364694982767105,-11.04736328125,1.0528564453125,-4.486083984375
19.749999900000002,-9.804255485534668,0.40940847992897034,0.17477671802043915,-6.866455078125,4.8065185546875,-6.011962890625
19.769999900000002,-9.90241813659668,0.48602294921875,0.3495534360408783,-1.5716552734375,4.2266845703125,-1.9683837890625
19.7899999,-10.012551307678223,0.5195417404174805,0.5027823448181152,-8.544921875,6.4544677734375,0.457763671875
19.8099999,-10.129867553710938,0.6823474764823914,0.6536170840263367,-28.13720703125,11.9476318359375,1.953125
19.8299999,-10.663774490356445,0.7015010714530945,0.5386953949928284,-39.5050048828125,19.4244384765625,-11.1083984375
19.8499999,-11.405977249145508,0.5913678407669067,-0.019153613597154617,-19.6685791015625,16.5252685546875,-18.1427001953125
19.8699999,-12.612654685974121,0.28969839215278625,-0.950498104095459,14.0533447265625,-0.06103515625,-7.965087890625
