# Time (seconds),Accel_X,Accel_Y,Accel_Z,Gyro_X,Gyro_Y,Gyro_Z
0.0099999,-0.3902548849582672,-10.448296546936035,-0.3471592366695404,-10.3302001953125,150.3448486328125,-13.916015625
0.029999900000000003,-0.3495534360408783,-10.333374977111816,-0.49559974670410156,-9.5672607421875,141.4031982421875,-13.5955810546875
0.0499999,-0.24660277366638184,-10.213664054870605,-0.5219359993934631,-14.8468017578125,137.6800537109375,-12.237548828125
0.0699999,-0.08379705995321274,-10.120290756225586,-0.4836287498474121,-16.7999267578125,140.19775390625,-10.19287109375
0.08999990000000001,0.07182604819536209,-10.072406768798828,-0.45250412821769714,-13.3209228515625,140.5487060546875,-6.53076171875
0.10999990000000001,0.19632454216480255,-10.050858497619629,-0.4908113479614258,-9.979248046875,136.505126953125,-4.57763671875
0.1299999,0.26815059781074524,-10.019734382629395,-0.5530605912208557,-9.674072265625,132.62939453125,-3.6468505859375
0.14999990000000002,0.3687070608139038,-9.983820915222168,-0.5219359993934631,-9.185791015625,132.75146484375,-2.5482177734375
0.1699999,0.5410895943641663,-9.979032516479492,-0.5147533416748047,-8.30078125,145.660400390625,-0.8544921875
0.1899999,0.6607996821403503,-9.974244117736816,-0.5889736413955688,-3.753662109375,158.355712890625,4.5166015625
0.20999990000000002,0.6751648783683777,-9.945513725280762,-0.689530074596405,3.11279296875,146.820068359375,9.09423828125
0.2299999,0.5434837937355042,-9.861717224121094,-0.8355764150619507,2.5787353515625,128.7384033203125,5.55419921875
0.2499999,0.33758243918418884,-9.68694019317627,-0.849941611289978,-2.3345947265625,115.29541015625,1.190185546875
0.2699999,0.20111294090747833,-9.464279174804688,-0.6823474764823914,-7.293701171875,110.6109619140625,0.274658203125
0.28999990000000003,0.2106897532939911,-9.232041358947754,-0.4405331015586853,-11.4288330078125,118.4844970703125,-1.1444091796875
0.3099999,0.31603461503982544,-9.01895809173584,-0.19871874153614044,-13.61083984375,131.2103271484375,-3.448486328125
0.3299999,0.42377370595932007,-8.829815864562988,-0.0694318488240242,-15.07568359375,137.2528076171875,-3.9215087890625
0.34999990000000003,0.47165772318840027,-8.686163902282715,-0.08140286058187485,-15.838623046875,132.1868896484375,-4.69970703125
0.3699999,0.45010992884635925,-8.595184326171875,-0.19632454216480255,-13.702392578125,122.955322265625,-7.6904296875
0.3899999,0.3974374830722809,-8.56884765625,-0.35434186458587646,-8.4381103515625,118.2403564453125,-11.8560791015625
0.40999990000000003,0.3902548849582672,-8.614337921142578,-0.4836287498474121,-3.387451171875,117.767333984375,-15.0299072265625
0.4299999,0.4596867263317108,-8.695740699768066,-0.5626373887062073,0.4730224609375,121.368408203125,-15.3350830078125
0.4499999,0.5578489899635315,-8.760383605957031,-0.6200982332229614,4.364013671875,126.739501953125,-12.9852294921875
0.4699999,0.6943184733390808,-8.803479194641113,-0.6799532771110535,9.46044921875,129.2724609375,-11.29150390625
0.4899999,0.8212111592292786,-8.803479194641113,-0.7230489253997803,14.2974853515625,125.3662109375,-7.5836181640625
0.5099999,0.9361328482627869,-8.786720275878906,-0.7350199222564697,14.923095703125,117.828369140625,-1.251220703125
0.5299999,1.0630255937576294,-8.78432559967041,-0.689530074596405,12.298583984375,110.565185546875,4.8828125
0.5499999,1.1276689767837524,-8.78432559967041,-0.6416460275650024,10.223388671875,105.377197265625,8.0718994140625
0.5699999,1.2114660739898682,-8.81784439086914,-0.5722141861915588,10.1318359375,103.02734375,8.1787109375
0.5899998999999999,1.3072341680526733,-8.904036521911621,-0.4884171485900879,6.9580078125,102.2796630859375,9.2010498046875
0.6099998999999999,1.3934253454208374,-9.0859956741333,-0.43335050344467163,0.0762939453125,96.5728759765625,11.90185546875
0.6299999,1.3982137441635132,-9.35654067993164,-0.3711012601852417,-3.387451171875,81.5277099609375,10.8184814453125
0.6499999,1.2976573705673218,-9.68933391571045,-0.38546648621559143,-1.312255859375,61.492919921875,3.47900390625
0.6699999,1.1109095811843872,-10.019734382629395,-0.3447650372982025,4.33349609375,47.2412109375,-5.401611328125
0.6899999,0.9528923034667969,-10.26394271850586,-0.22505496442317963,7.9345703125,44.2657470703125,-12.4053955078125
0.7099999,0.933738648891449,-10.393229484558105,-0.06703764945268631,12.3291015625,47.8363037109375,-17.5018310546875
0.7299998999999999,0.9792284965515137,-10.335768699645996,0.12449848651885986,19.622802734375,48.492431640625,-19.6533203125
0.7499998999999999,1.0582371950149536,-10.163386344909668,0.17956513166427612,23.529052734375,42.6025390625,-19.500732421875
0.7699999,1.1468225717544556,-9.907206535339355,0.11971008777618408,24.078369140625,36.2548828125,-18.98193359375
0.7899999,1.3623007535934448,-9.677363395690918,0.08140286058187485,24.6124267578125,34.820556640625,-19.8822021484375
0.8099999,1.680729627609253,-9.512163162231445,0.05027823522686958,21.3623046875,39.947509765625,-20.172119140625
0.8299999,1.9847931861877441,-9.394847869873047,-0.019153613597154617,17.3492431640625,45.4254150390625,-20.538330078125
0.8499998999999999,2.2146365642547607,-9.308655738830566,-0.15562310814857483,21.3470458984375,47.36328125,-25.9552001953125
0.8699998999999999,2.2218191623687744,-9.222464561462402,-0.33758243918418884,29.8614501953125,44.86083984375,-34.1339111328125
0.8899999,2.078166961669922,-9.205705642700195,-0.47644615173339844,32.7301025390625,41.839599609375,-39.306640625
0.9099999,1.9297266006469727,-9.289502143859863,-0.3711012601852417,28.5797119140625,39.61181640625,-38.57421875
0.9299999,1.8914192914962769,-9.459490776062012,0.047884032130241394,19.0887451171875,39.154052734375,-33.6151123046875
0.9499999,1.9919757843017578,-9.66299819946289,0.8020575642585754,2.5787353515625,40.2069091796875,-26.5350341796875
0.9699998999999999,2.2361843585968018,-9.672574996948242,1.7166426181793213,-24.3988037109375,44.98291015625,-16.4794921875
0.9899998999999999,2.4133553504943848,-9.512163162231445,2.5282769203186035,-57.7850341796875,47.42431640625,-6.561279296875
1.0099999,2.432508945465088,-9.169792175292969,2.9927520751953125,-84.1217041015625,41.7022705078125,-4.0740966796875
1.0299999,2.1954829692840576,-8.801085472106934,2.894589900970459,-98.0072021484375,30.1361083984375,-7.781982421875
1.0499999,1.8531121015548706,-8.528146743774414,2.2840683460235596,-100.7537841796875,17.9595947265625,-14.6026611328125
1.0699999,1.5729905366897583,-8.451532363891602,1.3718775510787964,-97.4884033203125,8.8958740234375,-19.805908203125
1.0899999,1.4532804489135742,-8.597578048706055,0.3471592366695404,-89.7369384765625,7.5225830078125,-20.8892822265625
1.1099999,1.5658079385757446,-8.927978515625,-0.5722141861915588,-76.446533203125,10.3302001953125,-19.500732421875
1.1299999,1.7812861204147339,-9.390059471130371,-1.3024457693099976,-58.41064453125,18.035888671875,-18.4173583984375
1.1499999,2.03507137298584,-9.821015357971191,-1.8195933103561401,-38.8031005859375,24.8870849609375,-18.096923828125
1.1699998999999999,2.2649147510528564,-10.165780067443848,-2.1284453868865967,-20.0653076171875,24.47509765625,-18.3868408203125
1.1899998999999999,2.434903144836426,-10.340557098388672,-2.250549554824829,-3.4332275390625,22.430419921875,-17.88330078125
1.2099999,2.540247917175293,-10.402806282043457,-2.2649147510528564,10.894775390625,26.3671875,-15.93017578125
1.2299999,2.5761611461639404,-10.311826705932617,-2.1571757793426514,23.0712890625,30.426025390625,-13.36669921875
1.2499999,2.5498247146606445,-10.122684478759766,-1.9608511924743652,31.0821533203125,33.0047607421875,-12.8021240234375
1.2699999,2.4612393379211426,-9.849745750427246,-1.678335428237915,34.8663330078125,37.5518798828125,-14.95361328125
1.2899999,2.382230758666992,-9.5624418258667,-1.3287819623947144,35.736083984375,44.921875,-19.1802978515625
1.3099999,2.3080103397369385,-9.344569206237793,-0.9409212470054626,35.064697265625,53.6956787109375,-24.59716796875
1.3299999,2.274491548538208,-9.227252960205078,-0.5985504388809204,34.271240234375,62.286376953125,-29.60205078125
1.3499999,2.252943754196167,-9.17936897277832,-0.31124621629714966,34.85107421875,64.727783203125,-33.38623046875
1.3699999,2.3127987384796143,-9.172186851501465,-0.10055647045373917,35.125732421875,62.2100830078125,-37.689208984375
1.3899999,2.4396915435791016,-9.157821655273438,0.10534487664699554,34.6527099609375,60.36376953125,-41.9464111328125
1.4099999,2.6839001178741455,-9.11233139038086,0.3016694188117981,31.951904296875,61.0198974609375,-42.5872802734375
1.4299998999999999,2.9735984802246094,-9.064447402954102,0.5003881454467773,28.9459228515625,57.861328125,-38.482666015625
1.4499999,3.251325845718384,-9.023746490478516,0.6943184733390808,25.69580078125,44.5098876953125,-29.693603515625
1.4699999,3.485957622528076,-8.966285705566406,0.8930372595787048,21.026611328125,28.5491943359375,-18.280029296875
1.4899999,3.667917013168335,-8.882488250732422,1.1085153818130493,14.0380859375,19.3023681640625,-8.72802734375
1.5099999,3.801992416381836,-8.777143478393555,1.3311761617660522,7.2784423828125,18.798828125,-3.0059814453125
1.5299999,3.804386615753174,-8.65982723236084,1.5322890281677246,2.716064453125,19.5770263671875,1.800537109375
1.5499999,3.754108190536499,-8.580819129943848,1.6352397203445435,-2.0904541015625,17.0135498046875,6.7291259765625
1.5699999,3.5913026332855225,-8.554482460021973,1.6903064250946045,-5.55419921875,12.5579833984375,9.7198486328125
1.5899999,3.4572272300720215,-8.528146743774414,1.6974890232086182,-10.43701171875,13.9007568359375,10.68115234375
1.6099999,3.308786630630493,-8.573636054992676,1.6831238269805908,-17.2119140625,18.096923828125,11.77978515625
1.6299999,3.2154128551483154,-8.59997272491455,1.659181833267212,-22.4609375,16.632080078125,14.34326171875
1.6499999,3.136404275894165,-8.69334602355957,1.5897499322891235,-24.7039794921875,12.39013671875,16.4031982421875
1.6699999,3.0621838569641113,-8.81784439086914,1.479616641998291,-24.932861328125,10.9100341796875,16.937255859375
1.6899998999999999,2.9927520751953125,-8.99740982055664,1.3311761617660522,-23.7274169921875,9.5062255859375,16.6778564453125
1.7099999,2.911349296569824,-9.205705642700195,1.1516109704971313,-21.05712890625,5.1422119140625,16.6473388671875
1.7299999,2.846705913543701,-9.430760383605957,0.9959878921508789,-16.90673828125,-1.3427734375,17.059326171875
1.7499999,2.7916390895843506,-9.59596061706543,0.8858546018600464,-13.2904052734375,-4.425048828125,17.2271728515625
1.7699999,2.7892448902130127,-9.75397777557373,0.8307880163192749,-11.4593505859375,-0.6103515625,15.533447265625
1.7899999,2.786850690841675,-9.804255485534668,0.8331822156906128,-9.9029541015625,4.1351318359375,12.1917724609375
1.8099999,2.7940332889556885,-9.847352027893066,0.8403648138046265,-7.9193115234375,5.4779052734375,8.5906982421875
1.8299999,2.786850690841675,-9.828198432922363,0.8355764150619507,-6.3934326171875,7.0648193359375,4.5623779296875
1.8499999,2.7700912952423096,-9.818621635437012,0.7996633648872375,-5.0811767578125,9.185791015625,0.5340576171875
1.8699999,2.762908697128296,-9.770736694335938,0.7661445140838623,-3.143310546875,7.4310302734375,-1.922607421875
1.8899999,2.762908697128296,-9.782708168029785,0.7182605266571045,-0.9918212890625,2.9449462890625,-3.5552978515625
1.9099999,2.8107926845550537,-9.749189376831055,0.6991068720817566,0.4119873046875,0.9002685546875,-5.2490234375
1.9299998999999999,2.9017724990844727,-9.725247383117676,0.7038952708244324,0.5035400390625,2.227783203125,-6.1492919921875
1.9499999,3.0310592651367188,-9.68933391571045,0.7374141216278076,0.274658203125,4.150390625,-5.2947998046875
1.9699999,3.138798475265503,-9.636661529541016,0.7733271718025208,0.335693359375,3.5552978515625,-3.2196044921875
1.9899999,3.205836057662964,-9.586383819580078,0.8020575642585754,0.091552734375,0.9613037109375,-1.28173828125
2.0099999,3.2154128551483154,-9.536105155944824,0.8188169598579407,-1.0223388671875,-0.4730224609375,-0.67138671875
2.0299999,3.1747114658355713,-9.466673851013184,0.8259995579719543,-2.9449462890625,1.007080078125,-1.77001953125
2.0499999,3.1100680828094482,-9.399636268615723,0.8212111592292786,-4.7454833984375,2.74658203125,-3.1280517578125
2.0699999,3.002328872680664,-9.368511199951172,0.7948749661445618,-5.4931640625,1.0223388671875,-3.631591796875
2.0899999,2.9161376953125,-9.361329078674316,0.751779317855835,-5.3558349609375,-1.6937255859375,-4.0740966796875
2.1099999,2.8347349166870117,-9.385271072387695,0.6943184733390808,-5.06591796875,-1.678466796875,-5.035400390625
2.1299999,2.8131868839263916,-9.41639518737793,0.6584054827690125,-4.730224609375,-0.30517578125,-6.2255859375
2.1499999,2.8227639198303223,-9.44991397857666,0.6200982332229614,-4.21142578125,1.1444091796875,-6.9122314453125
2.1699999,2.846705913543701,-9.476250648498535,0.5937620401382446,-3.0517578125,2.2430419921875,-6.9732666015625
2.1899999,2.8634653091430664,-9.526528358459473,0.545877993106842,-0.946044921875,2.8839111328125,-7.7972412109375
2.2099999,2.8802247047424316,-9.564835548400879,0.4884171485900879,2.7313232421875,3.5400390625,-9.8876953125
2.2299999,2.9041666984558105,-9.59596061706543,0.40940847992897034,8.4075927734375,3.35693359375,-10.528564453125
2.2499999,2.9328970909118652,-9.641449928283691,0.35913026332855225,14.9383544921875,2.288818359375,-9.2620849609375
2.2699999,3.0358476638793945,-9.552865028381348,0.38307225704193115,19.378662109375,4.4403076171875,-7.6446533203125
2.2899999,3.098097085952759,-9.50737476348877,0.4357447028160095,20.44677734375,7.965087890625,-5.9051513671875
2.3099999,3.2106244564056396,-9.342175483703613,0.5770025849342346,19.0887451171875,7.720947265625,-3.0670166015625
2.3299999,3.251325845718384,-9.205705642700195,0.7422025203704834,15.19775390625,5.7220458984375,0.091552734375
2.3499999,3.2848446369171143,-9.064447402954102,0.9169792532920837,9.82666015625,5.4931640625,2.105712890625
2.3699999,3.2585084438323975,-8.901641845703125,1.0821791887283325,3.47900390625,6.1187744140625,3.0975341796875
2.3899999,3.201047658920288,-8.815450668334961,1.194706678390503,-2.8839111328125,5.218505859375,4.4097900390625
2.4099999,3.134010076522827,-8.753201484680176,1.2545616626739502,-8.270263671875,3.7689208984375,5.0201416015625
2.4299999,3.0550012588500977,-8.757989883422852,1.2401964664459229,-12.5885009765625,2.6092529296875,4.364013671875
2.4499999,2.956839084625244,-8.877699851989746,1.1803414821624756,-15.56396484375,1.5411376953125,3.0364990234375
2.4699999,2.9328970909118652,-8.995016098022461,1.1085153818130493,-17.120361328125,0.1220703125,2.0294189453125
2.4899999,2.9089550971984863,-9.14345645904541,1.0103530883789062,-17.181396484375,1.0223388671875,0.732421875
2.5099999,2.942473888397217,-9.287108421325684,0.9050082564353943,-15.716552734375,1.6937255859375,-0.5035400390625
2.5299999,2.9975404739379883,-9.399636268615723,0.8020575642585754,-13.0615234375,-0.5340576171875,-1.220703125
2.5499999,3.07415509223938,-9.481039047241211,0.7110779285430908,-9.9945068359375,-2.899169921875,-1.556396484375
2.5699999,3.162740468978882,-9.521739959716797,0.6440402865409851,-6.6986083984375,-2.8228759765625,-1.617431640625
2.5899999,3.2393548488616943,-9.569623947143555,0.586579442024231,-3.021240234375,-0.579833984375,-1.03759765625
2.6099999,3.318363666534424,-9.531316757202148,0.5674257874488831,0.732421875,-0.8087158203125,0.762939453125
2.6299999,3.35667085647583,-9.545681953430176,0.5410895943641663,3.6468505859375,-2.197265625,1.983642578125
2.6499999,3.3423056602478027,-9.509769439697266,0.5363011956214905,5.401611328125,-0.3662109375,1.1749267578125
2.6699999,3.31118106842041,-9.473855972290039,0.5386953949928284,6.4544677734375,0.6561279296875,0.152587890625
2.6899999,3.248931646347046,-9.454702377319336,0.5506663918495178,7.4310302734375,0.0152587890625,-0.244140625
2.7099999,3.1962592601776123,-9.411606788635254,0.5722141861915588,7.62939453125,-1.9989013671875,0.3204345703125
2.7299999,3.162740468978882,-9.38048267364502,0.6248866319656372,5.92041015625,-2.349853515625,0.823974609375
2.7499999,3.141192674636841,-9.32541561126709,0.6703764796257019,2.9754638671875,0.5340576171875,0.152587890625
2.7699999,3.1316158771514893,-9.260771751403809,0.727837324142456,0.335693359375,2.4566650390625,-0.762939453125
2.7899999,3.1004912853240967,-9.215282440185547,0.7493851184844971,-1.4190673828125,0.67138671875,-0.335693359375
2.8099999,3.0597896575927734,-9.196128845214844,0.7493851184844971,-3.0364990234375,-2.0904541015625,0.1068115234375
2.8299999,3.023876667022705,-9.217676162719727,0.7254431247711182,-5.0048828125,-2.13623046875,-0.457763671875
2.8499999,2.9951462745666504,-9.255983352661133,0.6871358752250671,-7.0343017578125,-0.8087158203125,-1.52587890625
2.8699999,2.9759926795959473,-9.30386734008789,0.6320692300796509,-8.3770751953125,-0.2288818359375,-2.0294189453125
2.8899999,3.00711727142334,-9.315838813781738,0.5674257874488831,-8.8653564453125,-1.8157958984375,-1.5411376953125
2.9099999,3.028665065765381,-9.332598686218262,0.5051765441894531,-9.063720703125,-2.0751953125,-0.457763671875
2.9299999,3.093308687210083,-9.296685218811035,0.4596867263317108,-8.7127685546875,-1.068115234375,0.9002685546875
2.9499999,3.160346269607544,-9.239224433898926,0.45489832758903503,-8.11767578125,0.0762939453125,1.9989013671875
2.9699999,3.2106244564056396,-9.174580574035645,0.45010992884635925,-7.4005126953125,1.1749267578125,3.2196044921875
2.9899999,3.251325845718384,-9.102754592895508,0.4405331015586853,-5.828857421875,0.5035400390625,5.0201416015625
3.0099999,3.270479440689087,-9.062053680419922,0.42377370595932007,-3.6163330078125,-1.922607421875,7.8582763671875
3.0299999,3.272873640060425,-9.057265281677246,0.3734954595565796,-2.13623046875,-3.021240234375,10.650634765625
3.0499999,3.265691041946411,-9.081207275390625,0.33039984107017517,-1.251220703125,-0.91552734375,12.664794921875
3.0699999,3.24414324760437,-9.105149269104004,0.2968810200691223,-0.396728515625,0.1373291015625,15.167236328125
3.0899999,3.201047658920288,-9.133879661560059,0.28730419278144836,0.518798828125,0.1220703125,18.707275390625
3.1099999,3.043030261993408,-9.181763648986816,0.2753331959247589,0.762939453125,2.349853515625,25.8941650390625
3.1299999,2.956839084625244,-9.23443603515625,0.26815059781074524,1.3885498046875,1.953125,28.289794921875
3.1499999,2.849100112915039,-9.263166427612305,0.24181437492370605,2.2125244140625,3.7078857421875,29.8309326171875
3.1699999,2.760514497756958,-9.351752281188965,0.22026655077934265,3.265380859375,6.9580078125,30.4718017578125
3.1899999,2.652775526046753,-9.39245319366455,0.22744916379451752,4.6234130859375,8.941650390625,28.900146484375
3.2099999,2.5306711196899414,-9.519346237182617,0.2106897532939911,6.103515625,9.0179443359375,25.4669189453125
3.2299999,2.410961151123047,-9.617507934570312,0.2298433631658554,7.1258544921875,7.1563720703125,20.9503173828125
3.2499999,2.3487119674682617,-9.746794700622559,0.2849099934101105,6.6986083984375,3.7078857421875,15.655517578125
3.2699999,2.3535003662109375,-9.890447616577148,0.4118026793003082,4.33349609375,5.6610107421875,8.7432861328125
3.2899999,2.432508945465088,-10.04846477508545,0.5913678407669067,0.640869140625,12.1002197265625,0.9918212890625
3.3099999,2.535459518432617,-10.168174743652344,0.7996633648872375,-3.7078857421875,16.11328125,-5.9661865234375
3.3299999000000002,2.626439332962036,-10.228029251098633,0.9768342971801758,-7.3699951171875,14.7705078125,-12.26806640625
3.3499999,2.6862943172454834,-10.192116737365723,1.0989385843276978,-9.46044921875,9.185791015625,-15.93017578125
3.3699999,2.7030537128448486,-10.08437728881836,1.1755530834197998,-10.467529296875,1.5106201171875,-14.404296875
3.3899999,2.7054479122161865,-9.86889934539795,1.2090718746185303,-11.8865966796875,-6.3018798828125,-9.3536376953125
3.4099999,2.6575639247894287,-9.679757118225098,1.1875240802764893,-13.580322265625,-10.5743408203125,-5.035400390625
3.4299999,2.6024973392486572,-9.478644371032715,1.1252747774124146,-13.7786865234375,-13.5955810546875,-1.220703125
3.4499999,2.513911724090576,-9.272743225097656,1.0319008827209473,-12.4969482421875,-14.862060546875,4.1961669921875
3.4699999,2.3918075561523438,-9.157821655273438,0.871489405632019,-10.589599609375,-14.923095703125,10.5438232421875
3.4899999,2.252943754196167,-9.028534889221191,0.6943184733390808,-8.4228515625,-17.9290771484375,17.425537109375
3.5099999,2.0901381969451904,-8.932766914367676,0.47165772318840027,-5.3253173828125,-22.9034423828125,25.7568359375
3.5299999,1.9273324012756348,-8.860940933227539,0.24660277366638184,-0.3204345703125,-28.3966064453125,36.4227294921875
3.5499999,1.7812861204147339,-8.801085472106934,0.05267243832349777,4.1046142578125,-29.9072265625,47.4700927734375
3.5699999,1.6496049165725708,-8.779537200927734,-0.07900865375995636,6.561279296875,-25.970458984375,55.6640625
3.5899999,1.5059528350830078,-8.796297073364258,-0.17717093229293823,8.3770751953125,-22.52197265625,62.103271484375
3.6099999,1.3287819623947144,-8.827422142028809,-0.21547815203666687,10.528564453125,-23.834228515625,69.610595703125
3.6299999,1.161187767982483,-8.882488250732422,-0.2585737705230713,12.1917724609375,-24.5819091796875,75.592041015625
3.6499999,0.9193734526634216,-8.918401718139648,-0.2753331959247589,13.2598876953125,-22.6898193359375,78.3233642578125
3.6699999,0.7158663272857666,-8.959102630615234,-0.29209262132644653,13.9923095703125,-22.3236083984375,80.3070068359375
3.6899999,0.5051765441894531,-8.973467826843262,-0.2585737705230713,13.9312744140625,-22.8729248046875,82.4127197265625
3.7099999,0.3280056416988373,-8.990227699279785,-0.19393034279346466,12.4359130859375,-21.91162109375,86.669921875
3.7299999,0.16759411990642548,-9.026140213012695,-0.06464344263076782,9.246826171875,-18.218994140625,93.0023193359375
3.7499999,-0.0694318488240242,-9.093177795410156,0.08619125932455063,4.791259765625,-11.5509033203125,99.6246337890625
3.7699999,-0.33758243918418884,-9.136273384094238,0.2346317619085312,1.0833740234375,-3.60107421875,103.02734375
3.7899999,-0.751779317855835,-9.196128845214844,0.31124621629714966,-0.1220703125,-0.1983642578125,101.348876953125
3.8099999,-1.237802267074585,-9.20091724395752,0.3064578175544739,0.0457763671875,-1.3427734375,100.8148193359375
3.8299999000000002,-1.7190368175506592,-9.14585018157959,0.2537853717803955,0.4425048828125,-6.317138671875,102.72216796875
3.8499999,-2.2433669567108154,-9.160215377807617,0.1843535304069519,1.922607421875,-11.3983154296875,104.5074462890625
3.8699999,-2.7102363109588623,-9.105149269104004,0.18914192914962769,4.6234130859375,-9.21630859375,104.034423828125
3.8899999,-3.1316158771514893,-9.045293807983398,0.21787235140800476,7.6904296875,-2.44140625,97.59521484375
3.9099999,-3.5482068061828613,-8.992621421813965,0.33039984107017517,10.5438232421875,-0.732421875,90.362548828125
3.9299999,-3.9384617805480957,-8.944737434387207,0.44532153010368347,11.3372802734375,-5.9967041015625,89.05029296875
3.9499999,-4.278438568115234,-8.925583839416504,0.5913678407669067,11.9781494140625,-10.589599609375,87.066650390625
3.9699999,-4.575319290161133,-8.978256225585938,0.768538773059845,12.9852294921875,-8.636474609375,81.878662109375
3.9899999,-4.793191909790039,-9.030928611755371,0.9481038451194763,12.603759765625,-4.9591064453125,79.8187255859375
4.0099999,-4.970362663269043,-9.059659004211426,1.137245774269104,10.5133056640625,-4.669189453125,80.2154541015625
4.029999900000001,-5.128379821777344,-9.097966194152832,1.290474772453308,8.392333984375,-4.39453125,78.155517578125
4.0499999,-5.30076265335083,-9.066842079162598,1.4077905416488647,7.3699951171875,-4.82177734375,73.54736328125
4.069999900000001,-5.497087001800537,-9.05247688293457,1.4915876388549805,5.584716796875,-7.171630859375,70.526123046875
4.0899999000000005,-5.65031623840332,-8.966285705566406,1.53707754611969,2.13623046875,-10.498046875,68.0084228515625
4.1099999,-5.791574001312256,-8.889671325683594,1.577778935432434,-1.3885498046875,-9.5062255859375,63.9801025390625
4.1299999000000005,-5.870582580566406,-8.779537200927734,1.5897499322891235,-3.1280517578125,-4.8980712890625,60.8978271484375
4.1499999,-5.937620162963867,-8.664615631103516,1.580173134803772,-3.8909912109375,-1.2969970703125,60.791015625
4.1699999000000005,-6.011840343475342,-8.530540466308594,1.5322890281677246,-5.2642822265625,1.6632080078125,61.1572265625
4.1899999,-6.1052141189575195,-8.374917984008789,1.434126853942871,-6.53076171875,3.7994384765625,58.7615966796875
4.209999900000001,-6.2392897605896,-8.22887134552002,1.3072341680526733,-5.9661865234375,3.7078857421875,57.220458984375
4.2299999,-6.402095317840576,-8.08282470703125,1.1444283723831177,-3.875732421875,-1.2359619140625,61.0809326171875
4.249999900000001,-6.576871871948242,-7.903259754180908,1.0031704902648926,-2.38037109375,-10.2691650390625,64.910888671875
4.2699999,-6.7061591148376465,-7.723694801330566,0.8786720037460327,-2.044677734375,-16.082763671875,63.6444091796875
4.289999900000001,-6.768408298492432,-7.503427982330322,0.828393816947937,-1.190185546875,-15.4266357421875,64.2242431640625
4.3099999,-6.780379295349121,-7.297526836395264,0.8595184087753296,0.1068115234375,-11.71875,71.8536376953125
4.329999900000001,-6.773196697235107,-7.086836814880371,0.9289502501487732,-2.0294189453125,-9.979248046875,80.291748046875
4.3499999,-6.775590896606445,-6.931213855743408,0.9959878921508789,-6.2713623046875,-12.420654296875,86.395263671875
4.369999900000001,-6.864176273345947,-6.7708024978637695,1.0558429956436157,-6.0882568359375,-16.265869140625,95.6878662109375
4.3899999,-7.074865818023682,-6.540958881378174,1.0678139925003052,-5.0201416015625,-15.56396484375,107.757568359375
4.409999900000001,-7.3885064125061035,-6.356605529785156,1.0749965906143188,-4.1656494140625,-11.53564453125,110.595703125
4.4299999,-7.879317760467529,-5.995080947875977,1.0989385843276978,-3.41796875,-15.350341796875,108.1390380859375
4.449999900000001,-8.403648376464844,-5.612008571624756,1.1851298809051514,-4.8065185546875,-18.402099609375,98.9990234375
4.4699999,-8.932766914367676,-5.147533416748047,1.2761094570159912,-8.7738037109375,-11.77978515625,84.28955078125
4.489999900000001,-9.35893440246582,-4.721365928649902,1.3742717504501343,-11.566162109375,-4.8980712890625,67.6422119140625
4.5099999,-9.62947940826416,-4.4077253341674805,1.4460978507995605,-12.786865234375,-3.387451171875,53.497314453125
4.529999900000001,-9.730035781860352,-4.247313976287842,1.4413094520568848,-13.519287109375,-0.48828125,43.8385009765625
4.5499999,-9.682151794433594,-4.220977783203125,1.357512354850769,-13.5650634765625,3.936767578125,37.65869140625
4.569999900000001,-9.48343276977539,-4.273650169372559,1.2425906658172607,-12.1002197265625,3.5552978515625,35.430908203125
4.5899999000000005,-9.232041358947754,-4.364629745483398,1.1085153818130493,-9.8876953125,3.936767578125,38.238525390625
4.609999900000001,-9.011775016784668,-4.424484729766846,0.9672574996948242,-7.781982421875,6.744384765625,44.7235107421875
4.6299999000000005,-8.848969459533691,-4.422090530395508,0.8595184087753296,-5.18798828125,5.3863525390625,49.468994140625
4.6499999,-8.793902397155762,-4.32871675491333,0.7924807667732239,-2.288818359375,2.4871826171875,50.384521484375
4.6699999000000005,-8.834604263305664,-4.1611223220825195,0.7350199222564697,0.6866455078125,3.082275390625,50.4913330078125
4.6899999,-8.947132110595703,-3.9480385780334473,0.7158663272857666,4.547119140625,3.0364990234375,52.093505859375
4.709999900000001,-9.102754592895508,-3.7181951999664307,0.7182605266571045,8.3160400390625,0.2593994140625,51.666259765625
4.7299999,-9.308655738830566,-3.4955344200134277,0.7158663272857666,11.23046875,-4.39453125,48.0804443359375
4.749999900000001,-9.521739959716797,-3.2776620388031006,0.7350199222564697,12.603759765625,-14.6484375,45.9442138671875
4.7699999,-9.679757118225098,-3.0885202884674072,0.7661445140838623,11.7340087890625,-28.0609130859375,44.9676513671875
4.789999900000001,-9.730035781860352,-2.9472622871398926,0.8762778043746948,10.2081298828125,-37.841796875,44.769287109375
4.8099999,-9.696516990661621,-2.8203697204589844,1.0582371950149536,9.490966796875,-34.6527099609375,46.112060546875
4.829999900000001,-9.59835433959961,-2.6815059185028076,1.3670891523361206,10.0250244140625,-21.209716796875,44.73876953125
4.8499999,-9.591172218322754,-2.5522189140319824,1.5945383310317993,10.009765625,0,37.7960205078125
4.869999900000001,-9.66539192199707,-2.3582887649536133,1.8363527059555054,8.4686279296875,6.1187744140625,27.587890625
4.8899999,-9.84495735168457,-2.2170307636260986,1.900996208190918,4.608154296875,10.162353515625,14.404296875
4.909999900000001,-10.019734382629395,-2.094926595687866,1.8794482946395874,1.373291015625,15.838623046875,3.692626953125
4.9299999,-10.113107681274414,-2.056619167327881,1.7956513166427612,-0.79345703125,18.6614990234375,0.274658203125
4.949999900000001,-10.096348762512207,-2.097320795059204,1.659181833267212,-1.9989013671875,23.284912109375,4.0740966796875
4.9699999,-10.002974510192871,-2.164358377456665,1.4987702369689941,-0.213623046875,32.073974609375,8.30078125
4.989999900000001,-9.93593692779541,-2.2170307636260986,1.2713210582733154,4.364013671875,41.900634765625,9.4146728515625
5.0099999,-9.979032516479492,-2.1787235736846924,1.0079588890075684,9.58251953125,36.2701416015625,8.97216796875
5.029999900000001,-10.125079154968262,-2.0590133666992188,0.7589619159698486,10.955810546875,11.749267578125,6.89697265625
5.0499999,-10.280701637268066,-1.8555063009262085,0.6512228846549988,9.552001953125,-9.2620849609375,6.2103271484375
5.069999900000001,-10.383652687072754,-1.7262194156646729,0.6512228846549988,7.8125,-12.8021240234375,7.4310302734375
5.0899999000000005,-10.35252857208252,-1.5945383310317993,0.8858546018600464,7.9498291015625,-9.4451904296875,8.3465576171875
5.109999900000001,-10.271124839782715,-1.5729905366897583,1.094150185585022,8.544921875,4.2724609375,4.6539306640625
5.1299999000000005,-10.20887565612793,-1.5705963373184204,1.292868971824646,8.331298828125,8.30078125,4.9285888671875
5.1499999,-10.20648193359375,-1.556231141090393,1.3694833517074585,6.8511962890625,1.8463134765625,8.6822509765625
5.1699999000000005,-10.201693534851074,-1.5275006294250488,1.3910311460494995,4.6539306640625,-6.04248046875,8.880615234375
5.1899999,-10.146626472473145,-1.4748282432556152,1.3862427473068237,0.3814697265625,-5.2642822265625,6.1798095703125
5.209999900000001,-9.998186111450195,-1.4173674583435059,1.4221558570861816,-5.615234375,4.638671875,4.547119140625
5.2299999,-9.806650161743164,-1.3431471586227417,1.4772224426269531,-12.02392578125,22.3541259765625,3.84521484375
5.249999900000001,-9.641449928283691,-1.2976573705673218,1.4532804489135742,-15.6402587890625,40.83251953125,4.0283203125
5.2699999,-9.581595420837402,-1.2713210582733154,1.3000515699386597,-14.7552490234375,50.323486328125,2.86865234375
5.289999900000001,-9.653421401977539,-1.2976573705673218,0.9768342971801758,-10.6048583984375,47.3785400390625,-2.1514892578125
5.3099999,-9.794678688049316,-1.338358759880066,0.5985504388809204,-6.7596435546875,29.8614501953125,-6.34765625
5.329999900000001,-9.940725326538086,-1.434126853942871,0.21308395266532898,-3.23486328125,15.31982421875,-8.6669921875
5.3499999,-9.96945571899414,-1.5466543436050415,-0.023942016065120697,1.28173828125,-0.701904296875,-3.0364990234375
5.369999900000001,-9.818621635437012,-1.6400281190872192,-0.07661445438861847,2.8839111328125,-16.6015625,11.077880859375
5.3899999,-9.536105155944824,-1.702277421951294,0.05506663769483566,2.288818359375,-16.2506103515625,25.4669189453125
5.409999900000001,-9.246406555175781,-1.6615760326385498,0.2968810200691223,1.52587890625,-2.6702880859375,35.82763671875
5.4299999,-9.100360870361328,-1.5083470344543457,0.5578489899635315,0.67138671875,6.622314453125,41.107177734375
5.449999900000001,-9.205705642700195,-1.280897855758667,0.7374141216278076,-0.9918212890625,5.2642822265625,41.778564453125
5.4699999,-9.53849983215332,-1.0127472877502441,0.8068459630012512,-3.021240234375,-0.7171630859375,37.65869140625
5.489999900000001,-9.93354320526123,-0.7924807667732239,0.8092401623725891,-5.096435546875,-6.500244140625,31.4483642578125
5.5099999,-10.254365921020508,-0.6392518281936646,0.7876923680305481,-7.7972412109375,-7.32421875,28.7628173828125
5.529999900000001,-10.405200958251953,-0.5578489899635315,0.768538773059845,-9.429931640625,-0.3662109375,29.23583984375
5.5499999,-10.407594680786133,-0.5482721924781799,0.7374141216278076,-10.589599609375,8.209228515625,28.076171875
5.569999900000001,-10.347740173339844,-0.5602431893348694,0.6823474764823914,-10.2081298828125,9.979248046875,25.634765625
5.5899999000000005,-10.287884712219238,-0.5793967843055725,0.586579442024231,-9.1094970703125,5.0506591796875,23.3001708984375
5.609999900000001,-10.220847129821777,-0.6057330369949341,0.47644615173339844,-7.537841796875,-0.335693359375,22.4151611328125
5.6299999000000005,-10.45547866821289,-0.6440402865409851,0.3926490843296051,-5.706787109375,-0.30517578125,20.5535888671875
5.6499999,-10.484209060668945,-0.6871358752250671,0.3471592366695404,-4.3792724609375,0.54931640625,1.190185546875
5.6699999000000005,-10.735600471496582,-0.7493851184844971,0.3280056416988373,-2.716064453125,-0.8392333984375,-2.0904541015625
5.6899999,-10.6709566116333,-0.7972691655158997,0.31842881441116333,0.701904296875,-0.8392333984375,2.8076171875
5.709999900000001,-10.493785858154297,-0.8140285611152649,0.28969839215278625,3.570556640625,-2.7008056640625,6.1492919921875
5.7299999,-10.228029251098633,-0.7924807667732239,0.26575639843940735,4.913330078125,-3.9215087890625,10.0250244140625
5.749999900000001,-10.010157585144043,-0.7230489253997803,0.2801215946674347,4.730224609375,-5.1116943359375,12.4664306640625
5.7699999,-9.897629737854004,-0.6129156351089478,0.3208230137825012,3.96728515625,-5.4931640625,13.336181640625
5.789999900000001,-9.873687744140625,-0.45489832758903503,0.40940847992897034,2.0904541015625,-4.486083984375,12.26806640625
5.8099999,-9.892841339111328,-0.26336219906806946,0.49799394607543945,-0.640869140625,-3.1280517578125,8.880615234375
5.829999900000001,-9.9000244140625,-0.06703764945268631,0.5913678407669067,-2.5634765625,-2.2735595703125,4.2572021484375
5.8499999,-9.895236015319824,0.10295066982507706,0.6655880808830261,-4.57763671875,-0.9918212890625,0.885009765625
5.869999900000001,-9.897629737854004,0.21308395266532898,0.7110779285430908,-6.34765625,0.6866455078125,-1.8463134765625
5.8899999,-9.90241813659668,0.24660277366638184,0.7398083209991455,-6.317138671875,1.5411376953125,-4.913330078125
5.909999900000001,-9.911994934082031,0.21547815203666687,0.7493851184844971,-5.0048828125,2.3193359375,-7.26318359375
5.9299999,-9.921571731567383,0.14604631066322327,0.751779317855835,-4.0130615234375,3.4637451171875,-7.476806640625
5.949999900000001,-9.888052940368652,0.07422025501728058,0.7637503147125244,-3.8299560546875,4.3487548828125,-5.1422119140625
5.9699999,-9.883264541625977,-0.026336219161748886,0.7948749661445618,-3.6773681640625,4.5623779296875,-0.152587890625
5.989999900000001,-9.883264541625977,-0.09816227108240128,0.8259995579719543,-4.547119140625,4.669189453125,5.859375
6.0099999,-9.952696800231934,-0.14604631066322327,0.8475474119186401,-5.859375,5.279541015625,14.6636962890625
6.029999900000001,-9.99339771270752,-0.1388636976480484,0.8427590131759644,-7.4920654296875,5.157470703125,19.744873046875
6.0499999,-10.017339706420898,-0.014365210197865963,0.7996633648872375,-9.6435546875,5.5084228515625,21.148681640625
6.069999900000001,-9.986215591430664,0.1843535304069519,0.7158663272857666,-11.260986328125,5.9051513671875,20.8892822265625
6.0899999000000005,-9.950302124023438,0.42616790533065796,0.6200982332229614,-12.298583984375,5.645751953125,17.9443359375
6.109999900000001,-9.931148529052734,0.6416460275650024,0.5123591423034668,-13.36669921875,5.645751953125,13.9007568359375
6.1299999000000005,-9.938331604003906,0.7781155705451965,0.40701428055763245,-14.1754150390625,6.1492919921875,9.5062255859375
6.149999900000001,-9.95748519897461,0.8451532125473022,0.3256114423274994,-13.9312744140625,6.2255859375,4.8980712890625
6.1699999000000005,-9.974244117736816,0.8259995579719543,0.2753331959247589,-12.359619140625,5.2947998046875,1.9989013671875
6.1899999,-9.979032516479492,0.7493851184844971,0.2537853717803955,-11.5814208984375,4.7454833984375,1.495361328125
6.209999900000001,-9.99100399017334,0.6272808313369751,0.2537853717803955,-12.0697021484375,4.8065185546875,1.6021728515625
6.2299999,-9.995792388916016,0.4644751250743866,0.26096799969673157,-11.444091796875,4.33349609375,1.8463134765625
6.249999900000001,-9.998186111450195,0.2992752194404602,0.2561795711517334,-8.9569091796875,3.326416015625,2.593994140625
6.2699999,-10.007762908935547,0.15801730751991272,0.23942017555236816,-5.096435546875,2.349853515625,3.6773681640625
6.289999900000001,-10.012551307678223,0.047884032130241394,0.21308395266532898,-0.9613037109375,1.2969970703125,4.7149658203125
6.3099999,-10.012551307678223,0.002394201699644327,0.18914192914962769,1.983642578125,0.091552734375,5.767822265625
6.329999900000001,-10.007762908935547,0.016759412363171577,0.17956513166427612,3.8299560546875,-0.701904296875,6.744384765625
6.3499999,-10.000580787658691,0.11013327538967133,0.19871874153614044,4.5166015625,-1.1749267578125,7.3699951171875
6.369999900000001,-9.995792388916016,0.23942017555236816,0.24420857429504395,3.662109375,-1.068115234375,7.4920654296875
6.3899999,-9.979032516479492,0.3998316824436188,0.3016694188117981,1.6021728515625,-0.7476806640625,7.4615478515625
6.409999900000001,-9.962273597717285,0.5410895943641663,0.35913026332855225,-1.4495849609375,-0.3662109375,7.32421875
6.4299999,-9.947908401489258,0.667982280254364,0.4165911078453064,-4.241943359375,0.030517578125,7.049560546875
6.449999900000001,-9.93593692779541,0.7781155705451965,0.4668693244457245,-6.1187744140625,0.6866455078125,6.378173828125
6.4699999,-9.926360130310059,0.8595184087753296,0.507570743560791,-7.293701171875,1.5716552734375,4.8065185546875
6.489999900000001,-9.921571731567383,0.9097966551780701,0.5315127968788147,-8.7127685546875,2.3345947265625,3.4942626953125
6.5099999,-9.916783332824707,0.9097966551780701,0.5219359993934631,-9.27734375,2.960205078125,2.960205078125
6.529999900000001,-9.928754806518555,0.8738836050033569,0.4836287498474121,-7.6904296875,2.9754638671875,2.3040771484375
6.5499999,-9.943120002746582,0.8140285611152649,0.4189853072166443,-4.4403076171875,2.4566650390625,1.373291015625
6.569999900000001,-9.95748519897461,0.7565677165985107,0.3495534360408783,-1.5106201171875,2.0904541015625,0.5645751953125
6.5899999000000005,-9.967061996459961,0.7038952708244324,0.2801215946674347,0.48828125,1.4190673828125,0.1220703125
6.609999900000001,-9.974244117736816,0.6775590777397156,0.22744916379451752,2.25830078125,0.5645751953125,-0.3204345703125
6.6299999000000005,-9.981427192687988,0.6488286852836609,0.1867477297782898,4.0435791015625,-0.335693359375,-0.6561279296875
6.649999900000001,-9.986215591430664,0.6200982332229614,0.17477671802043915,4.6844482421875,-1.15966796875,-0.5645751953125
6.6699999000000005,-9.976638793945312,0.6009446382522583,0.19871874153614044,3.47900390625,-1.6326904296875,0.42724609375
6.6899999,-9.967061996459961,0.6392518281936646,0.2992752194404602,0.9002685546875,-1.4190673828125,1.1138916015625
6.709999900000001,-9.93593692779541,0.6967126727104187,0.47405192255973816,-6.1798095703125,0.7476806640625,0.9613037109375
6.7299999,-9.897629737854004,0.7445967197418213,0.6967126727104187,-17.333984375,4.5166015625,2.044677734375
6.749999900000001,-9.794678688049316,0.8355764150619507,0.9026140570640564,-27.679443359375,7.9193115234375,4.0435791015625
6.7699999,-9.768342971801758,0.6847416758537292,0.933738648891449,-28.594970703125,10.4827880859375,5.859375
6.789999900000001,-9.806650161743164,0.29209262132644653,0.42377370595932007,-1.983642578125,7.7972412109375,11.65771484375
6.8099999,-9.945513725280762,0.11971008777618408,0.0454898327589035,8.941650390625,0.79345703125,17.181396484375
6.829999900000001,-10.065223693847656,0.1867477297782898,-0.21787235140800476,11.16943359375,-5.5084228515625,18.9208984375
6.8499999,-10.019734382629395,0.4189853072166443,-0.2561795711517334,6.9427490234375,-7.965087890625,13.6566162109375
6.869999900000001,-10.036493301391602,0.7757213711738586,-0.20111294090747833,0.885009765625,-4.364013671875,10.1165771484375
6.8899999,-9.945513725280762,1.2713210582733154,0.0071826050989329815,-1.4495849609375,-2.7008056640625,9.1552734375
6.909999900000001,-9.90241813659668,1.7094600200653076,0.2753331959247589,-7.5836181640625,-1.3885498046875,6.2713623046875
6.9299999,-9.926360130310059,2.008735179901123,0.49799394607543945,-21.78955078125,6.9580078125,1.15966796875
6.949999900000001,-9.979032516479492,2.1954829692840576,0.5578489899635315,-26.1993408203125,9.6893310546875,-6.1798095703125
6.9699999,-10.065223693847656,2.1308395862579346,0.5554547905921936,-15.2130126953125,1.77001953125,-10.650634765625
6.989999900000001,-10.08437728881836,2.03507137298584,0.38546648621559143,-2.6092529296875,-2.349853515625,-20.5841064453125
7.0099999,-10.113107681274414,1.7717092037200928,0.2777273952960968,5.157470703125,1.8157958984375,-29.78515625
7.029999900000001,-9.981427192687988,1.5107412338256836,0.18914192914962769,10.92529296875,2.7008056640625,-37.1551513671875
7.0499999,-9.861717224121094,1.039083480834961,0.22026655077934265,15.07568359375,3.7078857421875,-32.3638916015625
7.069999900000001,-9.773131370544434,0.5195417404174805,0.27054479718208313,13.458251953125,5.9967041015625,-22.64404296875
7.0899999000000005,-9.799467086791992,-0.13168109953403473,0.2753331959247589,7.4462890625,8.148193359375,-10.6658935546875
7.109999900000001,-9.892841339111328,-0.5722141861915588,0.2777273952960968,8.3465576171875,3.11279296875,-4.638671875
7.1299999000000005,-9.952696800231934,-0.9241618514060974,0.24420857429504395,16.8304443359375,-5.31005859375,-3.7689208984375
7.149999900000001,-10.002974510192871,-0.8523358106613159,0.26336219906806946,20.8587646484375,-2.4566650390625,-3.0975341796875
7.1699999000000005,-9.931148529052734,-0.5554547905921936,0.3663128614425659,14.6026611328125,5.1422119140625,-3.3416748046875
7.1899999,-9.876082420349121,-0.07900865375995636,0.5123591423034668,-0.2288818359375,12.3138427734375,-3.0059814453125
7.209999900000001,-9.828198432922363,0.3711012601852417,0.5506663918495178,-14.678955078125,11.6729736328125,0.4119873046875
7.2299999,-9.880870819091797,0.7254431247711182,0.45489832758903503,-20.6756591796875,13.214111328125,5.79833984375
7.249999900000001,-9.919178009033203,0.8834604024887085,0.20111294090747833,-16.5252685546875,8.4991455078125,3.4637451171875
7.2699999,-10.04846477508545,0.8068459630012512,-0.15801730751991272,-7.4310302734375,-0.152587890625,-6.1187744140625
7.289999900000001,-10.139444351196289,0.6057330369949341,-0.5171475410461426,4.791259765625,-6.683349609375,-6.9580078125
7.3099999,-10.15141487121582,0.3256114423274994,-0.8259995579719543,17.791748046875,-7.1258544921875,-4.33349609375
7.329999900000001,-10.211270332336426,0.090979665517807,-0.9600749015808105,23.0865478515625,-6.072998046875,-4.8980712890625
7.3499999,-10.141838073730469,-0.09576806426048279,-0.9457096457481384,19.775390625,-14.068603515625,-1.0528564453125
7.369999900000001,-10.194510459899902,-0.12689268589019775,-0.768538773059845,17.852783203125,-17.1661376953125,8.5601806640625
7.3899999,-10.105925559997559,-0.11252748221158981,-0.5291185975074768,23.8189697265625,-21.636962890625,9.4757080078125
7.409999900000001,-10.019734382629395,-0.021547814831137657,-0.24899697303771973,26.55029296875,-26.763916015625,1.495361328125
7.4299999,-9.955090522766113,0.09816227108240128,0.009576806798577309,27.252197265625,-24.2767333984375,1.7547607421875
7.449999900000001,-9.825803756713867,0.2825157940387726,0.40940847992897034,27.069091796875,-19.287109375,4.1961669921875
7.4699999,-9.804255485534668,0.569819986820221,0.8954314589500427,14.923095703125,-9.3841552734375,5.3558349609375
7.489999900000001,-9.6989107131958,0.9074024558067322,1.414973258972168,-5.7830810546875,-5.0201416015625,3.4027099609375
7.5099999,-9.792284965515137,1.1994950771331787,1.8148049116134644,-15.625,3.326416015625,4.974365234375
7.529999900000001,-9.68933391571045,1.3527239561080933,1.9967641830444336,-12.2528076171875,3.7841796875,1.708984375
7.5499999,-9.780313491821289,1.259350061416626,1.9033904075622559,-12.0391845703125,3.9520263671875,-5.401611328125
7.569999900000001,-9.758766174316406,1.0031704902648926,1.6160861253738403,-12.2833251953125,8.148193359375,-9.4146728515625
7.5899999000000005,-9.734824180603027,0.7158663272857666,1.278503656387329,-9.674072265625,14.2364501953125,-3.41796875
7.609999900000001,-9.849745750427246,0.5051765441894531,0.8882488012313843,-14.3585205078125,16.7388916015625,-1.2054443359375
7.6299999000000005,-9.856928825378418,0.28730419278144836,0.45250412821769714,-17.8375244140625,12.847900390625,0.762939453125
7.649999900000001,-10.127472877502441,0.1173158809542656,-0.026336219161748886,-8.2550048828125,5.3863525390625,6.134033203125
7.6699999000000005,-10.187328338623047,-0.0933738648891449,-0.49799394607543945,13.519287109375,-5.67626953125,2.5177001953125
7.6899999,-10.347740173339844,-0.2106897532939911,-0.8690952062606812,31.036376953125,-15.777587890625,-0.030517578125
7.709999900000001,-10.189722061157227,-0.10534487664699554,-0.9241618514060974,35.58349609375,-18.768310546875,-3.4942626953125
7.7299999,-10.144232749938965,0.12689268589019775,-0.545877993106842,25.45166015625,-13.916015625,1.1749267578125
7.749999900000001,-9.938331604003906,0.6105214357376099,0.11013327538967133,2.1514892578125,-3.0670166015625,1.983642578125
7.7699999,-9.864110946655273,0.8475474119186401,0.7661445140838623,-13.1683349609375,0.5035400390625,2.99072265625
7.789999900000001,-9.861717224121094,0.9959878921508789,1.1779472827911377,-7.843017578125,-3.3416748046875,3.84521484375
7.8099999,-9.880870819091797,0.8930372595787048,1.2186486721038818,6.3018798828125,-7.8125,3.2196044921875
7.829999900000001,-9.890447616577148,0.6272808313369751,1.039083480834961,15.19775390625,-8.331298828125,-1.3427734375
7.8499999,-9.909601211547852,0.4141969084739685,0.8331822156906128,14.5263671875,-6.7596435546875,-3.3721923828125
7.869999900000001,-9.856928825378418,0.37828385829925537,0.9265560507774353,7.9498291015625,-3.0364990234375,-0.9002685546875
7.8899999,-9.801861763000488,0.47165772318840027,1.1563993692398071,-11.4288330078125,8.453369140625,4.2572021484375
7.909999900000001,-9.75397777557373,0.6799532771110535,1.4053963422775269,-29.449462890625,17.3187255859375,5.0201416015625
7.9299999,-9.758766174316406,0.8547300100326538,1.5610195398330688,-29.296875,16.3421630859375,5.9356689453125
7.949999900000001,-9.801861763000488,0.8643068075180054,1.37906014919281,-18.768310546875,8.1787109375,2.7008056640625
7.9699999,-9.940725326538086,0.7876923680305481,0.9696516990661621,-6.134033203125,9.9639892578125,-1.251220703125
7.989999900000001,-9.950302124023438,0.6967126727104187,0.5554547905921936,3.204345703125,9.9639892578125,-6.1492919921875
8.0099999,-9.995792388916016,0.6105214357376099,0.2059013396501541,2.8533935546875,8.48388671875,-7.3394775390625
8.0299999,-9.959878921508789,0.5650315880775452,0.040701430290937424,-4.364013671875,6.591796875,-0.030517578125
8.049999900000001,-10.017339706420898,0.5386953949928284,-0.17717093229293823,-14.0380859375,9.46044921875,1.9989013671875
8.069999900000001,-10.122684478759766,0.395043283700943,-0.3016694188117981,-0.823974609375,2.1820068359375,1.89208984375
8.0899999,-10.223240852355957,0.3423708379268646,-0.524330198764801,17.7154541015625,-14.5111083984375,-1.068115234375
8.1099999,-10.27591323852539,0.1412578970193863,-0.6488286852836609,30.3192138671875,-21.728515625,-0.8087158203125
8.129999900000001,-10.20887565612793,0.10055647045373917,-0.5722141861915588,36.590576171875,-17.9443359375,-0.67138671875
8.149999900000001,-10.002974510192871,0.15322890877723694,-0.24420857429504395,28.01513671875,-13.5650634765625,-3.6163330078125
8.1699999,-9.888052940368652,0.5123591423034668,0.47644615173339844,7.7362060546875,-10.9710693359375,2.5482177734375
8.1899999,-9.710882186889648,0.8451532125473022,1.1013327836990356,-21.7132568359375,-1.1138916015625,5.3253173828125
8.2099999,-9.794678688049316,1.1420341730117798,1.721431016921997,-28.717041015625,8.6669921875,4.9285888671875
8.229999900000001,-9.742006301879883,1.2114660739898682,1.9177556037902832,-18.890380859375,5.645751953125,-0.3814697265625
8.2499999,-9.861717224121094,0.9552865028381348,1.7046716213226318,-7.0953369140625,-0.06103515625,-3.35693359375
8.2699999,-9.873687744140625,0.6607996821403503,1.338358759880066,7.781982421875,1.1138916015625,-3.662109375
8.2899999,-9.885659217834473,0.395043283700943,1.0103530883789062,8.1329345703125,6.28662109375,-1.3885498046875
8.309999900000001,-9.856928825378418,0.45250412821769714,0.8834604024887085,-6.0882568359375,14.739990234375,-2.4566650390625
8.3299999,-9.785101890563965,0.6272808313369751,0.9576807022094727,-22.1710205078125,13.2904052734375,1.2054443359375
8.3499999,-9.770736694335938,0.871489405632019,0.9864110946655273,-31.6925048828125,18.7835693359375,-0.9765625
8.3699999,-9.856928825378418,0.9696516990661621,0.7781155705451965,-24.7802734375,15.1824951171875,1.8768310546875
8.389999900000001,-9.919178009033203,0.8331822156906128,0.3758896589279175,-5.950927734375,4.241943359375,-3.35693359375
8.4099999,-10.093954086303711,0.5530605912208557,-0.13168109953403473,11.2152099609375,-3.4027099609375,-8.056640625
8.4299999,-10.125079154968262,0.33758243918418884,-0.3902548849582672,16.9830322265625,-3.936767578125,-9.0179443359375
8.4499999,-10.074800491333008,0.24420857429504395,-0.3208230137825012,6.28662109375,1.2969970703125,-2.6397705078125
8.469999900000001,-10.036493301391602,0.33997663855552673,0.08140286058187485,-12.2528076171875,7.598876953125,0.457763671875
8.4899999,-10.019734382629395,0.4141969084739685,0.3711012601852417,-21.1944580078125,5.1116943359375,-0.701904296875
8.5099999,-10.06043529510498,0.4189853072166443,0.5434837937355042,-4.94384765625,1.89208984375,-0.732421875
8.5299999,-10.072406768798828,0.3208230137825012,0.3663128614425659,14.16015625,-6.7291259765625,4.669189453125
8.549999900000001,-10.031704902648926,0.181959331035614,0.181959331035614,23.834228515625,-10.284423828125,0.30517578125
8.569999900000001,-10.036493301391602,0.12210428714752197,0.090979665517807,21.97265625,-8.8348388671875,-4.4097900390625
8.5899999,-9.84256362915039,0.33758243918418884,0.40462008118629456,10.1776123046875,-2.6092529296875,-5.1422119140625
8.6099999,-9.770736694335938,0.6655880808830261,0.9744400978088379,-18.4326171875,7.8582763671875,2.227783203125
8.629999900000001,-9.679757118225098,1.113303780555725,1.5825673341751099,-53.2379150390625,23.4375,2.5177001953125
8.649999900000001,-9.612719535827637,1.3718775510787964,1.8746598958969116,-61.5692138671875,25.4669189453125,-2.838134765625
8.6699999,-9.660603523254395,1.3551181554794312,1.8555063009262085,-46.600341796875,22.369384765625,-4.0283203125
8.6899999,-9.763554573059082,1.1444283723831177,1.460463047027588,-42.0074462890625,21.5301513671875,0.030517578125
8.709999900000001,-9.77791976928711,0.7565677165985107,0.9289502501487732,-45.562744140625,23.4375,-2.5482177734375
8.729999900000001,-9.828198432922363,0.49320554733276367,0.5434837937355042,-40.6036376953125,28.076171875,-6.77490234375
8.7499999,-9.744400978088379,0.3711012601852417,0.3734954595565796,-39.520263671875,28.3660888671875,-5.7373046875
8.7699999,-9.80904483795166,0.2944868206977844,0.26336219906806946,-59.600830078125,35.0494384765625,0.7171630859375
8.7899999,-9.852140426635742,0.31842881441116333,0.2082955539226532,-65.5517578125,36.19384765625,3.96728515625
8.809999900000001,-9.988609313964844,0.07422025501728058,-0.3495534360408783,-45.2880859375,35.4461669921875,0.1220703125
8.8299999,-10.18493366241455,-0.1867477297782898,-1.1444283723831177,3.0975341796875,18.2037353515625,-0.30517578125
8.8499999,-10.369287490844727,-0.3208230137825012,-1.9512743949890137,43.6553955078125,-3.3111572265625,0.9918212890625
8.8699999,-10.498574256896973,-0.22744916379451752,-2.3798365592956543,41.1224365234375,-12.3748779296875,1.0223388671875
8.889999900000001,-10.433931350708008,0.11252748221158981,-2.2577321529388428,15.6402587890625,-11.0015869140625,-3.5858154296875
8.9099999,-10.29746150970459,0.5650315880775452,-1.6543933153152466,2.0751953125,-5.1116943359375,-7.781982421875
8.9299999,-9.998186111450195,0.7781155705451965,-0.9648633003234863,-1.0986328125,-2.0751953125,-7.2479248046875
8.9499999,-9.883264541625977,0.8762778043746948,-0.3016694188117981,-3.662109375,0.3204345703125,-4.0283203125
8.969999900000001,-9.830592155456543,0.6272808313369751,-0.014365210197865963,-3.2501220703125,-1.3885498046875,-0.30517578125
8.9899999,-9.943120002746582,0.30885201692581177,-0.028730420395731926,7.843017578125,-3.1890869140625,-0.1068115234375
9.0099999,-9.971850395202637,-0.05985504388809204,-0.3016694188117981,29.11376953125,-14.129638671875,1.922607421875
9.0299999,-10.077195167541504,-0.2777273952960968,-0.5530605912208557,34.881591796875,-18.98193359375,1.2969970703125
9.049999900000001,-10.036493301391602,-0.2849099934101105,-0.6009446382522583,23.468017578125,-18.2037353515625,1.983642578125
9.069999900000001,-9.959878921508789,-0.043095629662275314,-0.33518823981285095,5.67626953125,-10.1470947265625,1.922607421875
9.0899999,-9.885659217834473,0.20111294090747833,-0.035913024097681046,-5.37109375,-2.3651123046875,2.7313232421875
9.1099999,-9.84495735168457,0.3734954595565796,0.2298433631658554,-5.9661865234375,-1.312255859375,5.1422119140625
9.129999900000001,-9.919178009033203,0.47644615173339844,0.19871874153614044,-3.814697265625,-5.1727294921875,8.209228515625
9.149999900000001,-9.964667320251465,0.40701428055763245,-0.021547814831137657,5.706787109375,-9.1400146484375,6.0882568359375
9.1699999,-10.139444351196289,0.3663128614425659,-0.37828385829925537,24.871826171875,-17.9290771484375,6.53076171875
9.1899999,-10.144232749938965,0.23942017555236816,-0.6751648783683777,37.933349609375,-25.177001953125,3.3111572265625
9.209999900000001,-10.15141487121582,0.27054479718208313,-0.7757213711738586,41.1376953125,-29.0679931640625,0.1373291015625
9.229999900000001,-10.065223693847656,0.3758896589279175,-0.47165772318840027,35.15625,-24.59716796875,-0.091552734375
9.2499999,-9.897629737854004,0.6943184733390808,0.11971008777618408,15.7928466796875,-13.24462890625,-0.7476806640625
9.2699999,-9.78989028930664,1.0462661981582642,0.9792284965515137,-10.80322265625,-3.204345703125,1.40380859375
9.2899999,-9.600749015808105,1.2210428714752197,1.577778935432434,-33.7066650390625,4.3792724609375,1.64794921875
9.309999900000001,-9.749189376831055,1.1420341730117798,1.802833914756775,-25.787353515625,6.500244140625,1.9378662109375
9.3299999,-9.732429504394531,0.689530074596405,1.4532804489135742,1.3885498046875,0.091552734375,2.716064453125
9.3499999,-9.916783332824707,0.26096799969673157,0.8667010068893433,21.6522216796875,-5.3558349609375,-0.06103515625
9.3699999,-9.981427192687988,-0.12928688526153564,0.2322375625371933,33.447265625,-7.568359375,-2.288818359375
9.389999900000001,-9.981427192687988,-0.14604631066322327,-0.011971008032560349,34.088134765625,-4.2572021484375,-0.885009765625
9.4099999,-9.974244117736816,0.22026655077934265,0.17956513166427612,14.4805908203125,3.631591796875,0.3814697265625
9.4299999,-9.890447616577148,0.7206547260284424,0.6320692300796509,-21.5606689453125,8.1634521484375,2.9296875
9.4499999,-9.876082420349121,1.2018892765045166,1.0223240852355957,-49.49951171875,18.4173583984375,-1.2054443359375
9.469999900000001,-9.888052940368652,1.3646949529647827,1.1013327836990356,-42.2515869140625,15.5181884765625,-0.518798828125
9.4899999,-9.981427192687988,1.0989385843276978,0.6129156351089478,-16.5557861328125,5.523681640625,-3.4332275390625
9.5099999,-10.074800491333008,0.5434837937355042,-0.1388636976480484,9.490966796875,-5.523681640625,-4.2877197265625
9.5299999,-10.17296314239502,-0.06703764945268631,-0.8762778043746948,30.914306640625,-11.5814208984375,-2.44140625
9.549999900000001,-10.170568466186523,-0.37828385829925537,-1.1851298809051514,41.6107177734375,-13.7481689453125,0.91552734375
9.569999900000001,-10.129867553710938,-0.31124621629714966,-0.9074024558067322,29.1900634765625,-15.4876708984375,5.7373046875
9.5899999,-10.062829971313477,-0.011971008032560349,-0.43335050344467163,2.74658203125,-10.92529296875,6.4544677734375
9.6099999,-10.110713958740234,0.5003881454467773,0.23702596127986908,0.30517578125,-9.33837890625,4.5928955078125
9.629999900000001,-9.979032516479492,0.7924807667732239,0.6105214357376099,8.7738037109375,-13.8397216796875,2.655029296875
9.649999900000001,-10.034099578857422,0.950498104095459,0.7326257228851318,14.7705078125,-15.44189453125,-1.617431640625
9.6699999,-9.885659217834473,0.9433154463768005,0.8068459630012512,21.026611328125,-15.0604248046875,-4.974365234375
9.6899999,-9.787496566772461,0.8906430602073669,0.9864110946655273,15.7623291015625,-7.8125,-4.241943359375
9.709999900000001,-9.727641105651855,0.9026140570640564,1.2689268589019775,-3.631591796875,3.2958984375,-2.2125244140625
9.729999900000001,-9.66299819946289,0.8331822156906128,1.580173134803772,-21.4385986328125,7.6141357421875,1.6021728515625
9.7499999,-9.713275909423828,0.7852981686592102,1.6089035272598267,-21.8353271484375,12.02392578125,0.640869140625
9.7699999,-9.828198432922363,0.5793967843055725,1.4269442558288574,-6.9122314453125,6.4849853515625,2.6092529296875
9.7899999,-9.940725326538086,0.3687070608139038,0.8906430602073669,6.0882568359375,0.6561279296875,-1.251220703125
9.809999900000001,-10.034099578857422,0.24181437492370605,0.43095630407333374,13.9923095703125,-3.3111572265625,-3.2958984375
9.8299999,-10.067618370056152,0.22505496442317963,0.10773907601833344,14.0533447265625,-1.3885498046875,-4.058837890625
9.8499999,-10.04846477508545,0.40701428055763245,0.10055647045373917,4.9285888671875,4.0740966796875,-2.2125244140625
9.8699999,-9.955090522766113,0.6200982332229614,0.395043283700943,-10.589599609375,4.7454833984375,0.91552734375
9.889999900000001,-9.95748519897461,0.7972691655158997,0.5985504388809204,-23.8037109375,7.904052734375,1.2359619140625
9.9099999,-9.981427192687988,0.8044517636299133,0.7589619159698486,-16.9677734375,6.591796875,1.3275146484375
9.9299999,-10.005369186401367,0.6200982332229614,0.5147533416748047,-2.410888671875,-1.52587890625,-2.3040771484375
9.9499999,-10.074800491333008,0.304063618183136,0.19153612852096558,14.0380859375,-7.354736328125,-3.0975341796875
9.969999900000001,-10.06043529510498,0.07422025501728058,-0.11013327538967133,25.4669189453125,-9.8724365234375,-3.3416748046875
9.9899999,-10.010157585144043,0.028730420395731926,-0.1173158809542656,24.3072509765625,-6.3934326171875,-2.3651123046875
10.0099999,-9.962273597717285,0.21787235140800476,0.16759411990642548,9.918212890625,-1.40380859375,-0.0457763671875
10.0299999,-9.8784761428833,0.5051765441894531,0.5841852426528931,-8.4228515625,-0.5950927734375,3.23486328125
10.049999900000001,-9.938331604003906,0.7805097699165344,0.993593692779541,-15.472412109375,4.2266845703125,3.11279296875
10.069999900000001,-9.895236015319824,0.8164227604866028,1.0893617868423462,-12.6190185546875,1.373291015625,0.91552734375
10.0899999,-9.962273597717285,0.7086837291717529,1.0438719987869263,-5.4931640625,-1.2054443359375,-2.288818359375
10.1099999,-9.93593692779541,0.5171475410461426,0.8307880163192749,2.2735595703125,-2.5787353515625,-2.5177001953125
10.129999900000001,-9.9000244140625,0.363918662071228,0.7206547260284424,1.495361328125,2.0599365234375,-1.8157958984375
10.149999900000001,-9.892841339111328,0.33758243918418884,0.7086837291717529,-5.31005859375,8.8958740234375,0.6256103515625
10.1699999,-9.84495735168457,0.4381389021873474,0.7924807667732239,-12.542724609375,6.988525390625,3.692626953125
10.1899999,-9.828198432922363,0.5650315880775452,0.8786720037460327,-15.6402587890625,8.6517333984375,3.265380859375
10.209999900000001,-9.921571731567383,0.6584054827690125,0.8643068075180054,-15.380859375,7.1868896484375,3.997802734375
10.229999900000001,-9.907206535339355,0.6919242739677429,0.7661445140838623,-19.622802734375,4.9591064453125,-0.9613037109375
10.2499999,-10.010157585144043,0.7038952708244324,0.6200982332229614,-21.30126953125,5.43212890625,-4.150390625
10.2699999,-9.931148529052734,0.8020575642585754,0.7158663272857666,-20.20263671875,8.1939697265625,-5.279541015625
10.2899999,-9.84256362915039,0.8403648138046265,0.8619126081466675,-39.031982421875,18.829345703125,-3.875732421875
10.309999900000001,-9.765948295593262,0.9959878921508789,1.2473790645599365,-62.7593994140625,29.5257568359375,-0.030517578125
10.3299999,-9.624691009521484,0.8667010068893433,1.359906554222107,-76.35498046875,34.11865234375,1.800537109375
10.3499999,-9.749189376831055,0.5363011956214905,1.1109095811843872,-61.248779296875,33.4320068359375,1.40380859375
10.3699999,-9.785101890563965,0.21308395266532898,0.5506663918495178,-25.0701904296875,21.2860107421875,2.777099609375
10.389999900000001,-10.093954086303711,-0.26096799969673157,-0.3878606855869293,-8.3465576171875,15.625,5.6915283203125
10.4099999,-10.251971244812012,-0.5482721924781799,-1.338358759880066,10.9405517578125,3.570556640625,2.9144287109375
10.4299999,-10.472238540649414,-0.6177040338516235,-2.1571757793426514,48.492431640625,-10.8642578125,-4.0130615234375
10.4499999,-10.517727851867676,-0.3519476354122162,-2.38462495803833,74.127197265625,-22.52197265625,-2.25830078125
10.469999900000001,-10.359710693359375,0.11013327538967133,-2.056619167327881,49.0570068359375,-20.4315185546875,-3.6773681640625
10.4899999,-9.911994934082031,1.237802267074585,0.05985504388809204,-13.9923095703125,-2.7008056640625,-4.21142578125
10.5099999,-9.852140426635742,1.2401964664459229,0.7924807667732239,-14.678955078125,0.8697509765625,-2.685546875
10.5299999,-9.864110946655273,0.8762778043746948,0.9840168952941895,10.223388671875,-9.3231201171875,-0.42724609375
10.549999900000001,-9.938331604003906,0.33518823981285095,0.7158663272857666,30.181884765625,-15.8538818359375,1.9989013671875
10.569999900000001,-9.976638793945312,-0.05985504388809204,0.29209262132644653,38.5894775390625,-16.6015625,0.1678466796875
10.5899999,-9.981427192687988,-0.12689268589019775,0.21547815203666687,35.2020263671875,-14.9383544921875,-2.532958984375
10.6099999,-9.840168952941895,0.15322890877723694,0.45250412821769714,12.4969482421875,-6.4239501953125,0.30517578125
10.629999900000001,-9.81143856048584,0.5722141861915588,0.9672574996948242,-18.7530517578125,8.23974609375,1.1444091796875
10.649999900000001,-9.75397777557373,0.9313444495201111,1.4317326545715332,-33.5693359375,13.427734375,0.8392333984375
10.6699999,-9.856928825378418,0.9528923034667969,1.4077905416488647,-30.6243896484375,15.350341796875,2.86865234375
10.6899999,-9.945513725280762,0.7493851184844971,0.9959878921508789,-10.7879638671875,5.035400390625,4.8828125
10.709999900000001,-10.096348762512207,0.31364041566848755,0.26815059781074524,9.70458984375,-4.180908203125,3.0670166015625
10.729999900000001,-10.146626472473145,0.033518824726343155,-0.40222588181495667,21.0113525390625,-7.8125,-0.2593994140625
10.7499999,-10.103530883789062,-0.031124621629714966,-0.6224924325942993,27.5421142578125,-9.1400146484375,-1.15966796875
10.7699999,-10.072406768798828,0.16998831927776337,-0.42377370595932007,19.317626953125,-4.638671875,0.0762939453125
10.7899999,-9.976638793945312,0.49320554733276367,0.15083470940589905,-1.708984375,2.288818359375,2.4871826171875
10.809999900000001,-9.938331604003906,0.790086567401886,0.730231523513794,-20.751953125,9.5367431640625,2.9449462890625
10.8299999,-9.873687744140625,0.9576807022094727,1.113303780555725,-22.5830078125,9.6282958984375,3.4942626953125
10.8499999,-9.895236015319824,0.9145850539207458,1.1037269830703735,-16.2200927734375,7.232666015625,0.3814697265625
10.8699999,-9.86889934539795,0.727837324142456,0.7469909191131592,-9.3231201171875,4.2572021484375,-2.44140625
10.889999900000001,-9.904812812805176,0.47165772318840027,0.31603461503982544,0.823974609375,3.4332275390625,-4.3792724609375
10.9099999,-9.914389610290527,0.27054479718208313,-0.06464344263076782,8.4381103515625,2.2735595703125,-4.0130615234375
10.9299999,-9.976638793945312,0.1173158809542656,-0.23942017555236816,7.4462890625,1.678466796875,0.885009765625
10.9499999,-10.031704902648926,0.1149216815829277,-0.24420857429504395,2.25830078125,1.03759765625,4.180908203125
10.969999900000001,-10.101137161254883,0.1628057211637497,-0.15801730751991272,2.8839111328125,-2.6092529296875,5.615234375
10.9899999,-10.113107681274414,0.31364041566848755,-0.10055647045373917,7.0343017578125,-6.0577392578125,1.7242431640625
11.0099999,-10.062829971313477,0.40940847992897034,-0.031124621629714966,10.4522705078125,-7.75146484375,-1.0833740234375
11.0299999,-10.005369186401367,0.5123591423034668,0.08379705995321274,11.383056640625,-4.8675537109375,-2.349853515625
11.049999900000001,-9.914389610290527,0.5650315880775452,0.31124621629714966,6.0882568359375,-2.593994140625,0.701904296875
11.069999900000001,-9.971850395202637,0.40701428055763245,0.363918662071228,-1.3275146484375,3.11279296875,1.6937255859375
11.0899999,-9.99100399017334,0.3256114423274994,0.38067805767059326,12.4969482421875,-1.739501953125,5.2947998046875
11.1099999,-10.067618370056152,0.24899697303771973,0.30885201692581177,28.7933349609375,-8.453369140625,5.889892578125
11.129999900000001,-10.163386344909668,0.33039984107017517,0.2753331959247589,23.0560302734375,-6.8206787109375,9.2010498046875
11.149999900000001,-10.0580415725708,0.5674257874488831,0.4357447028160095,11.0931396484375,-0.79345703125,7.6751708984375
11.1699999,-10.127472877502441,0.8667010068893433,0.689530074596405,3.8604736328125,5.950927734375,7.99560546875
11.1899999,-10.079588890075684,1.113303780555725,0.871489405632019,1.0986328125,4.913330078125,2.349853515625
11.209999900000001,-10.180145263671875,1.237802267074585,0.9193734526634216,0.5950927734375,4.9591064453125,-2.2125244140625
11.229999900000001,-10.323798179626465,1.2473790645599365,0.7972691655158997,1.251220703125,5.55419921875,-4.547119140625
11.2499999,-10.469843864440918,1.137245774269104,0.5841852426528931,2.410888671875,2.7923583984375,-6.8817138671875
11.2699999,-10.63504409790039,0.9576807022094727,0.3232172429561615,4.0740966796875,1.6937255859375,-7.9193115234375
11.2899999,-10.747570991516113,0.7493851184844971,0.10295066982507706,6.7901611328125,-0.6103515625,-7.2784423828125
11.309999900000001,-10.788272857666016,0.5530605912208557,-0.05027823522686958,9.8876953125,-4.3487548828125,-7.0037841796875
11.3299999,-10.793061256408691,0.40701428055763245,-0.10773907601833344,12.8021240234375,-4.302978515625,-7.720947265625
11.3499999,-10.764330863952637,0.3232172429561615,-0.06464344263076782,14.4500732421875,-2.5177001953125,-10.833740234375
11.3699999,-10.718840599060059,0.31364041566848755,0.06464344263076782,13.1072998046875,-1.03759765625,-15.2130126953125
11.389999900000001,-10.663774490356445,0.35913026332855225,0.2513911724090576,8.331298828125,1.495361328125,-19.04296875
11.4099999,-10.582371711730957,0.40462008118629456,0.45489832758903503,2.3345947265625,5.31005859375,-21.240234375
11.4299999,-10.467450141906738,0.40462008118629456,0.6153098344802856,-2.6702880859375,8.4228515625,-21.026611328125
11.4499999,-10.307038307189941,0.3447650372982025,0.6943184733390808,-5.2642822265625,8.819580078125,-19.34814453125
11.469999900000001,-10.113107681274414,0.23942017555236816,0.6727706789970398,-5.462646484375,6.16455078125,-16.265869140625
11.4899999,-9.883264541625977,0.1149216815829277,0.5746083855628967,-3.9520263671875,2.9754638671875,-11.6729736328125
11.5099999,-9.682151794433594,0.016759412363171577,0.45489832758903503,-1.8463134765625,2.410888671875,-6.4544677734375
11.5299999,-9.552865028381348,-0.019153613597154617,0.3447650372982025,-0.06103515625,4.5166015625,-5.37109375
11.549999900000001,-9.514557838439941,-0.011971008032560349,0.29209262132644653,0.9613037109375,4.1046142578125,-9.796142578125
11.569999900000001,-9.579200744628906,0.028730420395731926,0.29209262132644653,-0.213623046875,1.312255859375,-14.22119140625
11.5899999,-9.677363395690918,0.06703764945268631,0.33997663855552673,-3.143310546875,-0.3662109375,-18.890380859375
11.6099999,-9.749189376831055,0.038307227194309235,0.4381389021873474,-6.2255859375,0.18310546875,-25.20751953125
11.629999900000001,-9.806650161743164,-0.05027823522686958,0.5578489899635315,-9.735107421875,2.9754638671875,-30.364990234375
11.649999900000001,-9.86889934539795,-0.18914192914962769,0.6823474764823914,-13.9923095703125,4.241943359375,-37.29248046875
11.6699999,-9.940725326538086,-0.3687070608139038,0.7733271718025208,-18.280029296875,0.8697509765625,-51.3153076171875
11.6899999,-9.96945571899414,-0.5985504388809204,0.8403648138046265,-21.759033203125,-5.523681640625,-67.2760009765625
11.709999900000001,-9.93354320526123,-0.8786720037460327,0.8834604024887085,-24.810791015625,-9.58251953125,-77.239990234375
11.729999900000001,-9.780313491821289,-1.213860273361206,0.9050082564353943,-27.1759033203125,-10.3759765625,-84.1217041015625
11.7499999,-9.528923034667969,-1.6089035272598267,0.9145850539207458,-27.8472900390625,-10.19287109375,-92.376708984375
11.7699999,-9.248801231384277,-2.0039467811584473,0.9002198576927185,-26.8707275390625,-10.0250244140625,-99.456787109375
11.7899999,-8.959102630615234,-2.4157495498657227,0.8523358106613159,-25.238037109375,-9.857177734375,-103.4393310546875
11.809999900000001,-8.712499618530273,-2.7964274883270264,0.7972691655158997,-23.223876953125,-10.528564453125,-104.9041748046875
11.8299999,-8.520963668823242,-3.1699230670928955,0.727837324142456,-20.721435546875,-11.4898681640625,-106.719970703125
11.8499999,-8.374917984008789,-3.5242648124694824,0.6655880808830261,-17.8070068359375,-13.702392578125,-107.36083984375
11.8699999,-8.312667846679688,-3.8498764038085938,0.6033388376235962,-15.0604248046875,-18.12744140625,-106.231689453125
11.889999900000001,-8.279149055480957,-4.14915132522583,0.5410895943641663,-12.02392578125,-23.406982421875,-106.964111328125
11.9099999,-8.281543731689453,-4.434061527252197,0.5123591423034668,-8.0718994140625,-27.496337890625,-110.3057861328125
11.9299999,-8.310274124145508,-4.675876140594482,0.5003881454467773,-4.9896240234375,-28.1524658203125,-113.311767578125
11.9499999,-8.324639320373535,-4.929661273956299,0.5171475410461426,-2.6092529296875,-28.594970703125,-116.180419921875
11.969999900000001,-8.245630264282227,-5.171475887298584,0.5602431893348694,-0.274658203125,-31.3568115234375,-119.44580078125
11.9899999,-8.109161376953125,-5.420472621917725,0.6392518281936646,1.739501953125,-31.4483642578125,-123.7945556640625
12.0099999,-7.905653953552246,-5.657498836517334,0.727837324142456,2.532958984375,-26.9317626953125,-129.2572021484375
12.0299999,-7.675810813903809,-5.91128396987915,0.8307880163192749,3.326416015625,-24.5361328125,-133.056640625
12.049999900000001,-7.4770917892456055,-6.224924564361572,0.9457096457481384,3.0059814453125,-26.153564453125,-133.209228515625
12.069999900000001,-7.273584842681885,-6.596025466918945,1.0678139925003052,1.6021728515625,-26.9317626953125,-129.5928955078125
12.0899999,-7.007828235626221,-7.007828235626221,1.192312479019165,1.0833740234375,-25.5584716796875,-123.7640380859375
12.1099999,-6.718130111694336,-7.386112213134766,1.3048399686813354,1.1749267578125,-24.5208740234375,-116.302490234375
12.129999900000001,-6.406883716583252,-7.671022415161133,1.3910311460494995,1.2664794921875,-24.8870849609375,-108.9935302734375
12.149999900000001,-6.0836663246154785,-7.8314337730407715,1.3958195447921753,2.3040771484375,-25.665283203125,-103.3782958984375
12.1699999,-5.8203043937683105,-7.898471355438232,1.3838485479354858,3.2958984375,-24.993896484375,-100.7080078125
12.1899999,-5.588066577911377,-7.888894557952881,1.316810965538025,1.89208984375,-26.0009765625,-98.6785888671875
12.209999900000001,-5.367800235748291,-7.845798969268799,1.2521674633026123,3.2806396484375,-26.947021484375,-95.3826904296875
12.229999900000001,-5.140350818634033,-7.800309181213379,1.192312479019165,1.6937255859375,-30.0445556640625,-92.34619140625
12.2499999,-4.876988887786865,-7.800309181213379,1.1779472827911377,-0.3509521484375,-30.792236328125,-88.165283203125
12.2699999,-4.613626480102539,-7.898471355438232,1.2425906658172607,-4.57763671875,-25.6195068359375,-83.9996337890625
12.289999900000002,-4.369418144226074,-8.058882713317871,1.3646949529647827,-11.749267578125,-15.19775390625,-82.3211669921875
12.309999900000001,-4.223371982574463,-8.250418663024902,1.460463047027588,-16.54052734375,-6.4239501953125,-85.540771484375
12.3299999,-4.158728122711182,-8.439560890197754,1.4700398445129395,-16.6473388671875,-8.8653564453125,-90.3167724609375
12.3499999,-4.1180267333984375,-8.616731643676758,1.3670891523361206,-13.671875,-18.157958984375,-91.9342041015625
12.3699999,-3.998316764831543,-8.786720275878906,1.237802267074585,-11.0626220703125,-24.7955322265625,-90.27099609375
12.389999900000001,-3.7493197917938232,-8.98543930053711,1.1516109704971313,-10.162353515625,-24.35302734375,-87.2955322265625
12.4099999,-3.383007049560547,-9.169792175292969,1.1540051698684692,-8.4075927734375,-21.942138671875,-82.5958251953125
12.4299999,-2.9305028915405273,-9.30386734008789,1.2234370708465576,-7.6141357421875,-23.1475830078125,-75.836181640625
12.4499999,-2.454056739807129,-9.35654067993164,1.314416766166687,-9.857177734375,-24.8870849609375,-67.8253173828125
12.469999900000001,-2.027888774871826,-9.39245319366455,1.4101848602294922,-12.7105712890625,-24.84130859375,-59.08203125
12.4899999,-1.7310078144073486,-9.454702377319336,1.479616641998291,-13.916015625,-25.69580078125,-48.7518310546875
12.5099999,-1.50355863571167,-9.512163162231445,1.5538369417190552,-15.9454345703125,-27.6031494140625,-39.2608642578125
12.5299999,-1.4389152526855469,-9.605537414550781,1.5969325304031372,-20.050048828125,-24.8870849609375,-34.3017578125
12.549999900000001,-1.436521053314209,-9.679757118225098,1.6089035272598267,-23.345947265625,-19.1650390625,-32.2723388671875
12.569999900000001,-1.4748282432556152,-9.749189376831055,1.5849615335464478,-25.390625,-18.3868408203125,-29.2816162109375
12.5899999,-1.4867992401123047,-9.84256362915039,1.5083470344543457,-27.4810791015625,-19.3939208984375,-25.7110595703125
12.6099999,-1.4724340438842773,-9.96945571899414,1.4053963422775269,-26.9775390625,-15.5181884765625,-23.62060546875
12.629999900000001,-1.455674648284912,-10.089165687561035,1.256955862045288,-21.759033203125,-10.711669921875,-22.216796875
12.649999900000001,-1.4077905416488647,-10.11789608001709,1.115697979927063,-15.3961181640625,-14.4195556640625,-20.0958251953125
12.6699999,-1.3551181554794312,-10.065223693847656,0.9361328482627869,-11.3067626953125,-22.705078125,-18.37158203125
12.6899999,-1.2665326595306396,-9.981427192687988,0.7972691655158997,-7.171630859375,-30.8380126953125,-15.5792236328125
12.709999900000001,-1.0797849893569946,-9.892841339111328,0.730231523513794,-1.708984375,-34.2864990234375,-9.063720703125
12.729999900000001,-0.849941611289978,-9.84256362915039,0.7733271718025208,2.2125244140625,-31.67724609375,-0.7781982421875
12.7499999,-0.6153098344802856,-9.84256362915039,0.8523358106613159,2.0599365234375,-29.11376953125,6.3629150390625
12.7699999,-0.43095630407333374,-9.890447616577148,0.933738648891449,2.5177001953125,-34.5916748046875,12.9547119140625
12.789999900000002,-0.3232172429561615,-10.002974510192871,0.9576807022094727,7.5225830078125,-42.205810546875,19.805908203125
12.809999900000001,-0.31124621629714966,-10.192116737365723,0.9313444495201111,13.763427734375,-42.205810546875,25.57373046875
12.8299999,-0.3687070608139038,-10.378864288330078,0.8954314589500427,18.6920166015625,-37.4908447265625,28.533935546875
12.8499999,-0.5147533416748047,-10.54406452178955,0.8882488012313843,22.8118896484375,-34.271240234375,27.862548828125
12.8699999,-0.6775590777397156,-10.596736907958984,0.9385270476341248,25.390625,-32.0587158203125,24.47509765625
12.889999900000001,-0.8643068075180054,-10.565611839294434,1.0247182846069336,25.4058837890625,-25.5889892578125,18.85986328125
12.9099999,-1.2473790645599365,-11.221623420715332,1.5394717454910278,19.04296875,-16.357421875,10.955810546875
12.9299999,-1.335964560508728,-11.022904396057129,1.6376339197158813,-2.8533935546875,-1.6937255859375,-19.927978515625
12.9499999,-1.6304513216018677,-11.238382339477539,1.845929503440857,1.953125,-24.658203125,-34.6527099609375
12.969999900000001,-1.37906014919281,-10.54645824432373,1.6879122257232666,10.772705078125,-51.8798828125,-36.68212890625
12.9899999,-1.0845733880996704,-9.983820915222168,1.4652514457702637,9.94873046875,-51.544189453125,-35.4766845703125
13.0099999,-0.6105214357376099,-9.320627212524414,1.50355863571167,-3.4027099609375,-38.0401611328125,-32.6080322265625
13.0299999,-0.181959331035614,-9.299078941345215,1.599326729774475,-19.53125,-23.345947265625,-35.33935546875
13.049999900000001,0.0694318488240242,-9.306262016296387,1.7860745191574097,-19.71435546875,-25.6500244140625,-27.2216796875
13.069999900000001,0.16998831927776337,-9.490615844726562,1.7597382068634033,-19.9737548828125,-26.2298583984375,-24.7039794921875
13.0899999,0.10055647045373917,-9.763554573059082,1.5921441316604614,-17.120361328125,-23.956298828125,-25.81787109375
13.1099999,0.040701430290937424,-9.8784761428833,1.3910311460494995,-8.85009765625,-23.62060546875,-28.533935546875
13.129999900000001,-0.06224924325942993,-10.005369186401367,1.1779472827911377,-2.38037109375,-19.1650390625,-32.16552734375
13.149999900000001,-0.0454898327589035,-9.943120002746582,1.0606313943862915,0.335693359375,-14.3585205078125,-37.0025634765625
13.1699999,0.05746084079146385,-10.062829971313477,0.8978256583213806,2.13623046875,-11.9476318359375,-40.191650390625
13.1899999,0.6057330369949341,-10.113107681274414,1.2234370708465576,8.9569091796875,-10.2081298828125,-31.6009521484375
13.209999900000001,0.993593692779541,-10.366893768310547,1.0821791887283325,-5.7373046875,7.2784423828125,-1.15966796875
13.229999900000001,1.5442601442337036,-10.424354553222656,1.4437036514282227,2.2430419921875,1.2359619140625,11.16943359375
13.2499999,1.6065093278884888,-10.345345497131348,1.414973258972168,2.9296875,-1.40380859375,7.080078125
13.2699999,1.4532804489135742,-10.146626472473145,1.460463047027588,-2.13623046875,-4.8065185546875,-0.9307861328125
13.289999900000002,1.1492167711257935,-9.93354320526123,1.482010841369629,-0.4730224609375,-1.64794921875,-5.889892578125
13.309999900000001,0.8379706144332886,-9.773131370544434,1.45806884765625,-1.6632080078125,7.904052734375,1.1749267578125
13.3299999,0.6248866319656372,-9.744400978088379,1.3694833517074585,0.1068115234375,8.392333984375,0.946044921875
13.3499999,0.4405331015586853,-9.746794700622559,1.237802267074585,-0.152587890625,1.40380859375,-1.77001953125
13.3699999,0.2968810200691223,-9.751583099365234,1.1540051698684692,0.8087158203125,-0.701904296875,-3.936767578125
13.389999900000001,0.3280056416988373,-9.78989028930664,1.0893617868423462,-0.6561279296875,-0.0457763671875,-5.55419921875
13.4099999,0.5147533416748047,-9.816226959228516,1.0845733880996704,-1.7547607421875,-0.4730224609375,-3.35693359375
13.4299999,0.7924807667732239,-9.84495735168457,1.139639973640442,0.9613037109375,1.0986328125,0.946044921875
13.4499999,1.01753568649292,-9.859322547912598,1.173158884048462,0.9613037109375,1.89208984375,4.39453125
13.469999900000001,1.0678139925003052,-9.86650562286377,1.1899182796478271,-1.007080078125,1.251220703125,3.997802734375
13.4899999,0.9289502501487732,-9.828198432922363,1.235408067703247,-0.06103515625,0.7171630859375,-0.1220703125
13.5099999,0.7206547260284424,-9.801861763000488,1.2617442607879639,0.54931640625,0.3662109375,-4.1046142578125
13.5299999,0.6033388376235962,-9.785101890563965,1.2545616626739502,-1.5106201171875,-0.6561279296875,-5.1116943359375
13.549999900000001,0.646434485912323,-9.792284965515137,1.2689268589019775,-1.007080078125,0.1678466796875,-2.3651123046875
13.569999900000001,0.8020575642585754,-9.816226959228516,1.2521674633026123,0.457763671875,1.2359619140625,1.8310546875
13.5899999,0.9313444495201111,-9.835380554199219,1.2330138683319092,0.6866455078125,1.64794921875,3.8604736328125
13.6099999,0.9409212470054626,-9.837775230407715,1.2114660739898682,-0.335693359375,1.1138916015625,2.3956298828125
13.629999900000001,0.828393816947937,-9.825803756713867,1.2114660739898682,-0.5035400390625,0.3814697265625,-1.1444091796875
13.649999900000001,0.6967126727104187,-9.801861763000488,1.2258312702178955,-0.030517578125,0.213623046875,-3.509521484375
13.6699999,0.6440402865409851,-9.797073364257812,1.2449848651885986,-0.457763671875,0.0762939453125,-3.0975341796875
13.6899999,0.7038952708244324,-9.801861763000488,1.2497732639312744,-0.762939453125,0.4425048828125,-0.8697509765625
13.709999900000001,0.8236053586006165,-9.821015357971191,1.235408067703247,-0.335693359375,0.9765625,1.3427734375
13.729999900000001,0.9002198576927185,-9.835380554199219,1.2210428714752197,0.5645751953125,1.3885498046875,2.2125244140625
13.7499999,0.8882488012313843,-9.835380554199219,1.2066776752471924,0.2593994140625,0.946044921875,0.9613037109375
13.7699999,0.8092401623725891,-9.825803756713867,1.213860273361206,-0.6256103515625,0.3814697265625,-1.4801025390625
13.789999900000002,0.730231523513794,-9.813833236694336,1.2306196689605713,-0.5340576171875,0.213623046875,-2.2430419921875
13.809999900000001,0.706289529800415,-9.804255485534668,1.2521674633026123,0.030517578125,0.6256103515625,-1.2664794921875
13.8299999,0.751779317855835,-9.80904483795166,1.2521674633026123,-0.2593994140625,0.7476806640625,-0.2899169921875
13.8499999,0.8212111592292786,-9.821015357971191,1.2234370708465576,-0.732421875,0.518798828125,0.518798828125
13.8699999,0.8571242094039917,-9.825803756713867,1.2186486721038818,0.2593994140625,1.0986328125,0.91552734375
13.889999900000001,0.8427590131759644,-9.821015357971191,1.216254472732544,0.42724609375,1.03759765625,0.1983642578125
13.9099999,0.7948749661445618,-9.818621635437012,1.2234370708465576,-0.762939453125,0.3814697265625,-0.9002685546875
13.9299999,0.7493851184844971,-9.806650161743164,1.2473790645599365,-0.701904296875,0.396728515625,-1.5106201171875
13.9499999,0.7398083209991455,-9.806650161743164,1.2521674633026123,-0.06103515625,0.6256103515625,-0.946044921875
13.969999900000001,0.7733271718025208,-9.816226959228516,1.2330138683319092,-0.0762939453125,0.732421875,-0.3662109375
13.9899999,0.8212111592292786,-9.823410034179688,1.216254472732544,-0.1983642578125,0.7781982421875,0.1068115234375
14.0099999,0.8451532125473022,-9.828198432922363,1.2090718746185303,-0.0457763671875,0.8697509765625,0.6256103515625
14.0299999,0.8236053586006165,-9.825803756713867,1.2258312702178955,0.1373291015625,0.91552734375,0.396728515625
14.049999900000001,0.7805097699165344,-9.813833236694336,1.2473790645599365,-0.1678466796875,0.6103515625,-0.9307861328125
14.069999900000001,0.7445967197418213,-9.81143856048584,1.2449848651885986,-0.8697509765625,0.18310546875,-1.77001953125
14.0899999,0.7493851184844971,-9.81143856048584,1.2401964664459229,-0.2288818359375,0.5340576171875,-1.3275146484375
14.1099999,0.7996633648872375,-9.821015357971191,1.2210428714752197,0.30517578125,0.8697509765625,-0.3204345703125
14.129999900000001,0.8667010068893433,-9.830592155456543,1.2258312702178955,-0.18310546875,1.007080078125,1.0986328125
14.149999900000001,0.8236053586006165,-9.821015357971191,1.2425906658172607,-0.2593994140625,0.762939453125,0.1220703125
14.1699999,0.7613561153411865,-9.81143856048584,1.2497732639312744,-0.3204345703125,0.4730224609375,-1.6021728515625
14.1899999,0.7230489253997803,-9.804255485534668,1.2425906658172607,-0.3204345703125,0.3204345703125,-2.349853515625
14.209999900000001,0.7469909191131592,-9.81143856048584,1.2234370708465576,-0.396728515625,0.4730224609375,-1.2664794921875
14.229999900000001,0.8164227604866028,-9.821015357971191,1.216254472732544,0.1220703125,0.885009765625,0.42724609375
14.2499999,0.8667010068893433,-9.825803756713867,1.2258312702178955,0.3204345703125,1.220703125,1.678466796875
14.2699999,0.8523358106613159,-9.828198432922363,1.2282254695892334,-0.457763671875,0.9002685546875,1.2054443359375
14.289999900000002,0.7852981686592102,-9.816226959228516,1.2401964664459229,-0.3814697265625,0.5950927734375,-1.007080078125
14.309999900000001,0.7230489253997803,-9.80904483795166,1.2425906658172607,-0.0152587890625,0.30517578125,-2.7618408203125
14.3299999,0.7182605266571045,-9.813833236694336,1.2258312702178955,-0.518798828125,0.1983642578125,-2.2430419921875
14.3499999,0.7876923680305481,-9.823410034179688,1.2234370708465576,-0.274658203125,0.701904296875,-0.1983642578125
14.3699999,0.8643068075180054,-9.832986831665039,1.2282254695892334,0.244140625,1.1749267578125,1.77001953125
14.389999900000001,0.8762778043746948,-9.835380554199219,1.237802267074585,0.030517578125,1.2054443359375,2.2430419921875
14.4099999,0.8140285611152649,-9.823410034179688,1.2425906658172607,-0.335693359375,0.7781982421875,-0.0152587890625
14.4299999,0.7254431247711182,-9.813833236694336,1.2425906658172607,-0.48828125,0.2288818359375,-2.777099609375
14.4499999,0.6871358752250671,-9.806650161743164,1.2330138683319092,-0.4119873046875,0.0762939453125,-2.9754638671875
14.469999900000001,0.7374141216278076,-9.816226959228516,1.2258312702178955,-0.1983642578125,0.6103515625,-0.9765625
14.4899999,0.8355764150619507,-9.828198432922363,1.2210428714752197,-0.06103515625,1.0833740234375,1.373291015625
14.5099999,0.8882488012313843,-9.835380554199219,1.2282254695892334,0.091552734375,1.312255859375,2.5177001953125
14.5299999,0.8571242094039917,-9.830592155456543,1.2282254695892334,-0.1983642578125,0.9765625,1.03759765625
14.549999900000001,0.768538773059845,-9.818621635437012,1.235408067703247,-0.244140625,0.457763671875,-1.9989013671875
14.569999900000001,0.6991068720817566,-9.806650161743164,1.2306196689605713,-0.518798828125,0.030517578125,-3.326416015625
14.5899999,0.7086837291717529,-9.80904483795166,1.2258312702178955,-0.5645751953125,0.3204345703125,-1.739501953125
14.6099999,0.7924807667732239,-9.813833236694336,1.2330138683319092,0.1678466796875,0.9918212890625,0.5645751953125
14.629999900000001,0.8643068075180054,-9.821015357971191,1.235408067703247,0.2288818359375,1.28173828125,2.044677734375
14.649999900000001,0.8690952062606812,-9.828198432922363,1.2258312702178955,-0.54931640625,0.946044921875,1.5869140625
14.6699999,0.8020575642585754,-9.816226959228516,1.237802267074585,-0.030517578125,0.6256103515625,-0.885009765625
14.6899999,0.7254431247711182,-9.80904483795166,1.237802267074585,-0.0762939453125,0.30517578125,-2.7313232421875
14.709999900000001,0.7015010714530945,-9.80904483795166,1.2306196689605713,-0.9002685546875,0.1068115234375,-2.1209716796875
14.729999900000001,0.751779317855835,-9.813833236694336,1.235408067703247,-0.152587890625,0.7781982421875,-0.244140625
14.7499999,0.828393816947937,-9.825803756713867,1.235408067703247,0.335693359375,1.190185546875,1.2969970703125
14.7699999,0.8595184087753296,-9.830592155456543,1.2210428714752197,-0.152587890625,1.007080078125,1.4495849609375
14.789999900000002,0.8331822156906128,-9.825803756713867,1.2234370708465576,-0.18310546875,0.732421875,-0.274658203125
14.809999900000001,0.7781155705451965,-9.816226959228516,1.2234370708465576,-0.18310546875,0.396728515625,-1.8157958984375
14.8299999,0.7422025203704834,-9.81143856048584,1.2234370708465576,-0.30517578125,0.42724609375,-1.64794921875
14.8499999,0.7589619159698486,-9.81143856048584,1.235408067703247,-0.1983642578125,0.8087158203125,-0.5645751953125
14.8699999,0.8044517636299133,-9.821015357971191,1.2330138683319092,-0.3509521484375,0.8392333984375,0.48828125
14.889999900000001,0.8331822156906128,-9.825803756713867,1.2306196689605713,-0.2288818359375,0.91552734375,0.885009765625
14.9099999,0.8259995579719543,-9.823410034179688,1.2306196689605713,0.1983642578125,0.9002685546875,0.030517578125
14.9299999,0.7948749661445618,-9.821015357971191,1.2258312702178955,-0.3204345703125,0.48828125,-1.0833740234375
14.9499999,0.768538773059845,-9.816226959228516,1.2306196689605713,-0.457763671875,0.42724609375,-1.3427734375
14.969999900000001,0.7709329724311829,-9.813833236694336,1.2401964664459229,-0.030517578125,0.6561279296875,-0.5950927734375
14.9899999,0.7924807667732239,-9.818621635437012,1.235408067703247,-0.2288818359375,0.7476806640625,0.1373291015625
15.0099999,0.8092401623725891,-9.823410034179688,1.2330138683319092,-0.244140625,0.8392333984375,0.2593994140625
15.0299999,0.8092401623725891,-9.821015357971191,1.2282254695892334,-0.0457763671875,0.732421875,-0.2288818359375
15.049999900000001,0.7924807667732239,-9.821015357971191,1.2234370708465576,-0.1068115234375,0.6103515625,-0.6561279296875
15.069999900000001,0.7781155705451965,-9.816226959228516,1.2306196689605713,-0.1068115234375,0.5035400390625,-0.6866455078125
15.0899999,0.7733271718025208,-9.816226959228516,1.237802267074585,-0.2593994140625,0.6866455078125,-0.48828125
15.1099999,0.7805097699165344,-9.818621635437012,1.237802267074585,-0.48828125,0.701904296875,-0.152587890625
15.129999900000001,0.790086567401886,-9.821015357971191,1.2401964664459229,-0.0152587890625,0.762939453125,-0.091552734375
15.149999900000001,0.7924807667732239,-9.823410034179688,1.235408067703247,0.0457763671875,0.7781982421875,-0.3814697265625
15.1699999,0.790086567401886,-9.825803756713867,1.2306196689605713,-0.3814697265625,0.6256103515625,-0.5645751953125
15.1899999,0.7852981686592102,-9.821015357971191,1.2401964664459229,-0.18310546875,0.67138671875,-0.4425048828125
15.209999900000001,0.7852981686592102,-9.818621635437012,1.2425906658172607,-0.1220703125,0.67138671875,-0.2593994140625
15.229999900000001,0.7829039692878723,-9.818621635437012,1.2425906658172607,-0.30517578125,0.6256103515625,-0.274658203125
15.2499999,0.7829039692878723,-9.818621635437012,1.2425906658172607,-0.18310546875,0.7476806640625,-0.5035400390625
15.2699999,0.7876923680305481,-9.821015357971191,1.2306196689605713,-0.2288818359375,0.67138671875,-0.5950927734375
15.289999900000002,0.7948749661445618,-9.823410034179688,1.2282254695892334,-0.1373291015625,0.732421875,-0.244140625
15.309999900000001,0.7972691655158997,-9.823410034179688,1.2330138683319092,-0.030517578125,0.8087158203125,-0.1220703125
15.3299999,0.7924807667732239,-9.823410034179688,1.2330138683319092,-0.3814697265625,0.67138671875,-0.1983642578125
15.3499999,0.7829039692878723,-9.821015357971191,1.237802267074585,-0.2899169921875,0.67138671875,-0.396728515625
15.3699999,0.7757213711738586,-9.821015357971191,1.237802267074585,-0.0457763671875,0.640869140625,-0.701904296875
15.389999900000001,0.7781155705451965,-9.823410034179688,1.2306196689605713,-0.2288818359375,0.579833984375,-0.6866455078125
15.4099999,0.790086567401886,-9.823410034179688,1.2282254695892334,-0.1678466796875,0.732421875,-0.1983642578125
15.4299999,0.7996633648872375,-9.823410034179688,1.2306196689605713,-0.06103515625,0.7476806640625,0.1220703125
15.4499999,0.7948749661445618,-9.821015357971191,1.2330138683319092,-0.1678466796875,0.7171630859375,0.0152587890625
