# Time (seconds),Accel_X,Accel_Y,Accel_Z,Gyro_X,Gyro_Y,Gyro_Z
0.0099999,-10.529699325561523,-0.6057330369949341,0.5099649429321289,-10.92529296875,1.5869140625,10.7421875
0.029999900000000003,-10.405200958251953,-0.5554547905921936,0.44771572947502136,-8.8348388671875,1.373291015625,7.5225830078125
0.0499999,-10.235212326049805,-0.49799394607543945,0.37828385829925537,-7.476806640625,-1.373291015625,12.5274658203125
0.0699999,-10.000580787658691,-0.42616790533065796,0.30885201692581177,-5.7220458984375,-4.7607421875,20.20263671875
0.08999990000000001,-10.077195167541504,-0.26575639843940735,0.24660277366638184,-4.3487548828125,-2.0599365234375,20.8892822265625
0.10999990000000001,-10.17296314239502,-0.15562310814857483,0.21547815203666687,-4.7149658203125,10.009765625,7.781982421875
0.1299999,-10.409989356994629,-0.014365210197865963,0.14844051003456116,-5.9051513671875,10.92529296875,9.8114013671875
0.14999990000000002,-10.563218116760254,0.07422025501728058,0.08858546614646912,-6.3934326171875,6.7901611328125,14.7857666015625
0.1699999,-10.45547866821289,0.10534487664699554,0.038307227194309235,-5.79833984375,4.21142578125,12.4969482421875
0.1899999,-10.261548042297363,0.10534487664699554,-0.0071826050989329815,-6.7901611328125,4.638671875,10.8642578125
0.20999990000000002,-10.098742485046387,0.10773907601833344,-0.016759412363171577,-8.8348388671875,4.39453125,11.260986328125
0.2299999,-10.000580787658691,0.1364694982767105,-0.043095629662275314,-9.9029541015625,3.021240234375,12.2528076171875
0.2499999,-9.976638793945312,0.19871874153614044,-0.10773907601833344,-9.4146728515625,1.1138916015625,10.498046875
0.2699999,-10.019734382629395,0.33997663855552673,-0.21547815203666687,-7.14111328125,-1.708984375,7.3089599609375
0.28999990000000003,-10.055646896362305,0.4596867263317108,-0.2944868206977844,-1.861572265625,-5.2490234375,4.6844482421875
0.3099999,-10.065223693847656,0.5913678407669067,-0.28730419278144836,3.96728515625,-7.2479248046875,3.0517578125
0.3299999,-10.050858497619629,0.6368576288223267,-0.19871874153614044,7.1258544921875,-7.32421875,0.48828125
0.34999990000000003,-10.019734382629395,0.5913678407669067,-0.07182604819536209,8.392333984375,-7.0343017578125,-2.86865234375
0.3699999,-9.995792388916016,0.49559974670410156,0.06703764945268631,10.009765625,-7.598876953125,-2.1209716796875
0.3899999,-9.986215591430664,0.395043283700943,0.24899697303771973,9.674072265625,-8.0413818359375,-0.2288818359375
0.40999990000000003,-9.959878921508789,0.2825157940387726,0.45250412821769714,3.753662109375,-5.279541015625,0.1068115234375
0.4299999,-9.923966407775879,0.19871874153614044,0.6775590777397156,-4.6844482421875,-0.518798828125,0.4730224609375
0.4499999,-9.883264541625977,0.1173158809542656,0.8523358106613159,-9.307861328125,2.777099609375,2.777099609375
0.4699999,-9.84256362915039,0.031124621629714966,0.9241618514060974,-8.9263916015625,4.4708251953125,5.2032470703125
0.4899999,-9.840168952941895,-0.031124621629714966,0.8954314589500427,-7.0953369140625,5.2032470703125,5.5694580078125
0.5099999,-9.86889934539795,-0.040701430290937424,0.7230489253997803,-7.7362060546875,7.1868896484375,5.767822265625
0.5299999,-9.919178009033203,0.07661445438861847,0.5267243981361389,-5.6915283203125,7.3089599609375,6.4239501953125
0.5499999,-9.962273597717285,0.19393034279346466,0.2537853717803955,-2.74658203125,4.3792724609375,5.6610107421875
0.5699999,-10.034099578857422,0.4165911078453064,-0.07422025501728058,-1.5106201171875,1.007080078125,2.1820068359375
0.5899998999999999,-10.168174743652344,0.507570743560791,-0.40940847992897034,1.1444091796875,-4.6234130859375,1.3580322265625
0.6099998999999999,-10.160991668701172,0.6105214357376099,-0.4812345504760742,3.8604736328125,-11.962890625,3.448486328125
0.6299999,-10.180145263671875,0.5602431893348694,-0.3711012601852417,1.2359619140625,-12.8936767578125,3.143310546875
0.6499999,-10.046070098876953,0.4357447028160095,-0.08140286058187485,-3.5400390625,-7.080078125,-0.5645751953125
0.6699999,-9.971850395202637,0.181959331035614,0.24660277366638184,0.152587890625,-1.46484375,0.6256103515625
0.6899999,-9.86889934539795,0.014365210197865963,0.545877993106842,8.2855224609375,-4.3182373046875,4.45556640625
0.7099999,-9.859322547912598,0.019153613597154617,0.7733271718025208,7.2479248046875,-0.396728515625,9.58251953125
0.7299998999999999,-9.806650161743164,0.20111294090747833,1.0223240852355957,-1.556396484375,4.7760009765625,5.1727294921875
0.7499998999999999,-9.828198432922363,0.5315127968788147,1.158793568611145,-12.908935546875,12.481689453125,4.119873046875
0.7699999,-9.823410034179688,0.7996633648872375,1.194706678390503,-17.88330078125,13.97705078125,7.0343017578125
0.7899999,-9.876082420349121,0.9816226959228516,1.0223240852355957,-19.8211669921875,9.3994140625,3.7384033203125
0.8099999,-9.897629737854004,1.0079588890075684,0.7445967197418213,-21.8048095703125,10.1165771484375,-4.119873046875
0.8299999,-9.950302124023438,0.9481038451194763,0.3663128614425659,-17.5018310546875,12.5274658203125,-5.645751953125
0.8499998999999999,-9.979032516479492,0.768538773059845,0.05027823522686958,-9.3231201171875,12.0849609375,-2.01416015625
0.8699998999999999,-9.99339771270752,0.4596867263317108,-0.2082955539226532,-6.591796875,8.23974609375,-3.021240234375
0.8899999,-10.096348762512207,0.13168109953403473,-0.42616790533065796,-5.462646484375,7.0343017578125,3.570556640625
0.9099999,-10.129867553710938,-0.1173158809542656,-0.4812345504760742,4.0740966796875,2.4566650390625,12.115478515625
0.9299999,-10.127472877502441,-0.1843535304069519,-0.4572925269603729,11.8865966796875,-3.509521484375,6.65283203125
0.9499999,-10.105925559997559,-0.09816227108240128,-0.3687070608139038,8.60595703125,-6.195068359375,0.7781982421875
0.9699998999999999,-10.062829971313477,0.1412578970193863,-0.15562310814857483,4.302978515625,0.4730224609375,4.69970703125
0.9899998999999999,-9.890447616577148,0.3902548849582672,0.20111294090747833,-0.6103515625,6.1187744140625,6.0882568359375
1.0099999,-9.864110946655273,0.7158663272857666,0.5889736413955688,-14.9688720703125,10.9100341796875,6.89697265625
1.0299999,-9.782708168029785,0.9696516990661621,0.8954314589500427,-26.4739990234375,14.1754150390625,10.3912353515625
1.0499999,-9.804255485534668,1.1228805780410767,0.9241618514060974,-20.416259765625,15.3656005859375,5.55419921875
1.0699999,-9.84256362915039,1.0989385843276978,0.6943184733390808,-6.2713623046875,9.9029541015625,-4.425048828125
1.0899999,-9.892841339111328,0.9864110946655273,0.22266076505184174,1.52587890625,9.09423828125,-3.143310546875
1.1099999,-9.952696800231934,0.7254431247711182,-0.2082955539226532,6.04248046875,9.2010498046875,-2.105712890625
1.1299999,-10.031704902648926,0.5195417404174805,-0.5003881454467773,7.75146484375,9.552001953125,-1.0986328125
1.1499999,-10.010157585144043,0.36152446269989014,-0.6129156351089478,3.7841796875,6.4239501953125,3.082275390625
1.1699998999999999,-10.160991668701172,0.24899697303771973,-0.689530074596405,-2.9754638671875,2.0904541015625,9.765625
1.1899998999999999,-10.093954086303711,0.20111294090747833,-0.7038952708244324,-4.791259765625,-2.1820068359375,4.547119140625
1.2099999,-10.20887565612793,0.19153612852096558,-0.8547300100326538,1.7852783203125,-7.5836181640625,2.74658203125
1.2299999,-10.122684478759766,0.3471592366695404,-0.7996633648872375,8.453369140625,-9.735107421875,4.638671875
1.2499999,-9.950302124023438,0.6775590777397156,-0.47405192255973816,1.52587890625,-7.7056884765625,8.087158203125
1.2699999,-9.806650161743164,1.0438719987869263,-0.021547814831137657,-26.0772705078125,-1.0833740234375,5.0048828125
1.2899999,-9.557653427124023,1.4987702369689941,0.7182605266571045,-51.6204833984375,12.8631591796875,6.011962890625
1.3099999,-9.500192642211914,1.8770540952682495,1.278503656387329,-69.2596435546875,17.8680419921875,2.4261474609375
1.3299999,-9.57201862335205,1.9345149993896484,1.656787633895874,-88.07373046875,20.8740234375,-1.2969970703125
1.3499999,-9.564835548400879,1.8411411046981812,1.6950948238372803,-95.611572265625,35.8428955078125,-5.3253173828125
1.3699999,-9.77791976928711,1.45806884765625,1.4748282432556152,-79.9713134765625,40.130615234375,-3.5858154296875
1.3899999,-9.832986831665039,0.8307880163192749,0.8762778043746948,-69.4427490234375,40.7867431640625,2.9144287109375
1.4099999,-10.070012092590332,0.21547815203666687,-0.3064578175544739,-42.1600341796875,41.4581298828125,4.45556640625
1.4299998999999999,-10.287884712219238,-0.507570743560791,-1.7477672100067139,14.7857666015625,16.90673828125,6.134033203125
1.4499999,-10.522516250610352,-0.7924807667732239,-3.313575267791748,67.93212890625,-21.42333984375,2.25830078125
1.4699999,-10.639832496643066,-0.5315127968788147,-4.335899353027344,92.041015625,-39.4134521484375,2.9296875
1.4899999,-10.596736907958984,0.17956513166427612,-4.474762916564941,86.1053466796875,-42.6025390625,-5.7830810546875
1.5099999,-10.32858657836914,1.2425906658172607,-3.584120035171509,63.6749267578125,-45.8526611328125,-14.678955078125
1.5299999,-9.971850395202637,2.1547815799713135,-1.7741034030914307,23.98681640625,-35.94970703125,-12.7105712890625
1.5499999,-9.672574996948242,2.4803929328918457,-0.038307227194309235,-27.64892578125,-10.7421875,-10.223388671875
1.5699999,-9.576807022094727,2.140416383743286,1.3192051649093628,-39.9017333984375,-4.6234130859375,-8.758544921875
1.5899999,-9.63187313079834,1.2449848651885986,1.680729627609253,-14.7247314453125,-15.2435302734375,-4.8980712890625
1.6099999,-9.765948295593262,0.16759411990642548,1.2545616626739502,14.923095703125,-18.73779296875,0.2899169921875
1.6299999,-9.897629737854004,-0.5793967843055725,0.6105214357376099,32.989501953125,-21.5911865234375,5.0048828125
1.6499999,-9.93354320526123,-0.7350199222564697,0.31124621629714966,28.076171875,-18.49365234375,6.8206787109375
1.6699999,-9.888052940368652,-0.3471592366695404,0.363918662071228,-0.5340576171875,-8.7432861328125,9.33837890625
1.6899998999999999,-9.967061996459961,0.2992752194404602,0.6320692300796509,-24.017333984375,0.518798828125,7.8277587890625
1.7099999,-9.81143856048584,0.8547300100326538,0.7709329724311829,-15.167236328125,-3.6468505859375,5.584716796875
1.7299999,-9.928754806518555,1.1324573755264282,0.5123591423034668,5.2032470703125,-10.9710693359375,0.30517578125
1.7499999,-9.928754806518555,1.1180921792984009,0.181959331035614,24.566650390625,-13.946533203125,-5.218505859375
1.7699999,-9.947908401489258,1.0845733880996704,0.1149216815829277,30.2734375,-13.580322265625,-2.8533935546875
1.7899999,-9.854534149169922,1.0438719987869263,0.38546648621559143,5.06591796875,-3.2806396484375,0.4425048828125
1.8099999,-9.84495735168457,1.0582371950149536,0.8259995579719543,-24.0020751953125,8.758544921875,-1.1138916015625
1.8299999,-9.840168952941895,1.0630255937576294,1.2042834758758545,-26.397705078125,9.9639892578125,-1.4495849609375
1.8499999,-9.823410034179688,0.9385270476341248,1.194706678390503,-13.427734375,7.62939453125,-1.28173828125
1.8699999,-9.971850395202637,0.6727706789970398,0.8020575642585754,2.7008056640625,3.936767578125,-4.0283203125
1.8899999,-9.979032516479492,0.4141969084739685,0.43095630407333374,18.951416015625,0.8087158203125,-4.5166015625
1.9099999,-9.921571731567383,0.3016694188117981,0.16519992053508759,20.2178955078125,1.922607421875,-0.518798828125
1.9299998999999999,-9.940725326538086,0.38067805767059326,0.14365209639072418,-0.7781982421875,6.8511962890625,1.8157958984375
1.9499999,-9.897629737854004,0.5530605912208557,0.3280056416988373,-21.1944580078125,10.4522705078125,2.838134765625
1.9699999,-9.943120002746582,0.8020575642585754,0.43335050344467163,-26.6265869140625,10.0250244140625,2.2735595703125
1.9899999,-9.96945571899414,0.7972691655158997,0.23942017555236816,-13.641357421875,5.3863525390625,-1.129150390625
2.0099999,-10.091560363769531,0.6823474764823914,-0.15322890877723694,15.655517578125,-2.3956298828125,-5.0048828125
2.0299999,-10.113107681274414,0.5482721924781799,-0.4812345504760742,34.027099609375,-9.4451904296875,-4.5623779296875
2.0499999,-10.065223693847656,0.42616790533065796,-0.586579442024231,26.824951171875,-6.9427490234375,-2.9296875
2.0699999,-10.08198356628418,0.48602294921875,-0.37828385829925537,8.1634521484375,-2.3040771484375,0.9918212890625
2.0899999,-9.952696800231934,0.5530605912208557,0.033518824726343155,-0.3662109375,-3.90625,2.593994140625
2.1099999,-9.981427192687988,0.6943184733390808,0.3471592366695404,-1.708984375,-5.0048828125,3.0364990234375
2.1299999,-9.950302124023438,0.6991068720817566,0.40940847992897034,-1.2359619140625,-3.570556640625,-1.4190673828125
2.1499999,-9.923966407775879,0.9002198576927185,0.6751648783683777,4.4403076171875,-4.5928955078125,-2.7618408203125
2.1699999,-9.780313491821289,1.072602391242981,0.9576807022094727,-9.735107421875,3.2806396484375,-3.4942626953125
2.1899999,-9.679757118225098,1.2665326595306396,1.3048399686813354,-37.811279296875,18.9361572265625,-5.706787109375
2.2099999,-9.655815124511719,1.2737152576446533,1.525106430053711,-53.802490234375,26.5045166015625,-3.8299560546875
2.2299999,-9.775525093078613,1.115697979927063,1.2282254695892334,-45.013427734375,21.5606689453125,-3.72314453125
2.2499999,-9.931148529052734,0.6967126727104187,0.4812345504760742,-18.798828125,12.115478515625,-4.5928955078125
2.2699999,-10.170568466186523,0.17717093229293823,-0.5841852426528931,14.5111083984375,3.0364990234375,-6.7138671875
2.2899999,-10.235212326049805,-0.12689268589019775,-1.2617442607879639,42.266845703125,-11.5814208984375,-5.5084228515625
2.3099999,-10.228029251098633,-0.22026655077934265,-1.4987702369689941,38.2537841796875,-13.85498046875,-4.4708251953125
2.3299999,-10.134655952453613,-0.06224924325942993,-1.048660397529602,10.2386474609375,-4.547119140625,-1.15966796875
2.3499999,-9.96945571899414,0.28969839215278625,-0.3519476354122162,-14.2669677734375,2.0751953125,2.74658203125
2.3699999,-9.9000244140625,0.5315127968788147,0.3232172429561615,-19.5770263671875,0.518798828125,3.2196044921875
2.3899999,-9.840168952941895,0.730231523513794,0.608127236366272,-18.6920166015625,-1.4495849609375,1.8463134765625
2.4099999,-9.897629737854004,0.8236053586006165,0.608127236366272,-17.4407958984375,1.89208984375,-0.2593994140625
2.4299999,-9.911994934082031,0.9026140570640564,0.6224924325942993,-14.2364501953125,-1.5716552734375,-2.2125244140625
2.4499999,-9.816226959228516,0.9888052940368652,0.7469909191131592,-28.167724609375,6.2408447265625,-3.9825439453125
2.4699999,-9.780313491821289,1.0773907899856567,1.1827356815338135,-57.8155517578125,19.8822021484375,-0.06103515625
2.4899999,-9.658209800720215,0.9840168952941895,1.4221558570861816,-85.8917236328125,33.14208984375,4.7149658203125
2.5099999,-9.710882186889648,0.751779317855835,1.2856862545013428,-77.423095703125,30.2886962890625,4.241943359375
2.5299999,-9.84256362915039,0.3495534360408783,0.4572925269603729,-41.656494140625,23.8189697265625,1.03759765625
2.5499999,-10.144232749938965,0.22266076505184174,-0.45489832758903503,-4.69970703125,5.706787109375,7.0343017578125
2.5699999,-10.170568466186523,0.24420857429504395,-1.0606313943862915,-10.0250244140625,1.0986328125,7.1258544921875
2.5899999,-10.323798179626465,0.47405192255973816,-1.3287819623947144,-40.34423828125,7.01904296875,-1.708984375
2.6099999,-10.168174743652344,0.7637503147125244,-1.0295066833496094,-41.6259765625,8.941650390625,-4.2877197265625
2.6299999,-10.06043529510498,0.9074024558067322,-0.6320692300796509,-23.529052734375,3.8299560546875,-4.2572021484375
2.6499999,-10.034099578857422,0.7254431247711182,-0.569819986820221,-21.8505859375,9.21630859375,-10.8489990234375
2.6699999,-10.139444351196289,0.38546648621559143,-0.7038952708244324,7.7362060546875,1.0986328125,-7.232666015625
2.6899999,-10.235212326049805,-0.24660277366638184,-1.3551181554794312,58.441162109375,-16.54052734375,0.30517578125
2.7099999,-10.359710693359375,-0.7374141216278076,-1.9967641830444336,114.4256591796875,-40.34423828125,-0.7171630859375
2.7299999,-10.390835762023926,-0.7924807667732239,-2.2912509441375732,136.9781494140625,-52.3223876953125,-1.5106201171875
2.7499999,-10.158597946166992,-0.24420857429504395,-1.656787633895874,106.75048828125,-44.830322265625,-1.190185546875
2.7699999,-9.864110946655273,0.8379706144332886,-0.30885201692581177,47.79052734375,-27.0538330078125,-4.9896240234375
2.7899999,-9.502586364746094,1.9129672050476074,1.479616641998291,-12.115478515625,-4.9285888671875,-10.772705078125
2.8099999,-9.2033109664917,2.5761611461639404,3.1292216777801514,-60.638427734375,19.6533203125,-11.5814208984375
2.8299999,-9.17697525024414,2.537853717803955,3.7636849880218506,-94.146728515625,42.9840087890625,-7.415771484375
2.8499999,-9.337387084960938,1.742978811264038,3.3303346633911133,-79.6661376953125,39.6728515625,-1.5106201171875
2.8699999,-9.727641105651855,0.5482721924781799,1.7262194156646729,-26.336669921875,20.93505859375,-0.244140625
2.8899999,-10.15141487121582,-0.6799532771110535,-0.5027823448181152,31.18896484375,-0.396728515625,1.5106201171875
2.9099999,-10.488997459411621,-1.4173674583435059,-2.427720546722412,73.05908203125,-22.4151611328125,2.532958984375
2.9299999,-10.623072624206543,-1.5203180313110352,-3.4979286193847656,91.49169921875,-36.3311767578125,0.9918212890625
2.9499999,-10.407594680786133,-0.8307880163192749,-2.9664158821105957,82.4432373046875,-37.6129150390625,2.9754638671875
2.9699999,-10.077195167541504,0.2585737705230713,-1.41257905960083,22.5067138671875,-20.56884765625,3.7994384765625
2.9899999,-9.715670585632324,1.3000515699386597,0.5961562395095825,-48.187255859375,5.584716796875,-0.1068115234375
3.0099999,-9.35654067993164,2.0039467811584473,2.5546131134033203,-76.812744140625,16.5863037109375,0.8392333984375
3.0299999,-9.337387084960938,2.03507137298584,3.134010076522827,-93.81103515625,29.72412109375,3.7841796875
3.0499999,-9.488221168518066,1.5418659448623657,2.786850690841675,-82.6568603515625,27.6641845703125,2.3956298828125
3.0699999,-9.770736694335938,0.6991068720817566,1.3886369466781616,-46.81396484375,16.3421630859375,2.1514892578125
3.0899999,-10.079588890075684,-0.05267243832349777,-0.06703764945268631,0.2899169921875,-0.18310546875,1.5716552734375
3.1099999,-10.371682167053223,-0.7374141216278076,-1.4844050407409668,27.069091796875,-6.4544677734375,3.0364990234375
3.1299999,-10.429142951965332,-0.8738836050033569,-1.9153614044189453,44.586181640625,-12.51220703125,5.1116943359375
3.1499999,-10.45547866821289,-0.828393816947937,-2.0877439975738525,51.5594482421875,-20.81298828125,8.880615234375
3.1699999,-10.374075889587402,-0.3280056416988373,-1.7477672100067139,61.309814453125,-27.6336669921875,5.6915283203125
3.1899999,-10.232817649841309,0.2944868206977844,-1.137245774269104,68.3135986328125,-31.463623046875,0.5340576171875
3.2099999,-10.043676376342773,0.9911994934082031,-0.4213795065879822,50.1251220703125,-28.533935546875,-5.1727294921875
3.2299999,-9.86889934539795,1.723825216293335,0.7134721279144287,19.9737548828125,-19.0277099609375,-6.988525390625
3.2499999,-9.545681953430176,2.1763293743133545,1.9249382019042969,-21.0723876953125,-0.885009765625,-10.1470947265625
3.2699999,-9.390059471130371,2.274491548538208,2.9879636764526367,-57.7850341796875,23.284912109375,-11.3372802734375
3.2899999,-9.255983352661133,1.7956513166427612,3.3877954483032227,-74.3865966796875,37.7655029296875,-6.9427490234375
3.3099999,-9.464279174804688,0.8619126081466675,2.7485435009002686,-61.3250732421875,36.3311767578125,1.46484375
3.3299999000000002,-9.794678688049316,-0.24899697303771973,1.158793568611145,-13.7176513671875,16.7083740234375,7.1563720703125
3.3499999,-10.218452453613281,-1.0821791887283325,-0.8355764150619507,46.966552734375,-9.5672607421875,7.4462890625
3.3699999,-10.541669845581055,-0.7182605266571045,-2.7964274883270264,77.789306640625,-39.4439697265625,0.5645751953125
3.3899999,-10.345345497131348,0.42616790533065796,-1.7142484188079834,31.73828125,-26.8707275390625,-3.3416748046875
3.4099999,-9.847352027893066,1.6136919260025024,0.3687070608139038,-43.5638427734375,6.6070556640625,-7.5836181640625
3.4299999,-9.57201862335205,2.185906171798706,2.049436569213867,-99.822998046875,35.58349609375,-8.880615234375
3.4499999,-9.442731857299805,1.8818424940109253,2.671929121017456,-82.7178955078125,32.53173828125,-1.8310546875
3.4699999,-9.6989107131958,0.7996633648872375,1.6879122257232666,-13.4124755859375,7.5225830078125,3.2806396484375
3.4899999,-10.072406768798828,-0.45010992884635925,-0.12928688526153564,56.976318359375,-19.47021484375,4.8065185546875
3.5099999,-10.340557098388672,-1.1540051698684692,-1.7190368175506592,92.34619140625,-37.41455078125,4.8065185546875
3.5299999,-10.321403503417969,-0.7876923680305481,-1.7812861204147339,78.18603515625,-42.2821044921875,5.035400390625
3.5499999,-10.029311180114746,0.18914192914962769,-0.6799532771110535,7.7056884765625,-14.4805908203125,-0.244140625
3.5699999,-9.655815124511719,1.45806884765625,1.357512354850769,-70.1141357421875,20.7366943359375,-3.90625
3.5899999,-9.368511199951172,2.03507137298584,2.786850690841675,-106.2164306640625,39.6575927734375,-1.4190673828125
3.6099999,-9.373299598693848,1.8818424940109253,3.0550012588500977,-82.061767578125,32.6690673828125,2.1820068359375
3.6299999,-9.660603523254395,1.0342950820922852,1.9057846069335938,-32.2265625,15.8538818359375,3.8909912109375
3.6499999,-10.02691650390625,0.15562310814857483,0.090979665517807,16.6015625,-5.7373046875,5.035400390625
3.6699999,-10.292673110961914,-0.4189853072166443,-1.292868971824646,42.4652099609375,-24.2462158203125,1.556396484375
3.6899999,-10.24000072479248,-0.22026655077934265,-1.455674648284912,34.423828125,-24.5208740234375,-1.2054443359375
3.7099999,-10.132261276245117,0.08858546614646912,-0.9792284965515137,-13.6260986328125,0.91552734375,-3.7689208984375
3.7299999,-9.904812812805176,0.49320554733276367,0.15322890877723694,-34.36279296875,10.1776123046875,-0.2899169921875
3.7499999,-9.78989028930664,0.5841852426528931,0.7781155705451965,-17.2119140625,1.7852783203125,2.86865234375
3.7699999,-9.801861763000488,0.5147533416748047,1.113303780555725,5.9814453125,-4.4403076171875,2.227783203125
3.7899999,-9.847352027893066,0.42856210470199585,1.0414776802062988,0.6256103515625,1.89208984375,2.7618408203125
3.8099999,-9.926360130310059,0.5099649429321289,0.9768342971801758,-17.9595947265625,5.8135986328125,2.044677734375
3.8299999000000002,-10.029311180114746,0.7110779285430908,0.706289529800415,-23.7884521484375,5.3558349609375,-0.91552734375
3.8499999,-10.070012092590332,0.7565677165985107,0.40462008118629456,-10.5133056640625,0.335693359375,-5.3253173828125
3.8699999,-10.086771965026855,0.7158663272857666,0.12449848651885986,11.3067626953125,-5.67626953125,-8.60595703125
3.8899999,-10.034099578857422,0.4836287498474121,0.19871874153614044,20.69091796875,-4.7760009765625,-7.720947265625
3.9099999,-9.938331604003906,0.2561795711517334,0.5506663918495178,5.2032470703125,4.4403076171875,-2.2735595703125
3.9299999,-9.914389610290527,0.023942016065120697,0.849941611289978,-18.0816650390625,11.474609375,4.57763671875
3.9499999,-9.967061996459961,-0.2106897532939911,0.6775590777397156,-10.19287109375,7.537841796875,5.8135986328125
3.9699999,-10.043676376342773,-0.24899697303771973,0.1867477297782898,26.7333984375,-9.1400146484375,3.9215087890625
3.9899999,-10.213664054870605,-0.16519992053508759,-0.5770025849342346,50.96435546875,-22.613525390625,2.410888671875
4.0099999,-10.24000072479248,0.1867477297782898,-0.9026140570640564,47.5006103515625,-26.3671875,-1.4801025390625
4.029999900000001,-10.11789608001709,0.7134721279144287,-0.5530605912208557,31.280517578125,-23.86474609375,-6.0272216796875
4.0499999,-9.81143856048584,1.4077905416488647,0.7637503147125244,2.5177001953125,-13.671875,-7.415771484375
4.069999900000001,-9.425971984863281,1.8291701078414917,2.363077163696289,-61.126708984375,17.303466796875,-9.6435546875
4.0899999000000005,-9.260771751403809,1.941697597503662,3.5745432376861572,-115.386962890625,55.0689697265625,-5.9814453125
4.1099999,-9.275136947631836,1.3982137441635132,3.665522813796997,-111.907958984375,56.21337890625,5.1727294921875
4.1299999000000005,-9.670180320739746,0.4189853072166443,2.183511972427368,-54.5196533203125,33.38623046875,7.171630859375
4.1499999,-10.168174743652344,-0.6177040338516235,-0.16519992053508759,22.1099853515625,3.6163330078125,6.1187744140625
4.1699999000000005,-10.594342231750488,-1.278503656387329,-2.3558945655822754,78.3538818359375,-25.8636474609375,6.6680908203125
4.1899999,-10.793061256408691,-1.2689268589019775,-3.4572272300720215,98.93798828125,-40.283203125,2.0599365234375
4.209999900000001,-10.668562889099121,-0.7445967197418213,-3.157952070236206,92.6361083984375,-38.8031005859375,1.190185546875
4.2299999,-10.35252857208252,0.031124621629714966,-1.6950948238372803,67.5201416015625,-27.9083251953125,3.2958984375
4.249999900000001,-10.055646896362305,0.8690952062606812,0.10773907601833344,34.5916748046875,-12.7105712890625,7.7667236328125
4.2699999,-9.876082420349121,1.2330138683319092,1.723825216293335,15.56396484375,2.593994140625,7.3089599609375
4.289999900000001,-9.995792388916016,1.5705963373184204,2.6791117191314697,13.946533203125,6.1798095703125,0.518798828125
4.3099999,-10.309432983398438,1.4963760375976562,2.9281086921691895,5.9661865234375,7.9803466796875,-5.37109375
4.329999900000001,-10.752359390258789,1.4221558570861816,2.6168625354766846,-6.28662109375,14.2364501953125,-6.8206787109375
4.3499999,-11.192893028259277,1.3048399686813354,1.9536685943603516,-14.2059326171875,15.0146484375,-6.6986083984375
4.369999900000001,-11.480196952819824,1.1659762859344482,1.1444283723831177,-14.5263671875,9.796142578125,-8.209228515625
4.3899999,-11.561599731445312,0.9576807022094727,0.30885201692581177,-6.561279296875,1.6021728515625,-8.8653564453125
4.409999900000001,-11.250353813171387,0.6967126727104187,-0.27054479718208313,4.08935546875,-17.5323486328125,-2.1514892578125
4.4299999,-10.72602367401123,0.3998316824436188,-0.6200982332229614,11.53564453125,-18.707275390625,2.685546875
4.449999900000001,-9.96945571899414,0.08140286058187485,-0.6488286852836609,15.6402587890625,-6.2713623046875,-1.4801025390625
4.4699999,-9.229647636413574,-0.19393034279346466,-0.4596867263317108,16.357421875,4.0283203125,-8.85009765625
4.489999900000001,-8.65982723236084,-0.4213795065879822,-0.19632454216480255,13.7176513671875,10.31494140625,-15.9149169921875
4.5099999,-8.305485725402832,-0.5793967843055725,0.0454898327589035,11.0015869140625,10.6353759765625,-19.256591796875
4.529999900000001,-8.166622161865234,-0.6727706789970398,0.22026655077934265,8.880615234375,7.110595703125,-14.8162841796875
4.5499999,-8.219294548034668,-0.6631938815116882,0.33039984107017517,5.5999755859375,9.674072265625,-7.8125
4.569999900000001,-8.42040729522705,-0.5817909836769104,0.3734954595565796,2.227783203125,17.8375244140625,-7.26318359375
4.5899999000000005,-8.731653213500977,-0.4189853072166443,0.3734954595565796,1.3275146484375,18.24951171875,-9.2315673828125
4.609999900000001,-9.097966194152832,-0.22505496442317963,0.35434186458587646,1.5716552734375,10.7269287109375,-7.7667236328125
4.6299999000000005,-9.464279174804688,-0.043095629662275314,0.3280056416988373,1.5411376953125,10.6353759765625,-6.9427490234375
4.6499999,-9.773131370544434,0.10534487664699554,0.2968810200691223,2.2735595703125,14.4500732421875,-9.6282958984375
4.6699999000000005,-9.983820915222168,0.2059013396501541,0.2944868206977844,4.302978515625,7.26318359375,-9.1552734375
4.6899999,-10.096348762512207,0.26815059781074524,0.3064578175544739,6.04248046875,-2.777099609375,-2.960205078125
4.709999900000001,-10.079588890075684,0.3064578175544739,0.35913026332855225,6.3323974609375,-3.7078857421875,1.5869140625
4.7299999,-9.976638793945312,0.33279404044151306,0.45010992884635925,4.69970703125,0.6561279296875,2.9754638671875
4.749999900000001,-9.883264541625977,0.3711012601852417,0.5722141861915588,1.03759765625,-1.28173828125,5.2337646484375
4.7699999,-9.86889934539795,0.3998316824436188,0.6991068720817566,-3.265380859375,-5.8746337890625,4.6844482421875
4.789999900000001,-9.938331604003906,0.40222588181495667,0.8020575642585754,-6.7901611328125,-5.1116943359375,-1.861572265625
4.8099999,-10.019734382629395,0.3423708379268646,0.8738836050033569,-9.033203125,-1.251220703125,-7.049560546875
4.829999900000001,-10.098742485046387,0.2298433631658554,0.849941611289978,-9.0789794921875,1.7242431640625,-2.50244140625
4.8499999,-10.120290756225586,0.0933738648891449,0.7541735172271729,-5.1727294921875,-4.3182373046875,5.7220458984375
4.869999900000001,-10.110713958740234,-0.002394201699644327,0.6200982332229614,-0.3662109375,-11.3372802734375,7.6446533203125
4.8899999,-10.089165687561035,-0.021547814831137657,0.49559974670410156,1.6021728515625,-9.9334716796875,4.3182373046875
4.909999900000001,-10.007762908935547,0.06224924325942993,0.4357447028160095,0.4730224609375,-6.1798095703125,2.410888671875
4.9299999,-9.864110946655273,0.19871874153614044,0.4213795065879822,-2.0599365234375,-0.8697509765625,1.678466796875
4.949999900000001,-9.68694019317627,0.33997663855552673,0.40222588181495667,-3.9520263671875,3.7841796875,3.936767578125
4.9699999,-9.476250648498535,0.4572925269603729,0.3734954595565796,-4.1046142578125,0.640869140625,11.8255615234375
4.989999900000001,-9.512163162231445,0.5841852426528931,0.3471592366695404,-3.4637451171875,-4.4097900390625,20.050048828125
5.0099999,-9.840168952941895,0.6416460275650024,0.24660277366638184,-3.631591796875,1.15966796875,-2.0294189453125
5.029999900000001,-10.38604736328125,0.629675030708313,0.1412578970193863,-1.861572265625,4.82177734375,-14.3585205078125
5.0499999,-10.795455932617188,0.5817909836769104,-0.038307227194309235,2.105712890625,-1.953125,-0.4730224609375
5.069999900000001,-11.013327598571777,0.4118026793003082,-0.20350714027881622,7.781982421875,-9.979248046875,-1.4190673828125
5.0899999000000005,-10.795455932617188,0.16998831927776337,-0.2753331959247589,13.4429931640625,-13.031005859375,-3.11279296875
5.109999900000001,-10.462661743164062,-0.035913024097681046,-0.19153612852096558,16.5252685546875,-13.7939453125,0.3204345703125
5.1299999000000005,-10.1753568649292,-0.29209262132644653,0.05985504388809204,18.2037353515625,-14.2059326171875,2.50244140625
5.1499999,-9.96945571899414,-0.3998316824436188,0.4381389021873474,15.9759521484375,-12.0849609375,6.1492919921875
5.1699999000000005,-9.825803756713867,-0.3423708379268646,0.828393816947937,12.7105712890625,-7.0343017578125,10.2081298828125
5.1899999,-9.758766174316406,-0.10534487664699554,1.2306196689605713,11.2152099609375,-3.570556640625,7.720947265625
5.209999900000001,-9.701305389404297,0.33997663855552673,1.5538369417190552,2.6092529296875,0.946044921875,5.0811767578125
5.2299999,-9.672574996948242,0.811634361743927,1.8363527059555054,-16.2811279296875,10.8184814453125,2.9449462890625
5.249999900000001,-9.66539192199707,1.3120225667953491,1.9369091987609863,-31.6925048828125,16.7388916015625,-1.3275146484375
5.2699999,-9.68933391571045,1.4484920501708984,1.7693150043487549,-36.285400390625,18.280029296875,-4.547119140625
5.289999900000001,-9.821015357971191,1.3287819623947144,1.3982137441635132,-29.0069580078125,16.29638671875,-6.072998046875
5.3099999,-9.880870819091797,0.8259995579719543,0.7541735172271729,-15.3656005859375,10.31494140625,-6.3323974609375
5.329999900000001,-10.096348762512207,0.181959331035614,0.05985504388809204,3.0670166015625,6.6680908203125,-5.2032470703125
5.3499999,-10.158597946166992,-0.3974374830722809,-0.5051765441894531,22.3846435546875,-0.0457763671875,-2.1820068359375
5.369999900000001,-10.218452453613281,-0.7637503147125244,-0.8547300100326538,27.64892578125,-3.448486328125,0.9918212890625
5.3899999,-10.201693534851074,-0.6512228846549988,-0.8140285611152649,18.6614990234375,-4.45556640625,4.1961669921875
5.409999900000001,-10.158597946166992,-0.40701428055763245,-0.5051765441894531,7.1563720703125,-8.0413818359375,5.615234375
5.4299999,-10.110713958740234,0.1149216815829277,0.035913024097681046,-0.7171630859375,-7.6751708984375,3.3416748046875
5.449999900000001,-9.916783332824707,0.5841852426528931,0.6584054827690125,-9.2926025390625,-7.080078125,-0.4730224609375
5.4699999,-9.880870819091797,0.9002198576927185,1.1683704853057861,-19.439697265625,3.41796875,-2.899169921875
5.489999900000001,-9.691728591918945,1.036689281463623,1.460463047027588,-22.7813720703125,11.8255615234375,-5.5084228515625
5.5099999,-9.730035781860352,0.9361328482627869,1.4676456451416016,-22.979736328125,14.34326171875,-3.60107421875
5.529999900000001,-9.765948295593262,0.7182605266571045,1.3096283674240112,-25.665283203125,14.1754150390625,-1.89208984375
5.5499999,-9.816226959228516,0.42616790533065796,1.115697979927063,-31.524658203125,12.4359130859375,2.2430419921875
5.569999900000001,-9.955090522766113,0.17717093229293823,0.8236053586006165,-31.6009521484375,15.289306640625,4.974365234375
5.5899999000000005,-9.892841339111328,-0.033518824726343155,0.42616790533065796,-17.76123046875,10.9100341796875,2.6397705078125
5.609999900000001,-10.038887977600098,-0.2059013396501541,0.002394201699644327,2.7008056640625,6.561279296875,-3.3721923828125
5.6299999000000005,-10.08437728881836,-0.26336219906806946,-0.4596867263317108,14.6331787109375,-2.7618408203125,-6.4697265625
5.6499999,-10.134655952453613,-0.09576806426048279,-0.5530605912208557,10.345458984375,3.2501220703125,1.2054443359375
5.6699999000000005,-10.237606048583984,0.07900865375995636,-0.45250412821769714,-9.8114013671875,9.8114013671875,-0.579833984375
5.6899999,-10.137049674987793,0.3471592366695404,-0.17956513166427612,-17.2576904296875,0.732421875,-3.082275390625
5.709999900000001,-10.146626472473145,0.47165772318840027,0.06464344263076782,-5.859375,-3.204345703125,-2.716064453125
5.7299999,-10.019734382629395,0.4429273009300232,0.11971008777618408,5.4779052734375,-0.5950927734375,-5.0201416015625
5.749999900000001,-10.034099578857422,0.2585737705230713,0.11013327538967133,13.9923095703125,-2.3651123046875,-8.36181640625
5.7699999,-9.947908401489258,0.15322890877723694,0.08619125932455063,21.6522216796875,-8.6822509765625,-9.185791015625
5.789999900000001,-9.938331604003906,0.016759412363171577,0.33518823981285095,19.9432373046875,-2.62451171875,-0.4119873046875
5.8099999,-9.911994934082031,0.047884032130241394,0.6536170840263367,-11.627197265625,12.3138427734375,1.3580322265625
5.829999900000001,-9.876082420349121,0.06703764945268631,0.9672574996948242,-40.1153564453125,16.8304443359375,1.739501953125
5.8499999,-9.950302124023438,0.05985504388809204,0.9792284965515137,-32.9132080078125,9.2620849609375,2.716064453125
5.869999900000001,-9.974244117736816,-0.05985504388809204,0.5793967843055725,-4.608154296875,3.1280517578125,1.007080078125
5.8899999,-10.086771965026855,-0.2059013396501541,-0.07900865375995636,20.050048828125,0.335693359375,-0.091552734375
5.909999900000001,-10.158597946166992,-0.28969839215278625,-0.7086837291717529,33.0047607421875,-7.32421875,-2.3345947265625
5.9299999,-10.108319282531738,-0.08379705995321274,-0.8403648138046265,33.721923828125,-12.6800537109375,-3.3721923828125
5.949999900000001,-10.08437728881836,0.1867477297782898,-0.5770025849342346,11.077880859375,-7.354736328125,1.4495849609375
5.9699999,-9.971850395202637,0.4572925269603729,-0.090979665517807,-20.3704833984375,5.157470703125,1.15966796875
5.989999900000001,-9.916783332824707,0.6129156351089478,0.4692635238170624,-20.904541015625,-0.1678466796875,-0.42724609375
6.0099999,-9.888052940368652,0.524330198764801,0.6057330369949341,-7.2174072265625,-4.8828125,-1.9989013671875
6.029999900000001,-9.955090522766113,0.2513911724090576,0.4405331015586853,10.894775390625,-7.293701171875,-4.6844482421875
6.0499999,-9.96945571899414,-0.028730420395731926,0.20350714027881622,27.16064453125,-5.2337646484375,-4.791259765625
6.069999900000001,-10.005369186401367,-0.1388636976480484,0.09576806426048279,29.022216796875,-7.7056884765625,-3.2806396484375
6.0899999000000005,-9.962273597717285,0.014365210197865963,0.5027823448181152,2.2735595703125,-1.7852783203125,1.251220703125
6.109999900000001,-9.962273597717285,0.26575639843940735,0.8307880163192749,-40.0238037109375,13.3209228515625,3.3721923828125
6.1299999000000005,-9.888052940368652,0.4620809257030487,1.256955862045288,-51.5899658203125,17.88330078125,1.434326171875
6.149999900000001,-9.885659217834473,0.3902548849582672,1.0869675874710083,-33.38623046875,10.5133056640625,-0.8544921875
6.1699999000000005,-9.964667320251465,0.031124621629714966,0.5123591423034668,-5.5084228515625,0.4730224609375,-0.579833984375
6.1899999,-10.089165687561035,-0.3734954595565796,-0.26096799969673157,20.050048828125,-2.4871826171875,0.1678466796875
6.209999900000001,-10.139444351196289,-0.6584054827690125,-0.8643068075180054,36.1175537109375,-8.5906982421875,2.532958984375
6.2299999,-10.165780067443848,-0.5578489899635315,-0.912190854549408,29.78515625,-14.6026611328125,7.080078125
6.249999900000001,-10.122684478759766,-0.33039984107017517,-0.7134721279144287,1.0528564453125,-9.6435546875,10.0860595703125
6.2699999,-10.019734382629395,0.05027823522686958,-0.2968810200691223,-11.5814208984375,-9.490966796875,7.4615478515625
6.289999900000001,-9.986215591430664,0.2753331959247589,-0.002394201699644327,-0.0762939453125,-14.892578125,7.4005126953125
6.3099999,-10.02452278137207,0.45010992884635925,0.06703764945268631,12.8326416015625,-22.9644775390625,0.579833984375
6.329999900000001,-9.950302124023438,0.43095630407333374,0.1628057211637497,24.0325927734375,-23.590087890625,0.7171630859375
6.3499999,-9.959878921508789,0.5339069962501526,0.5003881454467773,18.61572265625,-17.2576904296875,-0.091552734375
6.369999900000001,-9.75397777557373,0.667982280254364,1.3215993642807007,-13.8092041015625,-4.1656494140625,2.5482177734375
6.3899999,-9.586383819580078,1.1204863786697388,2.477998733520508,-62.31689453125,16.7083740234375,7.9345703125
6.409999900000001,-9.375694274902344,1.436521053314209,3.4955344200134277,-108.09326171875,45.8221435546875,4.0283203125
6.4299999,-9.260771751403809,1.7908629179000854,4.079719543457031,-116.790771484375,57.18994140625,-4.7607421875
6.449999900000001,-9.330204010009766,1.764526605606079,3.6583402156829834,-108.3984375,63.7969970703125,-10.406494140625
6.4699999,-9.38048267364502,1.4532804489135742,2.4133553504943848,-78.704833984375,59.173583984375,-10.1318359375
6.489999900000001,-9.62947940826416,0.790086567401886,0.6392518281936646,-36.285400390625,48.431396484375,-14.862060546875
6.5099999,-9.770736694335938,0.0694318488240242,-0.9528923034667969,-5.1727294921875,36.224365234375,-16.41845703125
6.529999900000001,-9.95748519897461,-0.5985504388809204,-2.2457611560821533,-9.4451904296875,33.203125,-8.4228515625
6.5499999,-10.228029251098633,-1.0821791887283325,-2.96162748336792,-7.26318359375,21.1181640625,0.42724609375
6.569999900000001,-10.407594680786133,-1.4101848602294922,-3.4356794357299805,22.247314453125,3.6773681640625,-3.1585693359375
6.5899999000000005,-10.639832496643066,-1.41257905960083,-3.5242648124694824,60.791015625,-15.9912109375,-2.25830078125
6.609999900000001,-10.608707427978516,-1.1779472827911377,-3.3494882583618164,65.8721923828125,-24.1546630859375,2.777099609375
6.6299999000000005,-10.541669845581055,-0.7805097699165344,-2.7772738933563232,49.5452880859375,-27.191162109375,0.0457763671875
6.649999900000001,-10.24000072479248,-0.21787235140800476,-1.9177556037902832,36.1480712890625,-26.55029296875,-4.0283203125
6.6699999000000005,-10.050858497619629,0.09576806426048279,-1.0127472877502441,26.6571044921875,-22.5982666015625,-2.349853515625
6.6899999,-9.821015357971191,0.40940847992897034,0.035913024097681046,8.8043212890625,-15.07568359375,5.79833984375
6.709999900000001,-9.804255485534668,0.4429273009300232,0.871489405632019,-21.820068359375,-5.7220458984375,11.90185546875
6.7299999,-9.775525093078613,0.1867477297782898,1.1851298809051514,-35.980224609375,0.6103515625,8.6212158203125
6.749999900000001,-9.93354320526123,-0.12928688526153564,0.9241618514060974,-4.4097900390625,-8.392333984375,4.69970703125
6.7699999,-9.979032516479492,-0.5937620401382446,0.17477671802043915,37.7349853515625,-21.0723876953125,11.1846923828125
6.789999900000001,-10.14902114868164,-0.7709329724311829,-0.7086837291717529,55.877685546875,-25.6195068359375,9.70458984375
6.8099999,-10.098742485046387,-0.507570743560791,-0.871489405632019,57.6324462890625,-29.052734375,2.8839111328125
6.829999900000001,-9.983820915222168,0.1628057211637497,-0.38067805767059326,30.059814453125,-18.7530517578125,0.5340576171875
6.8499999,-9.763554573059082,0.9983820915222168,0.7972691655158997,-20.7061767578125,5.828857421875,0.457763671875
6.869999900000001,-9.564835548400879,1.6328455209732056,1.987187385559082,-62.31689453125,19.95849609375,-1.953125
6.8899999,-9.452308654785156,1.7956513166427612,2.6001031398773193,-71.075439453125,31.1279296875,-9.735107421875
6.909999900000001,-9.516951560974121,1.3982137441635132,2.3080103397369385,-39.0472412109375,29.4647216796875,-10.7879638671875
6.9299999,-9.734824180603027,0.5961562395095825,1.1420341730117798,-2.3956298828125,19.22607421875,-6.7901611328125
6.949999900000001,-10.005369186401367,-0.2825157940387726,-0.30885201692581177,28.472900390625,3.96728515625,-2.7618408203125
6.9699999,-10.204087257385254,-0.7589619159698486,-1.292868971824646,42.816162109375,-7.2021484375,-0.6866455078125
6.989999900000001,-10.278307914733887,-0.8259995579719543,-1.5538369417190552,18.5089111328125,-1.9989013671875,3.4637451171875
7.0099999,-10.249577522277832,-0.5363011956214905,-1.259350061416626,-14.373779296875,6.3934326171875,6.7901611328125
7.029999900000001,-10.160991668701172,-0.1604115068912506,-0.6847416758537292,-24.017333984375,0.244140625,5.8441162109375
7.0499999,-10.137049674987793,-0.06703764945268631,-0.5554547905921936,-10.467529296875,-3.4942626953125,1.5716552734375
7.069999900000001,-10.137049674987793,-0.10773907601833344,-0.6967126727104187,16.8304443359375,-13.519287109375,3.753662109375
7.0899999000000005,-10.134655952453613,-0.1867477297782898,-0.9385270476341248,34.8358154296875,-23.2391357421875,6.7291259765625
7.109999900000001,-10.0580415725708,-0.002394201699644327,-0.6751648783683777,28.7017822265625,-23.345947265625,5.2032470703125
7.1299999000000005,-9.847352027893066,0.40462008118629456,0.0071826050989329815,-11.0931396484375,-5.8135986328125,1.9683837890625
7.149999900000001,-9.593565940856934,0.9145850539207458,1.4269442558288574,-55.0994873046875,13.763427734375,6.6375732421875
7.1699999000000005,-9.770736694335938,0.6967126727104187,1.278503656387329,-36.92626953125,5.3253173828125,6.0272216796875
7.1899999,-9.897629737854004,0.3064578175544739,0.6105214357376099,-17.791748046875,2.532958984375,1.1444091796875
7.209999900000001,-10.074800491333008,0.043095629662275314,-0.2082955539226532,-0.1220703125,-5.523681640625,4.0283203125
7.2299999,-10.204087257385254,-0.05267243832349777,-0.7876923680305481,9.307861328125,-11.3525390625,1.5869140625
7.249999900000001,-10.165780067443848,0.05506663769483566,-1.0223240852355957,4.425048828125,-10.2386474609375,-1.678466796875
7.2699999,-10.17296314239502,0.22266076505184174,-0.8307880163192749,-4.5318603515625,-9.307861328125,0.518798828125
7.289999900000001,-10.079588890075684,0.33758243918418884,-0.5482721924781799,-5.1422119140625,-13.0157470703125,1.6632080078125
7.3099999,-9.931148529052734,0.5147533416748047,0.19393034279346466,-7.5225830078125,-15.9759521484375,1.312255859375
7.329999900000001,-9.907206535339355,0.5267243981361389,0.706289529800415,-35.919189453125,-1.9378662109375,1.708984375
7.3499999,-9.763554573059082,0.49799394607543945,1.1803414821624756,-57.4493408203125,10.1470947265625,2.044677734375
7.369999900000001,-9.885659217834473,0.23942017555236816,1.0678139925003052,-39.093017578125,6.744384765625,1.8310546875
7.3899999,-9.952696800231934,-0.16759411990642548,0.49320554733276367,8.0718994140625,-6.6070556640625,2.62451171875
7.409999900000001,-10.132261276245117,-0.43095630407333374,-0.2801215946674347,43.8232421875,-13.9007568359375,3.41796875
7.4299999,-10.18493366241455,-0.5195417404174805,-0.7230489253997803,54.534912109375,-19.7906494140625,5.9814453125
7.449999900000001,-10.26394271850586,-0.3280056416988373,-0.8786720037460327,43.0450439453125,-19.4244384765625,4.241943359375
7.4699999,-10.211270332336426,0.07661445438861847,-0.5746083855628967,41.9769287109375,-25.146484375,2.01416015625
7.489999900000001,-10.08437728881836,0.5386953949928284,-0.0694318488240242,39.1693115234375,-22.9644775390625,-1.922607421875
7.5099999,-9.93354320526123,1.1300631761550903,0.5937620401382446,22.918701171875,-16.632080078125,-7.62939453125
7.529999900000001,-9.68933391571045,1.5945383310317993,1.556231141090393,-0.6561279296875,-6.6680908203125,-13.4429931640625
7.5499999,-9.478644371032715,1.9345149993896484,2.6144683361053467,-34.5458984375,12.5732421875,-15.0146484375
7.569999900000001,-9.32302188873291,1.7741034030914307,3.375824451446533,-76.0498046875,38.3758544921875,-9.9029541015625
7.5899999000000005,-9.452308654785156,1.0582371950149536,3.2297780513763428,-88.2568359375,52.459716796875,-4.2724609375
7.609999900000001,-9.66539192199707,-0.06464344263076782,2.03507137298584,-41.80908203125,30.5938720703125,2.197265625
7.6299999000000005,-10.113107681274414,-1.1276689767837524,-0.16519992053508759,30.609130859375,2.9754638671875,5.4168701171875
7.649999900000001,-10.409989356994629,-1.7357962131500244,-2.3511061668395996,90.8355712890625,-25.2685546875,4.547119140625
7.6699999000000005,-10.575188636779785,-1.4413094520568848,-3.552995204925537,108.45947265625,-43.8385009765625,-1.6326904296875
7.6899999,-10.424354553222656,-0.43335050344467163,-3.0406360626220703,77.0111083984375,-42.90771484375,-4.8065185546875
7.709999900000001,-10.043676376342773,0.9002198576927185,-1.1204863786697388,-2.471923828125,-15.3961181640625,-4.8675537109375
7.7299999,-9.799467086791992,1.7142484188079834,0.9864110946655273,-74.8443603515625,18.1121826171875,-7.537841796875
7.749999900000001,-9.564835548400879,1.778891921043396,2.4899697303771973,-78.3843994140625,20.2789306640625,-4.9896240234375
7.7699999,-9.62947940826416,1.0007762908935547,2.410961151123047,-32.2265625,6.683349609375,0.5645751953125
7.789999900000001,-9.864110946655273,-0.15083470940589905,1.3431471586227417,24.4598388671875,-10.3607177734375,3.753662109375
7.8099999,-10.055646896362305,-1.01753568649292,0.05506663769483566,58.53271484375,-23.62060546875,5.4779052734375
7.829999900000001,-10.055646896362305,-1.01753568649292,-0.2082955539226532,53.192138671875,-25.054931640625,6.500244140625
7.8499999,-9.93354320526123,-0.3758896589279175,0.45250412821769714,-4.364013671875,-0.396728515625,6.40869140625
7.869999900000001,-9.768342971801758,0.47165772318840027,1.4844050407409668,-67.19970703125,28.106689453125,2.38037109375
7.8899999,-9.6989107131958,1.1037269830703735,2.1978771686553955,-74.188232421875,29.84619140625,2.4261474609375
7.909999900000001,-9.727641105651855,0.9816226959228516,1.6879122257232666,-32.4249267578125,13.5650634765625,2.2735595703125
7.9299999,-10.043676376342773,0.5626373887062073,0.35673606395721436,22.15576171875,-5.2032470703125,-2.3193359375
7.949999900000001,-10.141838073730469,0.011971008032560349,-0.912190854549408,61.920166015625,-25.054931640625,-3.5552978515625
7.9699999,-10.211270332336426,0.038307227194309235,-1.2617442607879639,63.1256103515625,-31.0516357421875,-5.5389404296875
7.989999900000001,-10.077195167541504,0.3423708379268646,-0.38067805767059326,13.5650634765625,-10.7269287109375,-5.1422119140625
8.0099999,-9.852140426635742,0.6871358752250671,0.9433154463768005,-51.8798828125,19.927978515625,-4.94384765625
8.0299999,-9.746794700622559,0.7565677165985107,1.9800047874450684,-61.614990234375,26.2603759765625,-1.0223388671875
8.049999900000001,-9.749189376831055,0.28969839215278625,1.9512743949890137,-21.42333984375,9.9334716796875,4.302978515625
8.069999900000001,-9.916783332824707,-0.31124621629714966,0.933738648891449,23.040771484375,-4.0740966796875,2.0904541015625
8.0899999,-10.103530883789062,-0.6584054827690125,-0.0933738648891449,51.4373779296875,-18.096923828125,2.410888671875
8.1099999,-10.08437728881836,-0.3734954595565796,-0.2825157940387726,35.46142578125,-19.3328857421875,0.8087158203125
8.129999900000001,-10.029311180114746,0.23702596127986908,0.08858546614646912,-24.5513916015625,6.1187744140625,-2.2430419921875
8.149999900000001,-9.794678688049316,0.8690952062606812,1.0749965906143188,-69.5343017578125,22.7508544921875,-0.030517578125
8.1699999,-9.653421401977539,1.113303780555725,1.7334020137786865,-76.0345458984375,22.1405029296875,2.532958984375
8.1899999,-9.533711433410645,0.950498104095459,1.9776105880737305,-65.2618408203125,17.852783203125,4.3487548828125
8.2099999,-9.742006301879883,0.35673606395721436,1.3120225667953491,-65.185546875,26.2603759765625,6.28662109375
8.229999900000001,-9.976638793945312,-0.12689268589019775,0.3232172429561615,-34.0423583984375,13.427734375,8.1329345703125
8.2499999,-10.163386344909668,-0.507570743560791,-0.730231523513794,19.2413330078125,-14.34326171875,3.4027099609375
8.2699999,-10.395624160766602,-0.6320692300796509,-1.5490485429763794,44.403076171875,-19.9737548828125,-3.6163330078125
8.2899999,-10.326191902160645,-0.5650315880775452,-1.4772224426269531,50.5218505859375,-16.2200927734375,-0.9002685546875
8.309999900000001,-10.290278434753418,-0.4357447028160095,-1.036689281463623,44.7845458984375,-16.448974609375,5.0201416015625
8.3299999,-10.235212326049805,-0.26575639843940735,-0.4141969084739685,45.71533203125,-20.0958251953125,4.6234130859375
8.3499999,-10.11789608001709,0.047884032130241394,0.19632454216480255,56.5338134765625,-25.3753662109375,3.9215087890625
8.3699999,-9.974244117736816,0.569819986820221,0.6991068720817566,43.2586669921875,-20.99609375,0.9765625
8.389999900000001,-9.797073364257812,1.2042834758758545,1.436521053314209,12.02392578125,-10.8642578125,-5.3863525390625
8.4099999,-9.512163162231445,1.8794482946395874,2.5258827209472656,-25.81787109375,4.364013671875,-12.3291015625
8.4299999,-9.397241592407227,2.0422539710998535,3.4572272300720215,-71.59423828125,35.552978515625,-12.0849609375
8.4499999,-9.344569206237793,1.6519991159439087,3.6727054119110107,-94.4976806640625,55.8013916015625,-3.6163330078125
8.469999900000001,-9.536105155944824,0.5506663918495178,2.7054479122161865,-62.7899169921875,41.7022705078125,2.1514892578125
8.4899999,-9.974244117736816,-0.7134721279144287,0.4644751250743866,18.85986328125,8.2550048828125,6.1492919921875
8.5099999,-10.3549222946167,-1.5394717454910278,-1.8698714971542358,90.301513671875,-25.634765625,9.674072265625
8.5299999,-10.615890502929688,-1.5538369417190552,-3.4380736351013184,105.89599609375,-44.647216796875,3.0670166015625
8.549999900000001,-10.493785858154297,-0.5961562395095825,-2.9448680877685547,75.836181640625,-43.426513671875,-5.55419921875
8.569999900000001,-10.06043529510498,0.7541735172271729,-0.933738648891449,-2.74658203125,-13.4124755859375,-7.7972412109375
8.5899999,-9.624691009521484,1.7357962131500244,1.556231141090393,-85.296630859375,28.1829833984375,-4.974365234375
8.6099999,-9.313444137573242,1.944091796875,3.1699230670928955,-103.179931640625,41.259765625,-0.3662109375
8.629999900000001,-9.35893440246582,1.2545616626739502,3.1076738834381104,-56.365966796875,22.27783203125,1.190185546875
8.649999900000001,-9.648633003234863,0.38067805767059326,1.7693150043487549,4.8370361328125,2.349853515625,5.06591796875
8.6699999,-9.923966407775879,-0.4141969084739685,0.2059013396501541,25.970458984375,-12.2528076171875,5.92041015625
8.6899999,-10.050858497619629,-0.4141969084739685,-0.36152446269989014,11.0015869140625,-15.533447265625,-1.7547607421875
8.709999900000001,-9.919178009033203,0,-0.0454898327589035,-41.778564453125,9.0484619140625,-1.800537109375
8.729999900000001,-9.859322547912598,0.4118026793003082,0.7254431247711182,-89.1265869140625,34.5306396484375,-0.6103515625
8.7499999,-9.825803756713867,0.35673606395721436,0.9457096457481384,-73.30322265625,26.4129638671875,5.096435546875
8.7699999,-10.002974510192871,-0.2059013396501541,0.33279404044151306,-4.608154296875,1.556396484375,2.25830078125
8.7899999,-10.36449909210205,-0.9648633003234863,-0.9217676520347595,72.0672607421875,-19.4091796875,6.317138671875
8.809999900000001,-10.539276123046875,-1.2665326595306396,-1.886630892753601,105.3619384765625,-36.163330078125,10.711669921875
8.8299999,-10.548852920532227,-0.751779317855835,-1.889025092124939,98.236083984375,-42.694091796875,7.049560546875
8.8499999,-10.251971244812012,0.4668693244457245,-0.6153098344802856,55.908203125,-30.487060546875,-3.9215087890625
8.8699999,-9.674968719482422,1.8171991109848022,1.5873557329177856,-19.195556640625,5.6915283203125,-15.4876708984375
8.889999900000001,-9.366117477416992,2.5091233253479004,3.220201253890991,-83.2366943359375,47.8515625,-15.56396484375
8.9099999,-9.148244857788086,2.1978771686553955,3.7181951999664307,-76.2939453125,44.5709228515625,-9.1552734375
8.9299999,-9.519346237182617,1.0558429956436157,2.2816741466522217,-5.645751953125,15.0604248046875,-6.04248046875
8.9499999,-9.895236015319824,-0.272938996553421,0.0933738648891449,67.962646484375,-16.5252685546875,-1.8768310546875
8.969999900000001,-10.283096313476562,-1.161187767982483,-1.7717092037200928,95.15380859375,-36.041259765625,-3.0670166015625
8.9899999,-10.417171478271484,-1.1204863786697388,-2.169146776199341,80.596923828125,-36.80419921875,-6.561279296875
9.0099999,-10.127472877502441,-0.3758896589279175,-0.5482721924781799,28.1829833984375,-18.9208984375,-1.46484375
9.0299999,-9.794678688049316,0.5626373887062073,1.45806884765625,-68.42041015625,28.472900390625,-1.0833740234375
9.049999900000001,-9.543288230895996,1.1204863786697388,3.0621838569641113,-114.5477294921875,55.9539794921875,2.288818359375
9.069999900000001,-9.550470352172852,0.9983820915222168,2.920926094055176,-72.20458984375,35.4156494140625,3.8909912109375
9.0899999,-9.909601211547852,0.3232172429561615,1.237802267074585,7.8582763671875,3.6773681640625,5.0811767578125
9.1099999,-10.220847129821777,-0.4596867263317108,-0.8475474119186401,69.6258544921875,-26.1383056640625,2.6092529296875
9.129999900000001,-10.465055465698242,-0.7661445140838623,-2.0638017654418945,90.118408203125,-35.8734130859375,-2.593994140625
9.149999900000001,-10.369287490844727,-0.507570743560791,-1.644816517829895,71.77734375,-26.0009765625,-0.9307861328125
9.1699999,-10.002974510192871,0.040701430290937424,0.031124621629714966,14.5111083984375,-1.5411376953125,1.7547607421875
9.1899999,-9.818621635437012,0.3734954595565796,1.5682021379470825,-40.771484375,31.92138671875,7.0648193359375
9.209999900000001,-9.586383819580078,0.40701428055763245,2.5546131134033203,-31.31103515625,28.5186767578125,14.6026611328125
9.229999900000001,-9.648633003234863,0.12449848651885986,2.1930887699127197,18.5699462890625,10.5133056640625,14.70947265625
9.2499999,-9.84256362915039,-0.047884032130241394,1.1851298809051514,46.69189453125,-0.30517578125,11.04736328125
9.2699999,-10.08198356628418,0.11013327538967133,0.22266076505184174,43.731689453125,-2.0904541015625,5.8746337890625
9.2899999,-10.218452453613281,0.5267243981361389,-0.26336219906806946,24.688720703125,-0.274658203125,0.5035400390625
9.309999900000001,-10.383652687072754,0.9768342971801758,-0.2585737705230713,4.9591064453125,3.3111572265625,-1.953125
9.3299999,-10.611102104187012,1.290474772453308,0,-7.6751708984375,10.467529296875,-7.476806640625
9.3499999,-10.833763122558594,1.3096283674240112,0.272938996553421,-11.3372802734375,8.5296630859375,-12.02392578125
9.3699999,-11.159374237060547,1.0989385843276978,0.37828385829925537,-8.0108642578125,3.143310546875,-11.627197265625
9.389999900000001,-11.422736167907715,0.7326257228851318,0.3016694188117981,0.9765625,1.861572265625,-8.5906982421875
9.4099999,-11.434707641601562,0.3902548849582672,0.11252748221158981,11.6729736328125,-0.518798828125,-12.420654296875
9.4299999,-11.252747535705566,0.1364694982767105,-0.07661445438861847,18.3563232421875,-3.326416015625,-14.2822265625
9.4499999,-10.831368446350098,0.07422025501728058,-0.1843535304069519,19.22607421875,-1.7852783203125,-16.4947509765625
9.469999900000001,-10.251971244812012,0.09816227108240128,-0.15322890877723694,16.9677734375,0.7476806640625,-14.862060546875
9.4899999,-9.648633003234863,0.16759411990642548,-0.028730420395731926,13.5498046875,9.5062255859375,-10.5133056640625
9.5099999,-9.10993766784668,0.23702596127986908,0.12210428714752197,10.498046875,19.3634033203125,-4.6539306640625
9.5299999,-8.734047889709473,0.31124621629714966,0.26096799969673157,7.4615478515625,15.7623291015625,3.60107421875
9.549999900000001,-8.530540466308594,0.38067805767059326,0.33997663855552673,3.8909912109375,4.6844482421875,8.758544921875
9.569999900000001,-8.480262756347656,0.4405331015586853,0.35913026332855225,1.556396484375,3.47900390625,7.2784423828125
9.5899999,-8.516175270080566,0.4572925269603729,0.3280056416988373,0.91552734375,9.796142578125,6.16455078125
9.6099999,-8.597578048706055,0.4213795065879822,0.2777273952960968,0.91552734375,9.21630859375,9.5367431640625
9.629999900000001,-8.71728801727295,0.3256114423274994,0.21547815203666687,1.7242431640625,5.4473876953125,12.0391845703125
9.649999900000001,-8.892065048217773,0.1843535304069519,0.1412578970193863,3.509521484375,6.622314453125,11.138916015625
9.6699999,-9.10993766784668,0.021547814831137657,0.08858546614646912,6.2103271484375,6.5765380859375,11.9476318359375
9.6899999,-9.368511199951172,-0.11252748221158981,0.06224924325942993,8.48388671875,1.251220703125,14.2822265625
9.709999900000001,-9.627084732055664,-0.21547815203666687,0.07422025501728058,10.162353515625,-0.2899169921875,10.2386474609375
9.729999900000001,-9.8784761428833,-0.2849099934101105,0.10534487664699554,10.101318359375,5.4473876953125,2.716064453125
9.7499999,-10.079588890075684,-0.304063618183136,0.15083470940589905,8.9263916015625,6.0882568359375,1.251220703125
9.7699999,-10.247182846069336,-0.2992752194404602,0.19153612852096558,7.38525390625,-0.6561279296875,3.60107421875
9.7899999,-10.35252857208252,-0.2777273952960968,0.21787235140800476,6.9580078125,-3.265380859375,1.8157958984375
9.809999900000001,-10.400412559509277,-0.21308395266532898,0.23702596127986908,8.087158203125,-0.2288818359375,-0.9918212890625
9.8299999,-10.38604736328125,-0.10773907601833344,0.26815059781074524,8.2550048828125,0.7781982421875,-0.091552734375
9.8499999,-10.359710693359375,0.038307227194309235,0.2849099934101105,6.2713623046875,-0.4119873046875,0.274658203125
9.8699999,-10.321403503417969,0.17477671802043915,0.29209262132644653,4.5166015625,-2.166748046875,-2.86865234375
9.889999900000001,-10.26394271850586,0.28969839215278625,0.30885201692581177,3.5400390625,-6.988525390625,-2.716064453125
9.9099999,-10.220847129821777,0.35913026332855225,0.3232172429561615,1.495361328125,-7.62939453125,2.0599365234375
9.9299999,-10.18493366241455,0.40701428055763245,0.33279404044151306,-1.2359619140625,-2.4871826171875,2.4261474609375
9.9499999,-10.144232749938965,0.4165911078453064,0.3232172429561615,-3.0517578125,0.4425048828125,-3.7384033203125
9.969999900000001,-10.101137161254883,0.4165911078453064,0.26336219906806946,-2.9754638671875,-0.42724609375,-5.2032470703125
9.9899999,-10.002974510192871,0.3974374830722809,0.16519992053508759,-1.2359619140625,-1.15966796875,0.7781982421875
10.0099999,-9.964667320251465,0.3902548849582672,0.05985504388809204,0.5340576171875,0.06103515625,4.5623779296875
10.0299999,-9.940725326538086,0.38067805767059326,-0.016759412363171577,1.251220703125,-1.5106201171875,-2.9296875
10.049999900000001,-10.046070098876953,0.37828385829925537,-0.07182604819536209,0.823974609375,-5.6610107421875,-5.4931640625
10.069999900000001,-10.160991668701172,0.3711012601852417,-0.08619125932455063,0.67138671875,-3.021240234375,2.1820068359375
10.0899999,-10.201693534851074,0.3256114423274994,-0.10055647045373917,0.9918212890625,-4.7454833984375,2.1820068359375
10.1099999,-10.158597946166992,0.26815059781074524,-0.090979665517807,3.1890869140625,-7.0343017578125,0.48828125
10.129999900000001,-10.072406768798828,0.20350714027881622,-0.05027823522686958,6.2713623046875,-8.0413818359375,0.6866455078125
10.149999900000001,-9.974244117736816,0.12689268589019775,0,8.0413818359375,-8.4686279296875,2.7008056640625
10.1699999,-9.919178009033203,0.10534487664699554,0.08858546614646912,9.552001953125,-9.5367431640625,3.9215087890625
10.1899999,-9.888052940368652,0.12928688526153564,0.2322375625371933,9.9639892578125,-9.490966796875,3.6468505859375
10.209999900000001,-9.86650562286377,0.22026655077934265,0.3974374830722809,5.9356689453125,-6.9580078125,3.570556640625
10.229999900000001,-9.86650562286377,0.31364041566848755,0.5578489899635315,0.8544921875,-4.1046142578125,3.4637451171875
10.2499999,-9.8784761428833,0.45489832758903503,0.7158663272857666,-0.823974609375,-2.8533935546875,2.7923583984375
10.2699999,-9.909601211547852,0.5482721924781799,0.7876923680305481,-2.471923828125,-1.2664794921875,2.593994140625
10.2899999,-9.93593692779541,0.629675030708313,0.7613561153411865,-5.06591796875,1.007080078125,2.2430419921875
10.309999900000001,-9.737217903137207,0.629675030708313,0.6991068720817566,-3.997802734375,0.67138671875,1.007080078125
10.3299999,-9.794678688049316,0.6943184733390808,0.6607996821403503,-6.1187744140625,0.1220703125,3.0364990234375
10.3499999,-9.734824180603027,0.6488286852836609,0.6177040338516235,-14.4500732421875,3.143310546875,-0.67138671875
10.3699999,-9.916783332824707,0.49320554733276367,0.5386953949928284,-11.90185546875,4.638671875,0.18310546875
10.389999900000001,-10.079588890075684,0.3471592366695404,0.42616790533065796,-0.244140625,-0.396728515625,2.227783203125
10.4099999,-10.165780067443848,0.05985504388809204,0.26575639843940735,9.5367431640625,-5.4168701171875,2.9449462890625
10.4299999,-10.139444351196289,-0.10534487664699554,0.047884032130241394,16.143798828125,-1.6021728515625,4.547119140625
10.4499999,-10.125079154968262,-0.18914192914962769,-0.033518824726343155,28.6407470703125,2.105712890625,2.9296875
10.469999900000001,-10.105925559997559,-0.1149216815829277,-0.038307227194309235,38.787841796875,-5.67626953125,6.622314453125
10.4899999,-10.096348762512207,0.10773907601833344,0.2082955539226532,38.4521484375,-10.5438232421875,14.83154296875
10.5099999,-9.926360130310059,0.4381389021873474,0.5913678407669067,24.2156982421875,-7.568359375,7.87353515625
10.5299999,-9.828198432922363,0.9050082564353943,0.9217676520347595,4.0435791015625,5.340576171875,-1.3580322265625
10.549999900000001,-9.77791976928711,1.2952631711959839,1.2425906658172607,-3.90625,11.5203857421875,-1.03759765625
10.569999900000001,-9.641449928283691,1.647210717201233,1.556231141090393,-20.6146240234375,18.37158203125,0.5340576171875
10.5899999,-9.816226959228516,1.8698714971542358,1.5514427423477173,-48.8433837890625,28.6712646484375,2.0751953125
10.6099999,-9.746794700622559,1.8267759084701538,1.534683346748352,-56.15234375,25.3448486328125,-2.838134765625
10.629999900000001,-9.856928825378418,1.3958195447921753,1.0031704902648926,-47.3785400390625,28.289794921875,-8.4991455078125
10.649999900000001,-9.871294021606445,0.8427590131759644,0.2346317619085312,-25.32958984375,21.0723876953125,-9.2620849609375
10.6699999,-10.101137161254883,0.06224924325942993,-0.7350199222564697,0.67138671875,11.077880859375,1.9073486328125
10.6899999,-10.266336441040039,-0.5410895943641663,-1.5682021379470825,19.5465087890625,3.1585693359375,9.521484375
10.709999900000001,-10.390835762023926,-0.6991068720817566,-2.013523578643799,35.6292724609375,-18.218994140625,6.591796875
10.729999900000001,-10.407594680786133,-0.629675030708313,-2.030282974243164,39.85595703125,-27.0233154296875,6.9732666015625
10.7499999,-10.273519515991211,-0.16998831927776337,-1.599326729774475,28.533935546875,-14.739990234375,3.4942626953125
10.7699999,-10.022128105163574,0.47644615173339844,-0.6440402865409851,10.4522705078125,-12.5579833984375,1.8768310546875
10.7899999,-9.854534149169922,1.0582371950149536,0.27054479718208313,-16.4642333984375,-4.0130615234375,11.04736328125
10.809999900000001,-9.801861763000488,1.403002142906189,0.993593692779541,-34.6527099609375,3.84521484375,9.765625
10.8299999,-9.694122314453125,1.3718775510787964,1.3455413579940796,-27.435302734375,-0.762939453125,1.4190673828125
10.8499999,-9.84495735168457,1.0199298858642578,1.0821791887283325,-6.2408447265625,-2.1820068359375,3.082275390625
10.8699999,-9.861717224121094,0.629675030708313,0.7422025203704834,15.5792236328125,-1.0528564453125,3.204345703125
10.889999900000001,-9.923966407775879,0.524330198764801,0.6200982332229614,14.34326171875,-2.7008056640625,4.2266845703125
10.9099999,-9.974244117736816,0.6655880808830261,0.608127236366272,-19.5770263671875,6.9732666015625,9.9334716796875
10.9299999,-9.911994934082031,0.9528923034667969,0.7374141216278076,-38.4063720703125,13.1988525390625,5.2642822265625
10.9499999,-9.816226959228516,1.213860273361206,0.7254431247711182,-25.2838134765625,8.544921875,-2.5482177734375
10.969999900000001,-9.734824180603027,1.259350061416626,0.586579442024231,-8.2855224609375,5.7830810546875,-4.5013427734375
10.9899999,-9.519346237182617,1.4293384552001953,0.7086837291717529,-12.7410888671875,7.38525390625,-4.791259765625
11.0099999,-9.332598686218262,1.7836803197860718,1.4245500564575195,-61.279296875,30.4107666015625,-6.8511962890625
11.0299999,-9.315838813781738,2.0422539710998535,2.0901381969451904,-135.1318359375,58.380126953125,-2.44140625
11.049999900000001,-9.20091724395752,2.1715409755706787,2.434903144836426,-166.1376953125,73.6236572265625,7.50732421875
11.069999900000001,-9.346963882446289,1.7860745191574097,2.2433669567108154,-136.383056640625,62.744140625,16.5863037109375
11.0899999,-9.763554573059082,0.6991068720817566,-0.002394201699644327,-96.343994140625,58.3343505859375,4.974365234375
11.1099999,-10.204087257385254,0.19393034279346466,-1.625662922859192,-63.8275146484375,56.7169189453125,1.4190673828125
11.129999900000001,-10.304644584655762,0.15562310814857483,-2.4684219360351562,-14.495849609375,27.3590087890625,12.14599609375
11.149999900000001,-10.381258964538574,0.6823474764823914,-3.064578056335449,-23.3612060546875,19.683837890625,7.293701171875
11.1699999,-10.230423927307129,1.4484920501708984,-2.9257144927978516,-64.910888671875,22.9644775390625,-6.378173828125
11.1899999,-9.885659217834473,2.3343467712402344,-2.389413356781006,-87.9058837890625,35.400390625,-23.8494873046875
11.209999900000001,-9.782708168029785,2.6647465229034424,-1.678335428237915,-91.00341796875,30.303955078125,-20.56884765625
11.229999900000001,-9.72285270690918,1.7381904125213623,-2.169146776199341,-91.97998046875,34.912109375,-9.9029541015625
11.2499999,-9.763554573059082,0.849941611289978,-2.0805611610412598,-8.8043212890625,-1.6632080078125,-0.244140625
11.2699999,-10.036493301391602,-0.2777273952960968,-2.7006595134735107,16.2811279296875,-20.08056640625,-3.0364990234375
11.2899999,-10.216058731079102,-0.7733271718025208,-3.098097085952759,-1.9378662109375,0.79345703125,-9.1094970703125
11.309999900000001,-10.091560363769531,-0.011971008032560349,-1.7573440074920654,15.350341796875,-17.5323486328125,11.16943359375
11.3299999,-9.847352027893066,0.7110779285430908,-0.9864110946655273,-65.704345703125,13.36669921875,-0.0457763671875
11.3499999,-9.526528358459473,1.7262194156646729,0.26815059781074524,-133.4075927734375,45.6085205078125,-9.2620849609375
11.3699999,-9.160215377807617,2.3702597618103027,0.8906430602073669,-129.852294921875,45.501708984375,0.0762939453125
11.389999900000001,-9.215282440185547,2.4205379486083984,0.7182605266571045,-113.6322021484375,26.580810546875,-1.77001953125
11.4099999,-9.509769439697266,1.8914192914962769,-0.4381389021873474,-112.7471923828125,47.088623046875,-16.1895751953125
11.4299999,-9.80904483795166,1.094150185585022,-2.0877439975738525,-55.419921875,31.06689453125,-0.701904296875
11.4499999,-10.32858657836914,0.08619125932455063,-4.2090067863464355,34.66796875,-11.0931396484375,0.091552734375
11.469999900000001,-10.551246643066406,-0.7541735172271729,-6.021417140960693,106.5826416015625,-58.2122802734375,-7.2021484375
11.4899999,-10.57040023803711,-0.8547300100326538,-6.150704383850098,115.7684326171875,-62.3779296875,-5.523681640625
11.5099999,-10.314221382141113,-0.17717093229293823,-4.467580318450928,53.6041259765625,-45.6085205078125,7.26318359375
11.5299999,-9.744400978088379,1.1851298809051514,-1.3215993642807007,-49.560546875,-2.7618408203125,10.040283203125
11.549999900000001,-9.248801231384277,2.736572504043579,2.078166961669922,-133.148193359375,38.116455078125,1.15966796875
11.569999900000001,-8.820239067077637,3.56017804145813,3.627215623855591,-181.854248046875,76.1871337890625,-13.3819580078125
11.5899999,-8.947132110595703,3.4093432426452637,3.1196448802948,-148.8800048828125,68.8323974609375,-5.37109375
11.6099999,-9.461885452270508,1.9752163887023926,-0.009576806798577309,-63.7969970703125,29.266357421875,-0.7171630859375
11.629999900000001,-10.20648193359375,0.0071826050989329815,-4.369418144226074,72.8607177734375,-35.58349609375,0.67138671875
11.649999900000001,-10.845733642578125,-1.4437036514282227,-8.109161376953125,204.864501953125,-99.853515625,0.0762939453125
11.6699999,-10.975020408630371,-1.7381904125213623,-9.679757118225098,260.162353515625,-128.082275390625,0.8392333984375
11.6899999,-10.400412559509277,-0.33758243918418884,-7.663839817047119,216.5069580078125,-114.654541015625,1.3427734375
11.709999900000001,-9.478644371032715,1.9728221893310547,-3.069366693496704,74.52392578125,-55.572509765625,-1.6021728515625
11.729999900000001,-8.595184326171875,4.28322696685791,1.9560627937316895,-88.7603759765625,25.2227783203125,-13.4124755859375
11.7499999,-8.13789176940918,5.355829238891602,5.406107425689697,-169.0521240234375,61.920166015625,-14.9993896484375
11.7699999,-8.248024940490723,4.900930881500244,5.87776517868042,-156.097412109375,49.6978759765625,-9.27734375
11.7899999,-8.920795440673828,3.1723172664642334,3.9240965843200684,-92.3919677734375,24.688720703125,-0.18310546875
11.809999900000001,-9.576807022094727,1.1779472827911377,1.113303780555725,-40.7562255859375,11.1236572265625,0.6103515625
11.8299999,-10.093954086303711,-0.23702596127986908,-1.0797849893569946,-23.49853515625,7.5225830078125,-0.152587890625
11.8499999,-10.359710693359375,-0.9959878921508789,-2.4660277366638184,-27.34375,12.8936767578125,1.03759765625
11.8699999,-10.38844108581543,-1.1635819673538208,-3.066972494125366,-16.815185546875,10.1165771484375,5.4473876953125
11.889999900000001,-10.433931350708008,-1.0031704902648926,-3.339911460876465,13.7481689453125,-8.8043212890625,11.8560791015625
11.9099999,-10.362105369567871,-0.5746083855628967,-3.2393548488616943,41.168212890625,-26.4129638671875,13.6260986328125
11.9299999,-10.259154319763184,0.18914192914962769,-2.6024973392486572,42.8924560546875,-27.496337890625,6.988525390625
11.9499999,-10.038887977600098,1.1659762859344482,-1.5298948287963867,19.073486328125,-11.16943359375,-1.617431640625
11.969999900000001,-9.835380554199219,1.987187385559082,-0.47165772318840027,-0.7171630859375,4.1656494140625,-9.002685546875
11.9899999,-9.708487510681152,2.27209734916687,-0.07900865375995636,5.157470703125,1.3580322265625,-12.1002197265625
12.0099999,-9.763554573059082,1.9297266006469727,-0.4572925269603729,36.5753173828125,-16.754150390625,-11.3677978515625
12.0299999,-9.895236015319824,1.2641384601593018,-1.1851298809051514,70.0836181640625,-33.294677734375,-8.30078125
12.049999900000001,-9.99339771270752,0.689530074596405,-1.5825673341751099,77.0263671875,-37.4755859375,-5.584716796875
12.069999900000001,-9.926360130310059,0.5506663918495178,-1.1276689767837524,48.52294921875,-27.34375,-6.8206787109375
12.0899999,-9.785101890563965,0.811634361743927,-0.17238251864910126,-2.2735595703125,-4.0283203125,-8.514404296875
12.1099999,-9.677363395690918,1.0606313943862915,0.586579442024231,-38.360595703125,13.6566162109375,-7.843017578125
12.129999900000001,-9.691728591918945,1.039083480834961,0.6655880808830261,-33.02001953125,5.4931640625,-2.716064453125
12.149999900000001,-9.816226959228516,0.7709329724311829,0.1604115068912506,-7.50732421875,-15.0299072265625,2.0294189453125
12.1699999,-9.964667320251465,0.4644751250743866,-0.45010992884635925,-2.7618408203125,-20.20263671875,2.74658203125
12.1899999,-10.043676376342773,0.3687070608139038,-0.7134721279144287,-23.74267578125,-7.50732421875,1.800537109375
12.209999900000001,-10.031704902648926,0.4572925269603729,-0.5961562395095825,-40.46630859375,0.701904296875,1.2359619140625
12.229999900000001,-10.005369186401367,0.6009446382522583,-0.33758243918418884,-35.6292724609375,-3.9825439453125,2.1209716796875
12.2499999,-9.955090522766113,0.6536170840263367,-0.1364694982767105,-23.529052734375,-7.9498291015625,3.509521484375
12.2699999,-9.9000244140625,0.6991068720817566,0.11252748221158981,-22.64404296875,-2.8076171875,4.33349609375
12.289999900000002,-9.876082420349121,0.730231523513794,0.2968810200691223,-33.69140625,7.1868896484375,3.4332275390625
12.309999900000001,-9.890447616577148,0.6703764796257019,0.29209262132644653,-35.4156494140625,11.3983154296875,2.62451171875
12.3299999,-9.938331604003906,0.5530605912208557,0.08619125932455063,-19.47021484375,4.94384765625,5.1422119140625
12.3499999,-9.983820915222168,0.47884035110473633,-0.2106897532939911,-5.67626953125,-2.5482177734375,8.4381103515625
12.3699999,-9.952696800231934,0.5578489899635315,-0.26096799969673157,-8.3160400390625,-2.8076171875,7.5836181640625
12.389999900000001,-9.943120002746582,0.7158663272857666,-0.31842881441116333,-20.172119140625,7.5531005859375,3.204345703125
12.4099999,-9.86889934539795,0.9864110946655273,-0.18914192914962769,-12.0086669921875,7.99560546875,-0.0457763671875
12.4299999,-9.90241813659668,1.0630255937576294,-0.3519476354122162,0.1983642578125,2.8533935546875,-3.0517578125
12.4499999,-9.93354320526123,1.036689281463623,-0.47644615173339844,8.514404296875,-1.678466796875,-3.5400390625
12.469999900000001,-9.95748519897461,0.9385270476341248,-0.5171475410461426,7.0343017578125,-3.4942626953125,-0.8697509765625
12.4899999,-9.95748519897461,0.8619126081466675,-0.4213795065879822,-1.5716552734375,1.4495849609375,0.823974609375
12.5099999,-9.907206535339355,0.8667010068893433,-0.21308395266532898,-8.331298828125,4.1656494140625,1.1749267578125
12.5299999,-9.849745750427246,0.9265560507774353,-0.014365210197865963,-16.4337158203125,5.218505859375,0.244140625
12.549999900000001,-9.871294021606445,0.9911994934082031,-0.07182604819536209,-25.57373046875,8.026123046875,0.2288818359375
12.569999900000001,-9.732429504394531,1.3527239561080933,0.3256114423274994,-24.8870849609375,4.4097900390625,-0.885009765625
12.5899999,-9.622296333312988,1.625662922859192,0.6607996821403503,-53.3599853515625,16.2506103515625,-8.453369140625
12.6099999,-9.488221168518066,1.8124107122421265,0.6775590777397156,-94.7265625,46.5850830078125,-14.4195556640625
12.629999900000001,-9.873687744140625,1.4939818382263184,-0.21547815203666687,-78.30810546875,33.3404541015625,-4.913330078125
12.649999900000001,-10.08198356628418,0.8212111592292786,-1.9919757843017578,-5.218505859375,-14.007568359375,-0.091552734375
12.6699999,-10.390835762023926,0.033518824726343155,-3.3877954483032227,76.812744140625,-56.1370849609375,-6.3323974609375
12.6899999,-10.369287490844727,-0.7422025203704834,-4.005499362945557,99.1973876953125,-58.685302734375,-9.8724365234375
12.709999900000001,-10.02691650390625,-0.5051765441894531,-2.3582887649536133,67.7337646484375,-30.3955078125,-2.3040771484375
12.729999900000001,-9.818621635437012,-0.08619125932455063,-0.4908113479614258,2.960205078125,-1.5106201171875,14.801025390625
12.7499999,-9.38048267364502,1.194706678390503,2.1547815799713135,-39.825439453125,8.6822509765625,9.613037109375
12.7699999,-9.332598686218262,1.9177556037902832,2.9017724990844727,-83.6029052734375,39.031982421875,-12.02392578125
12.789999900000002,-9.555258750915527,2.3295583724975586,2.142810583114624,-58.53271484375,43.914794921875,-13.1988525390625
12.809999900000001,-9.950302124023438,1.5442601442337036,-0.12449848651885986,31.0211181640625,-10.9405517578125,-4.5318603515625
12.8299999,-10.189722061157227,0.8427590131759644,-1.9560627937316895,115.8905029296875,-59.1278076171875,-12.2833251953125
12.8499999,-10.33098030090332,-0.0933738648891449,-2.959233283996582,106.1553955078125,-49.31640625,-13.275146484375
12.8699999,-9.95748519897461,-0.24181437492370605,-1.7741034030914307,36.773681640625,-6.988525390625,-7.354736328125
12.889999900000001,-9.852140426635742,-0.15322890877723694,-0.43335050344467163,-18.890380859375,10.1776123046875,7.080078125
12.9099999,-9.703699111938477,0.45010992884635925,1.1444283723831177,-18.157958984375,-0.762939453125,16.693115234375
12.9299999,-9.737217903137207,0.8140285611152649,1.7573440074920654,-20.416259765625,-0.5035400390625,2.227783203125
12.9499999,-9.75397777557373,1.194706678390503,1.6328455209732056,-34.4085693359375,24.7802734375,-11.6424560546875
12.969999900000001,-9.873687744140625,1.0797849893569946,0.7852981686592102,-30.1666259765625,24.84130859375,-2.62451171875
12.9899999,-10.144232749938965,0.31124621629714966,-1.0055646896362305,19.622802734375,-12.939453125,5.3253173828125
13.0099999,-10.24239444732666,0.05985504388809204,-2.073378562927246,102.020263671875,-54.6112060546875,7.5225830078125
13.0299999,-9.703699111938477,0.2753331959247589,-1.7381904125213623,91.00341796875,-49.5452880859375,1.312255859375
13.049999900000001,-9.160215377807617,0.9074024558067322,-0.14844051003456116,-21.66748046875,19.1192626953125,-6.8511962890625
13.069999900000001,-8.884882926940918,1.6065093278884888,1.403002142906189,-80.38330078125,60.1348876953125,-18.4173583984375
13.0899999,-9.296685218811035,1.4484920501708984,1.7094600200653076,-39.3524169921875,28.9154052734375,0.518798828125
13.1099999,-10.180145263671875,0.7110779285430908,0.27054479718208313,30.517578125,-14.434814453125,11.077880859375
13.129999900000001,-10.876858711242676,-0.014365210197865963,-1.2832920551300049,85.7696533203125,-43.15185546875,5.9814453125
13.149999900000001,-10.970232009887695,-0.05267243832349777,-1.5921441316604614,92.6055908203125,-42.999267578125,-1.15966796875
13.1699999,-10.697293281555176,0.48602294921875,-0.9361328482627869,31.5704345703125,-0.6256103515625,-8.6822509765625
13.1899999,-10.160991668701172,1.1300631761550903,0.47405192255973816,-19.989013671875,24.10888671875,-9.521484375
13.209999900000001,-9.813833236694336,1.4245500564575195,1.3527239561080933,-39.337158203125,18.1121826171875,-4.82177734375
13.229999900000001,-9.6989107131958,1.0271124839782715,1.0558429956436157,-35.46142578125,11.9781494140625,4.8828125
13.2499999,-9.883264541625977,0.3974374830722809,0.002394201699644327,10.162353515625,-4.0283203125,12.20703125
13.2699999,-9.998186111450195,0.08379705995321274,-0.8259995579719543,63.2171630859375,-33.6456298828125,9.5672607421875
13.289999900000002,-10.108319282531738,0.27054479718208313,-0.8834604024887085,50.3082275390625,-27.0843505859375,-0.396728515625
13.309999900000001,-9.988609313964844,0.7469909191131592,-0.2753331959247589,-3.2806396484375,12.1307373046875,-11.41357421875
13.3299999,-9.708487510681152,1.070208191871643,0.7876923680305481,-26.702880859375,21.30126953125,-6.4849853515625
13.3499999,-9.77791976928711,0.8331822156906128,0.8259995579719543,-14.3280029296875,10.467529296875,2.3651123046875
13.3699999,-9.95748519897461,0.26096799969673157,0.24899697303771973,36.6973876953125,-10.406494140625,11.6729736328125
13.389999900000001,-10.062829971313477,0.07422025501728058,-0.14844051003456116,75.25634765625,-30.6854248046875,12.1612548828125
13.4099999,-10.108319282531738,0.2059013396501541,-0.10295066982507706,47.8363037109375,-6.4697265625,0.54931640625
13.4299999,-9.964667320251465,0.5793967843055725,0.19871874153614044,11.2152099609375,26.885986328125,-14.2822265625
13.4499999,-9.926360130310059,0.8403648138046265,0.3998316824436188,27.9388427734375,14.7247314453125,-6.866455078125
13.469999900000001,-9.852140426635742,0.8068459630012512,0.31364041566848755,62.5457763671875,-14.312744140625,3.5247802734375
13.4899999,-9.871294021606445,0.6823474764823914,0.14604631066322327,51.8341064453125,-12.63427734375,5.401611328125
13.5099999,-9.840168952941895,0.6248866319656372,0.22266076505184174,13.00048828125,10.894775390625,1.5716552734375
13.5299999,-9.856928825378418,0.6105214357376099,0.2537853717803955,-0.6866455078125,20.5230712890625,1.2664794921875
13.549999900000001,-9.976638793945312,0.5482721924781799,0.0454898327589035,27.2064208984375,5.2490234375,4.2572021484375
13.569999900000001,-10.096348762512207,0.5219359993934631,-0.2561795711517334,52.703857421875,-10.31494140625,5.584716796875
13.5899999,-10.062829971313477,0.6129156351089478,-0.42616790533065796,47.149658203125,-5.950927734375,2.349853515625
13.6099999,-9.938331604003906,0.9002198576927185,-0.26096799969673157,32.71484375,3.1280517578125,-2.3193359375
13.629999900000001,-9.885659217834473,1.1276689767837524,-0.15322890877723694,30.2886962890625,3.204345703125,-8.1634521484375
13.649999900000001,-9.8784761428833,1.1324573755264282,-0.21787235140800476,42.1295166015625,-2.9754638671875,-10.650634765625
13.6699999,-9.945513725280762,0.9169792532920837,-0.26575639843940735,53.5430908203125,-9.3536376953125,-6.5765380859375
13.6899999,-9.99339771270752,0.6368576288223267,-0.17477671802043915,48.1719970703125,-6.3018798828125,-1.40380859375
13.709999900000001,-9.974244117736816,0.49799394607543945,0.05506663769483566,30.57861328125,2.5482177734375,1.4190673828125
13.729999900000001,-9.93593692779541,0.6153098344802856,0.31603461503982544,19.989013671875,5.5999755859375,0.091552734375
13.7499999,-9.945513725280762,0.7948749661445618,0.2537853717803955,16.9830322265625,5.4168701171875,-4.8370361328125
13.7699999,-10.034099578857422,0.7924807667732239,-0.11013327538967133,22.64404296875,2.349853515625,-6.988525390625
13.789999900000002,-10.144232749938965,0.7469909191131592,-0.5434837937355042,38.8336181640625,-13.61083984375,-2.62451171875
13.809999900000001,-10.086771965026855,0.6823474764823914,-0.5363011956214905,41.1834716796875,-18.646240234375,0.9002685546875
13.8299999,-10.053253173828125,0.7038952708244324,-0.26096799969673157,14.6942138671875,-2.227783203125,-2.838134765625
13.8499999,-9.761159896850586,0.7924807667732239,0.40940847992897034,-13.153076171875,9.8114013671875,-5.1727294921875
13.8699999,-9.75397777557373,0.7086837291717529,0.6512228846549988,-27.83203125,17.0440673828125,0.2899169921875
13.889999900000001,-9.96945571899414,0.4189853072166443,0.2059013396501541,-3.021240234375,10.31494140625,8.087158203125
13.9099999,-10.223240852355957,0.24899697303771973,-0.3280056416988373,42.8619384765625,-16.5863037109375,7.0343017578125
13.9299999,-10.266336441040039,0.3447650372982025,-0.6488286852836609,50.0640869140625,-21.026611328125,0.0457763671875
13.9499999,-10.11550235748291,0.6991068720817566,-0.1843535304069519,17.8680419921875,2.3651123046875,-12.5579833984375
13.969999900000001,-9.825803756713867,0.9696516990661621,0.272938996553421,-16.387939453125,21.30126953125,-9.2315673828125
13.9899999,-9.835380554199219,0.8475474119186401,0.2561795711517334,-2.2430419921875,17.9443359375,-3.4332275390625
14.0099999,-10.041281700134277,0.507570743560791,-0.30885201692581177,52.886962890625,-13.4429931640625,5.0506591796875
14.0299999,-10.168174743652344,0.31842881441116333,-0.7182605266571045,77.484130859375,-31.73828125,4.0740966796875
14.049999900000001,-10.007762908935547,0.3064578175544739,-0.4118026793003082,39.764404296875,-11.505126953125,-5.67626953125
14.069999900000001,-9.746794700622559,0.5434837937355042,0.304063618183136,-12.26806640625,18.8751220703125,-6.9122314453125
14.0899999,-9.72285270690918,0.569819986820221,0.6847416758537292,-12.26806640625,25.0701904296875,3.570556640625
14.1099999,-9.84495735168457,0.5578489899635315,0.3711012601852417,30.731201171875,-2.2735595703125,7.904052734375
14.129999900000001,-10.165780067443848,0.5410895943641663,-0.2298433631658554,58.8836669921875,-21.1334228515625,4.94384765625
14.149999900000001,-10.196905136108398,0.6009446382522583,-0.569819986820221,45.6085205078125,-11.29150390625,-10.5438232421875
14.1699999,-10.072406768798828,0.7805097699165344,-0.23942017555236816,21.240234375,3.4027099609375,-9.5672607421875
14.1899999,-9.931148529052734,0.6919242739677429,0.043095629662275314,4.2877197265625,11.3677978515625,-1.6937255859375
14.209999900000001,-9.983820915222168,0.5051765441894531,0.004788403399288654,16.0369873046875,6.683349609375,5.7373046875
14.229999900000001,-9.916783332824707,0.524330198764801,-0.08379705995321274,39.9932861328125,-13.0615234375,7.3699951171875
14.2499999,-9.947908401489258,0.5793967843055725,-0.16519992053508759,29.1595458984375,-10.4217529296875,-1.708984375
14.2699999,-9.84495735168457,0.7924807667732239,-0.040701430290937424,6.500244140625,6.0272216796875,-9.46044921875
14.289999900000002,-9.880870819091797,0.7661445140838623,0.10534487664699554,6.5460205078125,9.918212890625,-4.6844482421875
14.309999900000001,-9.959878921508789,0.6440402865409851,0.0454898327589035,22.5982666015625,-2.532958984375,3.1585693359375
14.3299999,-10.110713958740234,0.49799394607543945,-0.09576806426048279,29.3121337890625,-9.1552734375,4.7607421875
14.3499999,-10.074800491333008,0.49559974670410156,-0.040701430290937424,18.7225341796875,-4.2266845703125,-0.7476806640625
14.3699999,-10.0580415725708,0.646434485912323,0.14365209639072418,-0.9307861328125,8.3160400390625,-5.1422119140625
14.389999900000001,-10.122684478759766,0.6440402865409851,0.1867477297782898,-4.6844482421875,13.6871337890625,-4.119873046875
14.4099999,-10.307038307189941,0.5051765441894531,-0.09576806426048279,11.3525390625,4.1961669921875,0.946044921875
14.4299999,-10.342951774597168,0.38067805767059326,-0.47165772318840027,28.5186767578125,-7.5531005859375,5.3863525390625
14.4499999,-10.141838073730469,0.4644751250743866,-0.4165911078453064,29.632568359375,-16.0369873046875,1.678466796875
14.469999900000001,-9.768342971801758,0.7350199222564697,-0.0694318488240242,-2.2735595703125,1.4495849609375,-2.74658203125
14.4899999,-9.57441234588623,1.0007762908935547,0.40940847992897034,-28.564453125,21.9268798828125,-3.7994384765625
14.5099999,-10.005369186401367,0.9840168952941895,0.3998316824436188,-18.890380859375,16.937255859375,-4.1046142578125
14.5299999,-10.81700325012207,0.5937620401382446,-0.3208230137825012,19.3328857421875,-5.67626953125,-7.26318359375
14.549999900000001,-12.090718269348145,0.19632454216480255,-1.4532804489135742,65.643310546875,-26.9012451171875,-3.41796875
14.569999900000001,-12.878411293029785,-0.0071826050989329815,-2.3535003662109375,96.435546875,-46.1883544921875,-12.2528076171875
14.5899999,-13.261483192443848,0.2537853717803955,-2.6168625354766846,99.42626953125,-46.44775390625,-21.8505859375
14.6099999,-12.844892501831055,0.7972691655158997,-2.1068975925445557,79.376220703125,-26.1383056640625,-26.1688232421875
14.629999900000001,-11.81059741973877,1.359906554222107,-1.0630255937576294,47.637939453125,-9.246826171875,-36.4227294921875
14.649999900000001,-10.457873344421387,1.6903064250946045,0.090979665517807,18.9056396484375,6.439208984375,-22.8424072265625
14.6699999,-9.155426979064941,1.6950948238372803,0.9911994934082031,1.03759765625,25.7110595703125,-11.1846923828125
14.6899999,-8.248024940490723,1.434126853942871,1.3886369466781616,-4.45556640625,34.3780517578125,-11.5966796875
14.709999900000001,-7.797914981842041,0.993593692779541,1.400607943534851,-2.2735595703125,17.0135498046875,-11.199951171875
14.729999900000001,-7.702147006988525,0.545877993106842,1.1180921792984009,5.0048828125,-0.2593994140625,-6.6986083984375
14.7499999,-7.872135162353516,0.023942016065120697,0.608127236366272,15.6707763671875,-2.99072265625,-2.899169921875
14.7699999,-8.092401504516602,-0.27054479718208313,0.2777273952960968,36.92626953125,-11.4288330078125,4.5166015625
14.789999900000002,-8.434772491455078,-0.43095630407333374,0.07422025501728058,46.3104248046875,-20.5230712890625,8.056640625
14.809999900000001,-8.789113998413086,-0.3280056416988373,0.19153612852096558,37.0941162109375,-20.20263671875,1.6021728515625
14.8299999,-9.069235801696777,-0.0694318488240242,0.5578489899635315,23.01025390625,-11.23046875,-5.9661865234375
14.8499999,-9.253589630126953,0.22266076505184174,0.9696516990661621,7.9345703125,-0.4425048828125,-7.1563720703125
14.8699999,-9.330204010009766,0.40701428055763245,1.2090718746185303,-5.6610107421875,4.1961669921875,-2.13623046875
14.889999900000001,-9.342175483703613,0.4836287498474121,1.2186486721038818,-13.0615234375,3.0364990234375,2.8076171875
14.9099999,-9.425971984863281,0.3208230137825012,0.5434837937355042,-9.979248046875,20.904541015625,-5.8135986328125
14.9299999,-9.545681953430176,0.17717093229293823,0.08858546614646912,-4.1351318359375,19.1650390625,-5.584716796875
14.9499999,-9.710882186889648,0.021547814831137657,-0.3208230137825012,0.152587890625,10.6964111328125,-1.4190673828125
14.969999900000001,-9.871294021606445,-0.1173158809542656,-0.586579442024231,3.3416748046875,3.997802734375,3.173828125
14.9899999,-9.995792388916016,-0.22744916379451752,-0.667982280254364,7.4005126953125,3.8909912109375,5.096435546875
15.0099999,-10.077195167541504,-0.3064578175544739,-0.6105214357376099,11.4898681640625,6.439208984375,3.8299560546875
15.0299999,-10.14902114868164,-0.3423708379268646,-0.45250412821769714,13.85498046875,3.2501220703125,2.3040771484375
15.049999900000001,-10.213664054870605,-0.3423708379268646,-0.2513911724090576,14.6942138671875,-1.251220703125,-2.2430419921875
15.069999900000001,-10.223240852355957,-0.35434186458587646,-0.05027823522686958,14.9993896484375,0.1373291015625,-10.43701171875
15.0899999,-10.189722061157227,-0.4118026793003082,0.11252748221158981,14.251708984375,2.74658203125,-14.16015625
15.1099999,-10.101137161254883,-0.5171475410461426,0.22505496442317963,12.786865234375,-2.349853515625,-10.589599609375
15.129999900000001,-9.986215591430664,-0.629675030708313,0.31124621629714966,10.589599609375,-11.16943359375,-6.7291259765625
15.149999900000001,-9.890447616577148,-0.7182605266571045,0.3758896589279175,7.4005126953125,-9.6282958984375,-7.171630859375
15.1699999,-9.837775230407715,-0.7445967197418213,0.4405331015586853,3.6163330078125,-4.5318603515625,-7.7056884765625
15.1899999,-9.859322547912598,-0.6871358752250671,0.5051765441894531,-1.15966796875,-5.4779052734375,-5.889892578125
15.209999900000001,-9.950302124023438,-0.586579442024231,0.5530605912208557,-6.3629150390625,-7.843017578125,-6.3018798828125
15.229999900000001,-10.101137161254883,-0.45010992884635925,0.5841852426528931,-10.833740234375,-5.6610107421875,-7.9193115234375
15.2499999,-10.237606048583984,-0.30885201692581177,0.608127236366272,-13.9312744140625,-0.946044921875,-9.124755859375
15.2699999,-10.321403503417969,-0.2082955539226532,0.6248866319656372,-15.2740478515625,4.5623779296875,-10.498046875
15.289999900000002,-10.350133895874023,-0.17477671802043915,0.6105214357376099,-14.1448974609375,9.063720703125,-10.528564453125
15.309999900000001,-10.342951774597168,-0.22744916379451752,0.5913678407669067,-10.3759765625,5.79833984375,-8.60595703125
15.3299999,-10.309432983398438,-0.3711012601852417,0.6224924325942993,-6.256103515625,-3.3111572265625,-6.5765380859375
15.3499999,-10.285490036010742,-0.5530605912208557,0.727837324142456,-2.960205078125,-9.1400146484375,-4.302978515625
15.3699999,-10.280701637268066,-0.7326257228851318,0.9433154463768005,-0.6103515625,-13.0157470703125,-3.96728515625
15.389999900000001,-10.287884712219238,-0.8451532125473022,1.213860273361206,-0.5645751953125,-19.8516845703125,-6.65283203125
15.4099999,-10.280701637268066,-0.8858546018600464,1.4700398445129395,-3.173828125,-28.9764404296875,-8.8653564453125
15.4299999,-10.220847129821777,-0.8619126081466675,1.644816517829895,-7.659912109375,-35.15625,-7.354736328125
15.4499999,-10.086771965026855,-0.7996633648872375,1.7262194156646729,-12.20703125,-34.0728759765625,-5.8135986328125
15.469999900000001,-9.904812812805176,-0.7110779285430908,1.6950948238372803,-16.265869140625,-28.50341796875,-6.2103271484375
15.4899999,-9.730035781860352,-0.608127236366272,1.5538369417190552,-19.8516845703125,-24.8260498046875,-5.889892578125
15.5099999,-9.605537414550781,-0.5147533416748047,1.3120225667953491,-22.064208984375,-22.5677490234375,-4.94384765625
15.5299999,-9.519346237182617,-0.45010992884635925,0.9888052940368652,-21.6217041015625,-18.9056396484375,-5.31005859375
15.549999900000001,-9.44752025604248,-0.42616790533065796,0.6560112833976746,-18.6920166015625,-11.810302734375,-6.0272216796875
15.569999900000001,-9.402029991149902,-0.44532153010368347,0.33518823981285095,-15.4266357421875,-2.777099609375,-2.9144287109375
15.5899999,-9.399636268615723,-0.4836287498474121,0.05746084079146385,-12.1002197265625,0.3814697265625,1.953125
15.6099999,-9.44991397857666,-0.5291185975074768,-0.15801730751991272,-8.1939697265625,-2.166748046875,4.241943359375
15.629999900000001,-9.567230224609375,-0.5722141861915588,-0.2992752194404602,-4.730224609375,-1.6632080078125,3.60107421875
15.649999900000001,-9.75397777557373,-0.5889736413955688,-0.3687070608139038,-2.593994140625,-0.8544921875,3.5400390625
15.6699999,-9.93354320526123,-0.5985504388809204,-0.33758243918418884,-1.0528564453125,-4.57763671875,2.8533935546875
15.6899999,-10.06043529510498,-0.6105214357376099,-0.23942017555236816,0.91552734375,-4.5166015625,1.0528564453125
15.709999900000001,-10.11789608001709,-0.6200982332229614,-0.08858546614646912,2.197265625,1.0528564453125,2.5482177734375
15.729999900000001,-10.139444351196289,-0.6177040338516235,0.08379705995321274,1.0528564453125,6.2255859375,6.9122314453125
15.7499999,-10.125079154968262,-0.5937620401382446,0.2561795711517334,-1.9989013671875,5.31005859375,6.744384765625
15.7699999,-10.077195167541504,-0.5530605912208557,0.4189853072166443,-5.06591796875,5.7373046875,1.9683837890625
15.789999900000002,-10.002974510192871,-0.5147533416748047,0.5482721924781799,-7.0343017578125,14.9383544921875,0.9918212890625
15.809999900000001,-9.885659217834473,-0.49320554733276367,0.6368576288223267,-8.4075927734375,22.8424072265625,5.401611328125
15.8299999,-9.75637149810791,-0.49320554733276367,0.667982280254364,-8.7890625,22.5830078125,10.5743408203125
15.8499999,-9.667786598205566,-0.47405192255973816,0.6584054827690125,-7.8277587890625,19.6380615234375,14.2822265625
15.869999900000002,-10.18493366241455,-0.44532153010368347,0.5937620401382446,-4.302978515625,21.1029052734375,12.7716064453125
15.889999900000001,-10.335768699645996,-0.4620809257030487,0.5961562395095825,-0.1220703125,-5.5389404296875,-1.0986328125
15.9099999,-10.852916717529297,-0.45489832758903503,0.5793967843055725,2.44140625,-2.62451171875,12.8173828125
15.9299999,-10.855310440063477,-0.44771572947502136,0.5937620401382446,7.5531005859375,-0.6103515625,16.1590576171875
15.9499999,-10.630255699157715,-0.4189853072166443,0.6009446382522583,9.9945068359375,-3.875732421875,11.016845703125
15.969999900000001,-10.314221382141113,-0.35434186458587646,0.5937620401382446,9.0789794921875,-2.7313232421875,10.9710693359375
15.9899999,-10.055646896362305,-0.31842881441116333,0.6248866319656372,5.615234375,-2.5634765625,11.77978515625
16.0099999,-9.888052940368652,-0.3064578175544739,0.6967126727104187,0.8697509765625,-1.556396484375,14.16015625
16.0299999,-9.818621635437012,-0.26336219906806946,0.8140285611152649,-4.180908203125,1.373291015625,17.303466796875
16.0499999,-9.80904483795166,-0.2106897532939911,0.9097966551780701,-7.1563720703125,3.4942626953125,16.632080078125
16.0699999,-9.830592155456543,-0.1388636976480484,0.9074024558067322,-6.77490234375,4.0130615234375,15.0299072265625
16.089999900000002,-9.876082420349121,-0.07900865375995636,0.8475474119186401,-3.387451171875,2.86865234375,15.8233642578125
16.109999900000002,-9.921571731567383,0.002394201699644327,0.7493851184844971,-2.1209716796875,1.739501953125,17.02880859375
16.1299999,-9.962273597717285,0.12689268589019775,0.6440402865409851,-3.7994384765625,2.166748046875,15.8843994140625
16.1499999,-9.998186111450195,0.2992752194404602,0.524330198764801,-1.678466796875,1.9989013671875,12.8173828125
16.1699999,-10.029311180114746,0.4836287498474121,0.4357447028160095,3.0059814453125,-0.9613037109375,10.1165771484375
16.1899999,-10.031704902648926,0.6703764796257019,0.4189853072166443,3.3721923828125,-2.86865234375,8.8043212890625
16.2099999,-10.010157585144043,0.7805097699165344,0.5003881454467773,-0.732421875,-1.15966796875,6.53076171875
16.2299999,-9.967061996459961,0.790086567401886,0.6536170840263367,-4.241943359375,2.1820068359375,3.631591796875
16.249999900000002,-9.931148529052734,0.667982280254364,0.8236053586006165,-5.43212890625,3.4027099609375,4.547119140625
16.269999900000002,-9.897629737854004,0.48602294921875,0.9552865028381348,-6.4239501953125,3.570556640625,7.9803466796875
16.2899999,-9.888052940368652,0.2968810200691223,0.9911994934082031,-7.6446533203125,5.828857421875,9.5672607421875
16.3099999,-9.895236015319824,0.17477671802043915,0.9457096457481384,-5.523681640625,8.0718994140625,8.819580078125
16.3299999,-9.921571731567383,0.1604115068912506,0.8619126081466675,-1.373291015625,6.5765380859375,8.9263916015625
16.3499999,-9.921571731567383,0.27054479718208313,0.7757213711738586,-1.678466796875,5.0811767578125,10.25390625
16.3699999,-9.952696800231934,0.45489832758903503,0.6919242739677429,-6.2408447265625,6.805419921875,8.4991455078125
16.3899999,-9.962273597717285,0.6584054827690125,0.6105214357376099,-8.8348388671875,8.270263671875,5.3253173828125
16.4099999,-9.952696800231934,0.8355764150619507,0.5793967843055725,-10.4522705078125,5.2490234375,4.69970703125
16.429999900000002,-9.96945571899414,0.8954314589500427,0.5123591423034668,-11.3677978515625,3.7994384765625,3.814697265625
16.4499999,-9.950302124023438,0.8786720037460327,0.45010992884635925,-9.8419189453125,5.645751953125,1.4190673828125
16.4699999,-9.967061996459961,0.768538773059845,0.33758243918418884,-4.3487548828125,5.79833984375,-0.030517578125
16.4899999,-9.983820915222168,0.6607996821403503,0.19153612852096558,5.218505859375,1.6326904296875,0.518798828125
16.5099999,-10.007762908935547,0.5602431893348694,0.07422025501728058,12.4359130859375,-1.1138916015625,1.739501953125
16.5299999,-10.007762908935547,0.5003881454467773,0.0454898327589035,11.3983154296875,1.2054443359375,3.47900390625
16.5499999,-9.967061996459961,0.4908113479614258,0.09816227108240128,4.852294921875,1.46484375,1.6326904296875
16.5699999,-9.986215591430664,0.5171475410461426,0.14365209639072418,5.7373046875,-0.5645751953125,2.5177001953125
16.589999900000002,-10.02452278137207,0.5674257874488831,0.2322375625371933,12.5579833984375,-6.9580078125,4.913330078125
16.609999900000002,-10.062829971313477,0.6248866319656372,0.3208230137825012,9.8876953125,-11.2152099609375,3.84521484375
16.6299999,-9.99100399017334,0.7086837291717529,0.49799394607543945,0.823974609375,-7.9803466796875,-0.3814697265625
16.6499999,-9.979032516479492,0.751779317855835,0.6991068720817566,-4.45556640625,1.8768310546875,-0.518798828125
16.6699999,-9.782708168029785,0.7996633648872375,0.8858546018600464,-4.5318603515625,3.692626953125,0.0762939453125
16.6899999,-9.832986831665039,0.7422025203704834,0.993593692779541,-7.7972412109375,2.7923583984375,3.021240234375
16.7099999,-9.780313491821289,0.7350199222564697,1.0534487962722778,-10.772705078125,6.378173828125,5.79833984375
16.7299999,-9.830592155456543,0.768538773059845,1.0438719987869263,-13.519287109375,10.1318359375,5.18798828125
16.749999900000002,-9.821015357971191,0.8331822156906128,1.048660397529602,-13.5345458984375,10.6658935546875,2.0904541015625
16.769999900000002,-9.928754806518555,0.9720458984375,1.0223240852355957,-17.608642578125,4.9591064453125,2.7618408203125
16.7899999,-9.873687744140625,0.9576807022094727,0.9026140570640564,-24.9176025390625,9.735107421875,4.7760009765625
16.8099999,-10.029311180114746,0.8643068075180054,0.7182605266571045,-18.6920166015625,17.791748046875,-0.9918212890625
16.8299999,-9.967061996459961,0.6967126727104187,0.38307225704193115,-3.23486328125,11.6729736328125,-4.82177734375
16.8499999,-9.974244117736816,0.7134721279144287,0.1843535304069519,8.331298828125,10.8642578125,-3.35693359375
16.8699999,-9.923966407775879,0.9265560507774353,0.22026655077934265,-4.1656494140625,12.969970703125,-2.410888671875
16.8899999,-9.871294021606445,1.170764684677124,0.24899697303771973,-36.4837646484375,20.4925537109375,-4.4708251953125
16.9099999,-9.950302124023438,1.1803414821624756,0.090979665517807,-37.689208984375,20.6756591796875,-4.1351318359375
16.929999900000002,-10.065223693847656,0.8331822156906128,-0.38067805767059326,0.4730224609375,1.556396484375,-8.6212158203125
16.9499999,-10.309432983398438,0.19393034279346466,-1.1252747774124146,38.543701171875,-17.2882080078125,-3.5400390625
16.9699999,-10.321403503417969,-0.33758243918418884,-1.678335428237915,55.7403564453125,-24.2462158203125,0.8087158203125
16.9899999,-10.36449909210205,-0.5770025849342346,-1.8818424940109253,57.952880859375,-29.3426513671875,1.4495849609375
17.0099999,-10.113107681274414,-0.37828385829925537,-1.5083470344543457,55.419921875,-31.31103515625,2.3193359375
17.0299999,-9.976638793945312,0.3232172429561615,-0.4812345504760742,28.472900390625,-25.177001953125,7.2784423828125
17.0499999,-9.742006301879883,1.1037269830703735,0.6919242739677429,-24.3072509765625,-9.4757080078125,5.950927734375
17.0699999,-9.708487510681152,1.742978811264038,1.6903064250946045,-47.66845703125,4.9896240234375,-1.9989013671875
17.089999900000002,-9.703699111938477,1.8315643072128296,2.075772762298584,-23.8189697265625,3.173828125,-5.584716796875
17.109999900000002,-9.856928825378418,1.455674648284912,1.7477672100067139,11.3067626953125,-10.2996826171875,-5.2337646484375
17.1299999,-9.931148529052734,0.8571242094039917,1.1492167711257935,29.78515625,-14.6026611328125,-3.4942626953125
17.1499999,-9.99100399017334,0.3687070608139038,0.5913678407669067,33.2794189453125,-9.1705322265625,-4.2266845703125
17.1699999,-9.976638793945312,0.19632454216480255,0.35673606395721436,31.73828125,-6.3323974609375,-6.34765625
17.1899999,-9.804255485534668,0.45010992884635925,0.7948749661445618,16.082763671875,-4.82177734375,-3.2806396484375
17.2099999,-9.68694019317627,0.9265560507774353,1.4652514457702637,-32.1197509765625,9.735107421875,2.3345947265625
17.2299999,-9.569623947143555,1.292868971824646,2.073378562927246,-76.873779296875,31.7535400390625,-0.8544921875
17.249999900000002,-9.636661529541016,1.3838485479354858,2.1811177730560303,-68.0084228515625,35.0189208984375,-3.2806396484375
17.269999900000002,-9.780313491821289,0.9911994934082031,1.3982137441635132,-22.9339599609375,18.3868408203125,-2.86865234375
17.2899999,-10.132261276245117,0.3280056416988373,0.16759411990642548,26.3671875,-2.655029296875,-1.9683837890625
17.3099999,-10.287884712219238,-0.3016694188117981,-1.0438719987869263,57.8460693359375,-13.3056640625,-0.579833984375
17.3299999,-10.369287490844727,-0.5339069962501526,-1.644816517829895,61.065673828125,-17.6544189453125,0.579833984375
17.3499999,-10.266336441040039,-0.3687070608139038,-1.53707754611969,40.313720703125,-17.3492431640625,3.7078857421875
17.3699999,-10.036493301391602,0.2513911724090576,-0.6153098344802856,8.4075927734375,-11.871337890625,5.4473876953125
17.3899999,-9.832986831665039,0.9169792532920837,0.5195417404174805,-34.5916748046875,-2.74658203125,8.3465576171875
17.409999900000003,-9.75637149810791,1.3239935636520386,1.3239935636520386,-55.2825927734375,14.3890380859375,3.692626953125
17.429999900000002,-9.727641105651855,1.460463047027588,1.7118542194366455,-25.93994140625,4.3487548828125,3.3721923828125
17.4499999,-9.892841339111328,1.1037269830703735,1.3694833517074585,0.823974609375,-6.5460205078125,3.7994384765625
17.4699999,-9.955090522766113,0.6799532771110535,0.7589619159698486,16.021728515625,-10.2386474609375,-0.3814697265625
17.4899999,-10.022128105163574,0.3280056416988373,0.2944868206977844,24.7955322265625,-10.589599609375,1.7852783203125
17.5099999,-9.947908401489258,0.23942017555236816,0.2753331959247589,16.8304443359375,-7.50732421875,4.6234130859375
17.5299999,-9.821015357971191,0.47884035110473633,0.7110779285430908,-14.5416259765625,1.5869140625,6.622314453125
17.5499999,-9.746794700622559,1.0127472877502441,1.4915876388549805,-54.4891357421875,15.533447265625,6.591796875
17.5699999,-9.5408935546875,1.5083470344543457,2.231395959854126,-81.9244384765625,25.7415771484375,3.0975341796875
17.589999900000002,-9.57201862335205,1.7477672100067139,2.38462495803833,-82.2906494140625,35.9954833984375,0.1983642578125
17.609999900000002,-9.521739959716797,1.8291701078414917,2.229001760482788,-60.1348876953125,31.79931640625,2.38037109375
17.6299999,-9.787496566772461,1.2473790645599365,1.2880805730819702,-54.0618896484375,30.8380126953125,2.197265625
17.6499999,-10.012551307678223,0.706289529800415,0.2753331959247589,-31.9061279296875,21.8353271484375,-1.129150390625
17.6699999,-10.273519515991211,-0.004788403399288654,-1.0319008827209473,11.0931396484375,3.5400390625,0.1373291015625
17.6899999,-10.527304649353027,-0.6344634294509888,-2.3127987384796143,55.5877685546875,-13.24462890625,-0.4730224609375
17.7099999,-10.532093048095703,-0.7158663272857666,-2.9664158821105957,98.7091064453125,-33.8287353515625,-0.091552734375
17.7299999,-10.47702693939209,-0.42856210470199585,-2.9712042808532715,104.00390625,-41.839599609375,1.9989013671875
17.749999900000002,-10.182539939880371,0.3734954595565796,-1.7908629179000854,68.603515625,-36.865234375,4.0435791015625
17.769999900000002,-9.864110946655273,1.2737152576446533,-0.13168109953403473,12.14599609375,-19.1192626953125,3.387451171875
17.7899999,-9.634267807006836,1.900996208190918,1.4867992401123047,-25.6500244140625,-1.373291015625,-1.953125
17.8099999,-9.53849983215332,2.0638017654418945,2.470816135406494,-19.4244384765625,0.48828125,-3.326416015625
17.8299999,-9.610325813293457,1.7693150043487549,2.6671407222747803,0.3204345703125,-3.4637451171875,-1.434326171875
17.8499999,-9.691728591918945,1.2210428714752197,2.2457611560821533,8.1024169921875,-1.953125,-2.655029296875
17.8699999,-9.80904483795166,0.7326257228851318,1.6855180263519287,7.2479248046875,3.662109375,-2.0294189453125
17.8899999,-9.806650161743164,0.5339069962501526,1.2234370708465576,5.3253173828125,4.9896240234375,0.1983642578125
17.909999900000003,-9.852140426635742,0.5386953949928284,0.9888052940368652,-4.2266845703125,9.21630859375,0.30517578125
17.929999900000002,-9.813833236694336,0.8068459630012512,1.0247182846069336,-21.8353271484375,13.9007568359375,-0.1983642578125
17.9499999,-9.840168952941895,0.9911994934082031,1.0414776802062988,-36.7584228515625,19.500732421875,0.8392333984375
17.9699999,-9.931148529052734,1.0558429956436157,0.8379706144332886,-30.1361083984375,17.1966552734375,-0.0152587890625
17.9899999,-10.036493301391602,0.8619126081466675,0.33279404044151306,-1.3885498046875,3.509521484375,-1.0223388671875
18.0099999,-10.201693534851074,0.6272808313369751,-0.2513911724090576,29.083251953125,-6.805419921875,-3.35693359375
18.0299999,-10.216058731079102,0.47884035110473633,-0.6871358752250671,37.2467041015625,-10.6964111328125,-5.8135986328125
18.0499999,-10.156203269958496,0.5410895943641663,-0.6105214357376099,27.099609375,-8.23974609375,-6.744384765625
18.0699999,-9.976638793945312,0.8427590131759644,0.0454898327589035,8.8653564453125,-3.7841796875,-6.4697265625
18.089999900000002,-9.828198432922363,1.139639973640442,0.9361328482627869,-21.17919921875,10.5743408203125,-6.1492919921875
18.109999900000002,-9.636661529541016,1.2832920551300049,1.845929503440857,-50.2166748046875,24.47509765625,-5.0506591796875
18.1299999,-9.591172218322754,1.1516109704971313,2.1787235736846924,-57.2509765625,32.28759765625,0.4425048828125
18.1499999,-9.667786598205566,0.730231523513794,1.8507179021835327,-36.3006591796875,27.313232421875,3.997802734375
18.1699999,-9.873687744140625,0.12210428714752197,0.6919242739677429,1.312255859375,12.5732421875,1.0833740234375
18.1899999,-10.091560363769531,-0.3064578175544739,-0.5003881454467773,41.3360595703125,-5.79833984375,2.0751953125
18.2099999,-10.254365921020508,-0.3926490843296051,-1.5298948287963867,53.3905029296875,-14.6484375,2.6702880859375
18.2299999,-10.299856185913086,-0.0933738648891449,-1.766920804977417,39.5660400390625,-17.1356201171875,0.732421875
18.249999900000002,-10.137049674987793,0.6057330369949341,-1.194706678390503,11.8255615234375,-13.4124755859375,-0.6561279296875
18.269999900000002,-10.031704902648926,1.2210428714752197,-0.1604115068912506,-24.5513916015625,0.0762939453125,-1.953125
18.2899999,-9.837775230407715,1.6065093278884888,0.8954314589500427,-44.0673828125,9.002685546875,-1.373291015625
18.3099999,-9.797073364257812,1.4197616577148438,1.3287819623947144,-31.7840576171875,14.5721435546875,0.2593994140625
18.3299999,-9.86889934539795,0.9744400978088379,1.213860273361206,6.3934326171875,3.692626953125,1.0833740234375
18.3499999,-9.983820915222168,0.3471592366695404,0.5363011956214905,36.9415283203125,-10.1165771484375,1.373291015625
18.3699999,-10.08198356628418,0.031124621629714966,-0.014365210197865963,50.5828857421875,-16.7083740234375,3.570556640625
18.3899999,-10.079588890075684,0.09576806426048279,-0.304063618183136,42.78564453125,-11.16943359375,0.9307861328125
18.409999900000003,-9.988609313964844,0.6320692300796509,0.1412578970193863,17.8070068359375,-6.3629150390625,-2.9296875
18.429999900000002,-9.751583099365234,1.3479355573654175,0.9720458984375,-26.275634765625,6.591796875,-3.1890869140625
18.4499999,-9.627084732055664,1.9033904075622559,1.9033904075622559,-67.3828125,28.167724609375,-6.40869140625
18.4699999,-9.512163162231445,1.9967641830444336,2.3247697353363037,-74.0966796875,37.3382568359375,-6.866455078125
18.4899999,-9.57441234588623,1.4437036514282227,1.9584569931030273,-51.2542724609375,36.9720458984375,-2.44140625
18.5099999,-9.86889934539795,0.5937620401382446,0.8619126081466675,-6.866455078125,18.9666748046875,3.3416748046875
18.5299999,-10.086771965026855,-0.2298433631658554,-0.5123591423034668,28.50341796875,2.0904541015625,3.5552978515625
18.5499999,-10.32858657836914,-0.5506663918495178,-1.479616641998291,43.2891845703125,-9.124755859375,4.0283203125
18.5699999,-10.347740173339844,-0.2825157940387726,-1.886630892753601,30.0445556640625,-10.1470947265625,-0.0457763671875
18.589999900000002,-10.189722061157227,0.4357447028160095,-1.4700398445129395,5.1422119140625,-7.415771484375,-3.6468505859375
18.609999900000002,-9.945513725280762,1.1683704853057861,-0.5315127968788147,-24.261474609375,1.40380859375,-5.218505859375
18.6299999,-9.749189376831055,1.599326729774475,0.5003881454467773,-50.537109375,11.8560791015625,-2.9296875
18.6499999,-9.619902610778809,1.5466543436050415,1.1180921792984009,-54.5196533203125,17.8985595703125,-0.885009765625
18.6699999,-9.600749015808105,1.0749965906143188,1.4077905416488647,-33.0963134765625,15.472412109375,1.46484375
18.6899999,-9.864110946655273,0.45250412821769714,0.871489405632019,-23.37646484375,15.3961181640625,6.2713623046875
18.7099999,-10.034099578857422,-0.24660277366638184,-0.028730420395731926,-7.50732421875,7.0648193359375,6.2713623046875
18.7299999,-10.38844108581543,-0.5291185975074768,-1.9345149993896484,77.3162841796875,-27.496337890625,4.730224609375
18.749999900000002,-10.38844108581543,-0.11971008777618408,-2.121262788772583,77.69775390625,-29.8004150390625,0.213623046875
18.769999900000002,-10.228029251098633,0.43335050344467163,-1.6184803247451782,53.375244140625,-25.360107421875,1.953125
18.7899999,-10.101137161254883,0.9050082564353943,-0.7637503147125244,34.088134765625,-18.5546875,4.69970703125
18.8099999,-9.976638793945312,1.2689268589019775,0.1843535304069519,35.552978515625,-23.712158203125,1.556396484375
18.8299999,-9.840168952941895,1.53707754611969,0.9241618514060974,27.923583984375,-18.12744140625,-2.5787353515625
18.8499999,-9.710882186889648,1.7166426181793213,1.5203180313110352,6.805419921875,-6.16455078125,-7.171630859375
18.8699999,-9.567230224609375,1.8818424940109253,2.185906171798706,-15.2587890625,6.16455078125,-5.7220458984375
18.8899999,-9.442731857299805,1.7764976024627686,2.5258827209472656,-42.266845703125,19.989013671875,-5.1116943359375
18.909999900000003,-9.576807022094727,1.3982137441635132,2.406172752380371,-51.8035888671875,30.487060546875,-2.3956298828125
18.929999900000002,-9.672574996948242,0.727837324142456,1.6041151285171509,-25.3753662109375,18.4783935546875,4.1961669921875
18.9499999,-10.010157585144043,0.09816227108240128,0.28730419278144836,15.380859375,1.495361328125,3.173828125
18.9699999,-10.220847129821777,-0.33279404044151306,-1.0414776802062988,43.15185546875,-12.3138427734375,-1.03759765625
18.9899999,-10.29746150970459,-0.2322375625371933,-1.6974890232086182,50.628662109375,-18.951416015625,-0.5035400390625
19.0099999,-10.187328338623047,0.304063618183136,-1.357512354850769,25.5279541015625,-15.2435302734375,-0.2593994140625
19.0299999,-9.964667320251465,0.9409212470054626,-0.47644615173339844,-18.798828125,1.312255859375,-4.82177734375
19.0499999,-9.80904483795166,1.3527239561080933,0.608127236366272,-37.9486083984375,11.7034912109375,-1.5869140625
19.0699999,-9.643844604492188,1.4652514457702637,1.2473790645599365,-31.524658203125,9.33837890625,0.4119873046875
19.089999900000002,-9.744400978088379,1.2497732639312744,1.3407529592514038,-15.7012939453125,4.9285888671875,-2.44140625
19.109999900000002,-9.765948295593262,0.9720458984375,1.091755986213684,-7.9803466796875,7.0037841796875,-5.645751953125
19.1299999,-9.892841339111328,0.8762778043746948,0.8882488012313843,-17.1661376953125,11.53564453125,-2.13623046875
19.1499999,-9.964667320251465,0.7374141216278076,0.6320692300796509,-42.4957275390625,19.59228515625,-0.885009765625
19.1699999,-9.928754806518555,0.6248866319656372,0.40462008118629456,-44.0521240234375,15.1824951171875,-1.9378662109375
19.1899999,-9.923966407775879,0.4596867263317108,0.1843535304069519,-18.8140869140625,10.8642578125,2.2125244140625
19.2099999,-10.043676376342773,0.28730419278144836,-0.2968810200691223,-7.0953369140625,5.67626953125,6.04248046875
19.2299999,-10.093954086303711,0.21308395266532898,-0.7637503147125244,-9.1552734375,-1.5869140625,2.7923583984375
19.249999900000002,-10.287884712219238,0.3016694188117981,-1.1204863786697388,7.4920654296875,-8.5601806640625,-5.340576171875
19.269999900000002,-10.290278434753418,0.33758243918418884,-1.314416766166687,26.91650390625,-13.3819580078125,-7.50732421875
19.2899999,-10.278307914733887,0.40462008118629456,-0.912190854549408,35.2630615234375,-15.8843994140625,-8.880615234375
19.3099999,-10.053253173828125,0.3256114423274994,-0.33039984107017517,26.9317626953125,-12.359619140625,0.213623046875
19.3299999,-10.08198356628418,0.16998831927776337,0.09816227108240128,17.608642578125,-1.2359619140625,7.2479248046875
19.3499999,-10.000580787658691,0.10773907601833344,0.26575639843940735,42.266845703125,-14.1448974609375,5.828857421875
19.3699999,-10.019734382629395,0.17238251864910126,-0.06224924325942993,63.934326171875,-26.885986328125,0.7171630859375
19.3899999,-10.012551307678223,0.6320692300796509,-0.07182604819536209,63.3544921875,-28.472900390625,-4.0130615234375
19.409999900000003,-9.794678688049316,1.338358759880066,0.6033388376235962,23.7884521484375,-17.4560546875,-3.448486328125
19.429999900000002,-9.548076629638672,2.006340980529785,1.8267759084701538,-52.3529052734375,12.664794921875,-7.415771484375
19.4499999,-9.41400146484375,2.185906171798706,2.7317841053009033,-100.2197265625,38.787841796875,-7.7056884765625
19.4699999,-9.473855972290039,1.7405846118927002,2.6360161304473877,-75.68359375,36.1328125,1.800537109375
19.4899999,-9.797073364257812,0.7422025203704834,1.3096283674240112,-5.1422119140625,9.796142578125,2.6397705078125
19.5099999,-10.15141487121582,-0.2561795711517334,-0.6607996821403503,58.837890625,-16.05224609375,0.732421875
19.5299999,-10.407594680786133,-0.646434485912323,-1.9033904075622559,83.709716796875,-29.449462890625,0.3509521484375
19.5499999,-10.290278434753418,-0.26575639843940735,-1.8171991109848022,56.70166015625,-24.1851806640625,1.7852783203125
19.5699999,-10.070012092590332,0.5386953949928284,-0.6200982332229614,-13.580322265625,-1.2664794921875,-1.9683837890625
19.589999900000002,-9.825803756713867,1.2952631711959839,0.8355764150619507,-62.4237060546875,20.7672119140625,-5.157470703125
19.609999900000002,-9.68933391571045,1.5131354331970215,1.625662922859192,-50.4913330078125,19.7601318359375,0.518798828125
19.6299999,-9.832986831665039,1.0630255937576294,1.2665326595306396,-4.119873046875,3.4942626953125,0.1220703125
19.6499999,-9.998186111450195,0.43095630407333374,0.26096799969673157,41.7022705078125,-13.916015625,-3.082275390625
19.6699999,-10.101137161254883,0.15083470940589905,-0.31603461503982544,56.8084716796875,-22.4456787109375,-0.885009765625
19.6899999,-10.022128105163574,0.24899697303771973,-0.17238251864910126,19.22607421875,-9.0484619140625,2.044677734375
19.7099999,-9.816226959228516,0.6727706789970398,0.6943184733390808,-39.1845703125,14.312744140625,-0.274658203125
19.7299999,-9.75397777557373,0.9552865028381348,1.3862427473068237,-62.1490478515625,25.726318359375,1.2359619140625
19.749999900000002,-9.749189376831055,0.9145850539207458,1.3431471586227417,-32.8369140625,16.3421630859375,6.591796875
19.769999900000002,-10.02691650390625,0.5913678407669067,0.4357447028160095,15.4266357421875,-3.082275390625,1.5106201171875
19.7899999,-10.216058731079102,0.33518823981285095,-0.6727706789970398,52.0477294921875,-19.805908203125,-2.8533935546875
19.8099999,-10.211270332336426,0.4692635238170624,-0.8547300100326538,51.971435546875,-26.2603759765625,-1.8768310546875
19.8299999,-10.072406768798828,0.7781155705451965,-0.3734954595565796,-0.8544921875,-3.448486328125,-4.8065185546875
19.8499999,-9.78989028930664,1.1013327836990356,0.8475474119186401,-47.8057861328125,15.106201171875,-6.3323974609375
19.8699999,-9.701305389404297,1.0821791887283325,1.6136919260025024,-51.727294921875,24.1241455078125,1.6021728515625
19.8899999,-9.732429504394531,0.727837324142456,1.5298948287963867,-19.7296142578125,14.923095703125,8.1939697265625
19.909999900000003,-9.947908401489258,0.24660277366638184,0.6177040338516235,19.2108154296875,-1.220703125,4.119873046875
19.929999900000002,-10.141838073730469,0.06224924325942993,-0.4908113479614258,45.4254150390625,-16.3116455078125,-1.0986328125
