# Time (seconds),Accel_X,Accel_Y,Accel_Z,Gyro_X,Gyro_Y,Gyro_Z
0.0099999,-2.7485435009002686,-8.49941635131836,-0.7805097699165344,-22.1710205078125,-7.01904296875,123.0926513671875
0.029999900000000003,-3.28963303565979,-8.446743965148926,-1.01753568649292,-14.22119140625,-16.7999267578125,125.3509521484375
0.0499999,-3.7852327823638916,-8.370129585266113,-1.1563993692398071,-4.45556640625,-12.2833251953125,116.058349609375
0.0699999,-4.230554580688477,-8.310274124145508,-1.2018892765045166,1.9073486328125,-4.0435791015625,110.16845703125
0.08999990000000001,-4.649539470672607,-8.190564155578613,-1.1492167711257935,3.47900390625,-10.5743408203125,116.5771484375
0.10999990000000001,-5.0685248374938965,-8.066065788269043,-1.0342950820922852,6.500244140625,-17.7154541015625,115.203857421875
0.1299999,-5.489904403686523,-7.881711959838867,-0.8882488012313843,11.29150390625,-9.8876953125,100.9368896484375
0.14999990000000002,-5.892130374908447,-7.69735860824585,-0.7038952708244324,12.6953125,-0.823974609375,92.7734375
0.1699999,-6.27280855178833,-7.453149795532227,-0.5099649429321289,9.09423828125,0.030517578125,94.970703125
0.1899999,-6.6391215324401855,-7.237671852111816,-0.33997663855552673,5.5389404296875,0.42724609375,87.677001953125
0.20999990000000002,-6.967126846313477,-7.005434036254883,-0.19393034279346466,3.662109375,6.011962890625,72.113037109375
0.2299999,-7.223306655883789,-6.785167694091797,-0.10773907601833344,0.518798828125,10.3607177734375,66.0552978515625
0.2499999,-7.386112213134766,-6.562506675720215,-0.08858546614646912,-5.18798828125,4.9896240234375,73.699951171875
0.2699999,-7.433996200561523,-6.347028732299805,-0.090979665517807,-9.6893310546875,-4.486083984375,80.322265625
0.28999990000000003,-7.46033239364624,-6.121973514556885,-0.15322890877723694,-11.9171142578125,-3.0670166015625,79.7271728515625
0.3099999,-7.510610580444336,-5.904101371765137,-0.23942017555236816,-13.885498046875,-2.3040771484375,82.5347900390625
0.3299999,-7.618350028991699,-5.657498836517334,-0.33518823981285095,-16.0064697265625,-9.979248046875,88.6688232421875
0.34999990000000003,-7.7883381843566895,-5.4444146156311035,-0.45010992884635925,-15.5181884765625,-12.5579833984375,86.1968994140625
0.3699999,-7.979874134063721,-5.236119270324707,-0.545877993106842,-13.5498046875,-10.2691650390625,79.8797607421875
0.3899999,-8.190564155578613,-5.082890033721924,-0.629675030708313,-13.427734375,-10.6201171875,82.1685791015625
0.40999990000000003,-8.427590370178223,-4.934449672698975,-0.6991068720817566,-13.6260986328125,-14.7552490234375,87.5396728515625
0.4299999,-8.743624687194824,-4.81473970413208,-0.7805097699165344,-8.4991455078125,-17.63916015625,79.3304443359375
0.4499999,-9.097966194152832,-4.675876140594482,-0.8379706144332886,-0.5645751953125,-20.5230712890625,63.4002685546875
0.4699999,-9.423578262329102,-4.55616569519043,-0.8643068075180054,3.875732421875,-26.275634765625,55.23681640625
0.4899999,-9.612719535827637,-4.417302131652832,-0.790086567401886,4.1656494140625,-35.2630615234375,55.694580078125
0.5099999,-9.600749015808105,-4.304774761199951,-0.6177040338516235,2.5177001953125,-34.5458984375,55.633544921875
0.5299999,-9.452308654785156,-4.175487995147705,-0.3902548849582672,-0.9002685546875,-23.8494873046875,56.732177734375
0.5499999,-9.30386734008789,-4.000710964202881,-0.14365209639072418,-4.7760009765625,-17.7459716796875,60.8673095703125
0.5699999,-9.255983352661133,-3.780444383621216,0.019153613597154617,-6.89697265625,-14.801025390625,57.159423828125
0.5899998999999999,-9.330204010009766,-3.579331636428833,0.10773907601833344,-6.805419921875,-11.5814208984375,43.5791015625
0.6099998999999999,-9.512163162231445,-3.4093432426452637,0.0933738648891449,-7.7056884765625,-9.6893310546875,33.1573486328125
0.6299999,-9.677363395690918,-3.31118106842041,0.033518824726343155,-8.97216796875,-9.2315673828125,29.96826171875
0.6499999,-9.746794700622559,-3.2824504375457764,-0.047884032130241394,-8.2550048828125,-7.4462890625,26.8402099609375
0.6699999,-9.682151794433594,-3.292027235031128,-0.13168109953403473,-6.4849853515625,-3.2958984375,22.64404296875
0.6899999,-9.50737476348877,-3.3016040325164795,-0.19632454216480255,-5.43212890625,-0.2899169921875,23.4222412109375
0.7099999,-9.289502143859863,-3.2776620388031006,-0.26336219906806946,-4.82177734375,0.0762939453125,28.9459228515625
0.7299998999999999,-9.033323287963867,-3.2345664501190186,-0.2992752194404602,-3.509521484375,-2.899169921875,34.942626953125
0.7499998999999999,-8.880094528198242,-3.1316158771514893,-0.33518823981285095,-2.3040771484375,-3.5400390625,41.7022705078125
0.7699999,-8.858546257019043,-3.004723072052002,-0.3471592366695404,-1.0528564453125,-7.2479248046875,48.431396484375
0.7899999,-9.040505409240723,-2.832340717315674,-0.3064578175544739,0.3662109375,-14.801025390625,50.140380859375
0.8099999,-9.404424667358398,-2.650381326675415,-0.24660277366638184,2.44140625,-15.5029296875,37.90283203125
0.8299999,-9.799467086791992,-2.5091233253479004,-0.13407529890537262,4.4403076171875,-11.16943359375,19.378662109375
0.8499998999999999,-10.11789608001709,-2.4444799423217773,-0.0071826050989329815,4.5623779296875,-5.7220458984375,10.25390625
0.8699998999999999,-10.285490036010742,-2.4588451385498047,0.10773907601833344,4.57763671875,-3.5247802734375,10.223388671875
0.8899999,-10.311826705932617,-2.5522189140319824,0.1843535304069519,5.7373046875,-4.9591064453125,10.009765625
0.9099999,-10.251971244812012,-2.652775526046753,0.22505496442317963,7.01904296875,-10.711669921875,11.077880859375
0.9299999,-10.144232749938965,-2.7054479122161865,0.2298433631658554,7.232666015625,-13.0462646484375,14.404296875
0.9499999,-9.988609313964844,-2.693476915359497,0.22266076505184174,7.843017578125,-8.60595703125,15.716552734375
0.9699998999999999,-9.825803756713867,-2.607285737991333,0.20350714027881622,9.368896484375,-4.5013427734375,13.4735107421875
0.9899998999999999,-9.703699111938477,-2.4875755310058594,0.19153612852096558,10.894775390625,-5.7830810546875,10.9710693359375
1.0099999,-9.653421401977539,-2.33913516998291,0.19153612852096558,11.3677978515625,-10.1318359375,10.6201171875
1.0299999,-9.617507934570312,-2.207453966140747,0.2346317619085312,10.772705078125,-12.939453125,9.0789794921875
1.0499999,-9.907206535339355,-2.123656988143921,0.31842881441116333,8.5296630859375,-8.3160400390625,5.92041015625
1.0699999,-9.892841339111328,-2.0853497982025146,0.43095630407333374,5.18798828125,-5.7525634765625,-9.0789794921875
1.0899999,-10.177751541137695,-2.0374655723571777,0.5554547905921936,1.89208984375,-6.805419921875,-6.4849853515625
1.1099999,-10.146626472473145,-2.0398597717285156,0.6344634294509888,0.5645751953125,-7.6446533203125,0.48828125
1.1299999,-10.122684478759766,-1.987187385559082,0.689530074596405,-0.67138671875,-6.3323974609375,2.5177001953125
1.1499999,-10.007762908935547,-1.9536685943603516,0.6799532771110535,-2.4261474609375,-5.9814453125,5.2642822265625
1.1699998999999999,-9.947908401489258,-1.8914192914962769,0.6488286852836609,-3.204345703125,-7.7056884765625,6.6070556640625
1.1899998999999999,-9.825803756713867,-1.7932571172714233,0.5650315880775452,-1.678466796875,-7.9193115234375,7.6904296875
1.2099999,-9.830592155456543,-1.7142484188079834,0.5626373887062073,-0.823974609375,-6.5460205078125,8.0413818359375
1.2299999,-9.849745750427246,-1.6376339197158813,0.6033388376235962,-0.885009765625,-5.035400390625,9.002685546875
1.2499999,-9.876082420349121,-1.5466543436050415,0.6967126727104187,-2.5634765625,-4.0740966796875,9.6588134765625
1.2699999,-9.861717224121094,-1.4676456451416016,0.7876923680305481,-6.89697265625,-3.7689208984375,9.124755859375
1.2899999,-9.782708168029785,-1.4101848602294922,0.9026140570640564,-12.6800537109375,-3.84521484375,5.9967041015625
1.3099999,-9.773131370544434,-1.3287819623947144,1.0055646896362305,-17.08984375,-0.1220703125,3.6163330078125
1.3299999,-9.749189376831055,-1.3192051649093628,1.048660397529602,-18.707275390625,2.6397705078125,7.3699951171875
1.3499999,-9.794678688049316,-1.2976573705673218,1.0438719987869263,-18.585205078125,4.7149658203125,11.1541748046875
1.3699999,-9.86650562286377,-1.335964560508728,0.9241618514060974,-17.39501953125,3.5858154296875,11.7340087890625
1.3899999,-9.895236015319824,-1.4221558570861816,0.7469909191131592,-14.4195556640625,1.312255859375,11.3372802734375
1.4099999,-9.921571731567383,-1.4844050407409668,0.5626373887062073,-10.9100341796875,-0.1220703125,12.7410888671875
1.4299998999999999,-9.909601211547852,-1.558625340461731,0.4381389021873474,-8.2244873046875,-1.739501953125,14.7857666015625
1.4499999,-9.751583099365234,-1.5945383310317993,0.395043283700943,-6.28662109375,-4.7454833984375,18.7835693359375
1.4699999,-9.84256362915039,-1.647210717201233,0.4692635238170624,-3.90625,-12.51220703125,30.731201171875
1.4899999,-9.739612579345703,-1.7094600200653076,0.5386953949928284,-2.593994140625,-3.3721923828125,19.805908203125
1.5099999,-9.90241813659668,-1.7597382068634033,0.6440402865409851,-1.3885498046875,-2.0751953125,23.74267578125
1.5299999,-9.955090522766113,-1.7717092037200928,0.6991068720817566,1.4190673828125,-3.5858154296875,31.6314697265625
1.5499999,-9.983820915222168,-1.6639702320098877,0.7422025203704834,5.43212890625,-3.448486328125,32.9742431640625
1.5699999,-9.955090522766113,-1.4293384552001953,0.7589619159698486,10.19287109375,-2.5482177734375,31.79931640625
1.5899999,-9.914389610290527,-1.048660397529602,0.8068459630012512,14.312744140625,-2.166748046875,30.57861328125
1.6099999,-9.880870819091797,-0.4644751250743866,0.9097966551780701,12.8021240234375,-0.30517578125,27.0843505859375
1.6299999,-9.840168952941895,0.1867477297782898,1.036689281463623,7.2021484375,2.5177001953125,20.6298828125
1.6499999,-9.821015357971191,0.7996633648872375,1.1827356815338135,2.0599365234375,6.500244140625,10.223388671875
1.6699999,-9.792284965515137,1.2282254695892334,1.3311761617660522,-2.2125244140625,9.4757080078125,2.777099609375
1.6899998999999999,-9.780313491821289,1.4317326545715332,1.460463047027588,-7.293701171875,14.16015625,-1.861572265625
1.7099999,-9.761159896850586,1.316810965538025,1.5203180313110352,-9.2926025390625,20.3094482421875,-8.6517333984375
1.7299999,-9.758766174316406,0.9983820915222168,1.5658079385757446,-8.0413818359375,24.810791015625,-13.7481689453125
1.7499999,-9.744400978088379,0.48602294921875,1.5131354331970215,-8.6822509765625,28.6865234375,-11.4288330078125
1.7699999,-9.770736694335938,-0.14365209639072418,1.3886369466781616,-11.444091796875,32.77587890625,-6.927490234375
1.7899999,-9.80904483795166,-0.8331822156906128,1.1540051698684692,-12.3138427734375,36.07177734375,-0.762939453125
1.8099999,-9.861717224121094,-1.3694833517074585,0.790086567401886,-11.04736328125,35.82763671875,7.4615478515625
1.8299999,-9.938331604003906,-1.6615760326385498,0.272938996553421,-8.148193359375,32.135009765625,13.48876953125
1.8499999,-10.038887977600098,-1.6687586307525635,-0.3926490843296051,0.8544921875,25.1922607421875,14.862060546875
1.8699999,-10.153809547424316,-1.3694833517074585,-1.0534487962722778,17.08984375,13.9312744140625,13.153076171875
1.8899999,-10.24000072479248,-0.8690952062606812,-1.5897499322891235,30.364990234375,2.044677734375,10.406494140625
1.9099999,-10.287884712219238,-0.30885201692581177,-1.86508309841156,34.088134765625,-6.072998046875,6.28662109375
1.9299998999999999,-10.259154319763184,0.19153612852096558,-1.7501614093780518,32.135009765625,-11.0321044921875,1.4801025390625
1.9499999,-10.170568466186523,0.5770025849342346,-1.2880805730819702,18.6614990234375,-11.7645263671875,-0.42724609375
1.9699999,-10.038887977600098,0.7589619159698486,-0.6631938815116882,-4.4097900390625,-6.8817138671875,-1.312255859375
1.9899999,-9.947908401489258,0.6607996821403503,-0.06703764945268631,-16.9525146484375,-3.0059814453125,-0.9765625
2.0099999,-9.86650562286377,0.37828385829925537,0.35434186458587646,-15.960693359375,-1.3885498046875,1.6326904296875
2.0299999,-9.876082420349121,-0.08140286058187485,0.4908113479614258,-13.3209228515625,0.7781982421875,4.0435791015625
2.0499999,-9.895236015319824,-0.40222588181495667,0.4405331015586853,-12.14599609375,-0.274658203125,7.50732421875
2.0699999,-9.931148529052734,-0.6488286852836609,0.2753331959247589,-9.185791015625,-1.2969970703125,8.8653564453125
2.0899999,-10.002974510192871,-0.7086837291717529,0.035913024097681046,-2.0599365234375,-5.035400390625,7.720947265625
2.1099999,-10.043676376342773,-0.6392518281936646,-0.19871874153614044,4.2877197265625,-9.2926025390625,7.965087890625
2.1299999,-10.103530883789062,-0.545877993106842,-0.4381389021873474,13.0462646484375,-12.87841796875,10.986328125
2.1499999,-10.108319282531738,-0.3687070608139038,-0.49559974670410156,26.7333984375,-18.524169921875,7.6751708984375
2.1699999,-10.08437728881836,-0.17477671802043915,-0.45010992884635925,30.33447265625,-20.2789306640625,7.8887939453125
2.1899999,-10.000580787658691,0.09816227108240128,-0.10295066982507706,19.2108154296875,-14.7247314453125,7.1868896484375
2.2099999,-9.895236015319824,0.4381389021873474,0.43335050344467163,4.425048828125,-7.87353515625,5.035400390625
2.2299999,-9.821015357971191,0.7086837291717529,0.9217676520347595,-9.4146728515625,2.01416015625,2.0294189453125
2.2499999,-9.782708168029785,0.8379706144332886,1.1492167711257935,-10.43701171875,6.8206787109375,-2.5634765625
2.2699999,-9.818621635437012,0.7589619159698486,1.115697979927063,2.7923583984375,2.38037109375,-3.9215087890625
2.2899999,-9.86889934539795,0.5650315880775452,0.9624691009521484,10.955810546875,0.2899169921875,-4.9285888671875
2.3099999,-9.907206535339355,0.3902548849582672,0.9002198576927185,3.2806396484375,5.7220458984375,-5.9356689453125
2.3299999,-9.864110946655273,0.35673606395721436,1.01753568649292,-14.8773193359375,14.984130859375,-4.2572021484375
2.3499999,-9.816226959228516,0.35673606395721436,1.173158884048462,-32.8216552734375,21.7742919921875,-3.35693359375
2.3699999,-9.732429504394531,0.37828385829925537,1.2210428714752197,-42.7093505859375,27.252197265625,-3.0059814453125
2.3899999,-9.77791976928711,0.2298433631658554,0.9385270476341248,-43.365478515625,31.4788818359375,-3.1280517578125
2.4099999,-9.823410034179688,-0.07900865375995636,0.36152446269989014,-28.2745361328125,26.885986328125,-2.0294189453125
2.4299999,-10.022128105163574,-0.3926490843296051,-0.3974374830722809,-1.2359619140625,14.16015625,0.152587890625
2.4499999,-10.144232749938965,-0.6320692300796509,-1.0893617868423462,16.8304443359375,2.4261474609375,2.7008056640625
2.4699999,-10.228029251098633,-0.6512228846549988,-1.3551181554794312,13.2904052734375,-3.082275390625,4.1961669921875
2.4899999,-10.20887565612793,-0.4141969084739685,-1.2401964664459229,-8.636474609375,0.4425048828125,-1.983642578125
2.5099999,-10.11789608001709,-0.11971008777618408,-0.8259995579719543,-27.9693603515625,4.5013427734375,1.739501953125
2.5299999,-10.06043529510498,0.1173158809542656,-0.4884171485900879,-31.707763671875,3.1585693359375,5.523681640625
2.5499999,-10.041281700134277,0.11013327538967133,-0.3663128614425659,-15.869140625,-2.716064453125,1.6326904296875
2.5699999,-10.050858497619629,-0.05027823522686958,-0.49320554733276367,3.8299560546875,-10.5133056640625,3.1890869140625
2.5899999,-10.079588890075684,-0.2753331959247589,-0.6799532771110535,18.768310546875,-15.44189453125,5.859375
2.6099999,-10.086771965026855,-0.45250412821769714,-0.811634361743927,24.5208740234375,-18.707275390625,8.453369140625
2.6299999,-10.074800491333008,-0.48602294921875,-0.7422025203704834,20.721435546875,-18.9056396484375,11.65771484375
2.6499999,-10.02452278137207,-0.2992752194404602,-0.40701428055763245,9.5062255859375,-17.8680419921875,13.5650634765625
2.6699999,-9.974244117736816,-0.07182604819536209,0.033518824726343155,-6.317138671875,-12.3291015625,12.4053955078125
2.6899999,-9.940725326538086,0.23942017555236816,0.42377370595932007,-11.4898681640625,-5.6915283203125,10.2386474609375
2.7099999,-9.938331604003906,0.395043283700943,0.5937620401382446,-0.42724609375,-8.0718994140625,8.1939697265625
2.7299999,-9.976638793945312,0.5291185975074768,0.569819986820221,13.9923095703125,-13.8092041015625,6.5155029296875
2.7499999,-10.002974510192871,0.4908113479614258,0.35434186458587646,19.6685791015625,-15.07568359375,5.31005859375
2.7699999,-10.007762908935547,0.4692635238170624,0.1604115068912506,26.1688232421875,-15.7623291015625,3.9215087890625
2.7899999,-10.029311180114746,0.363918662071228,-0.06703764945268631,37.4755859375,-19.012451171875,2.5177001953125
2.8099999,-9.986215591430664,0.3256114423274994,-0.15322890877723694,48.03466796875,-23.3306884765625,2.4566650390625
2.8299999,-9.983820915222168,0.31842881441116333,-0.06224924325942993,50.3387451171875,-27.2674560546875,3.0670166015625
2.8499999,-9.938331604003906,0.49559974670410156,0.31842881441116333,35.82763671875,-21.0723876953125,2.960205078125
2.8699999,-9.86889934539795,0.751779317855835,0.9481038451194763,12.14599609375,-9.27734375,0.5340576171875
2.8899999,-9.792284965515137,1.015141487121582,1.601720929145813,-10.2081298828125,0.6866455078125,-1.1138916015625
2.9099999,-9.730035781860352,1.1540051698684692,2.032677173614502,-23.8189697265625,8.5601806640625,-1.5411376953125
2.9299999,-9.713275909423828,1.0247182846069336,2.032677173614502,-22.705078125,12.39013671875,-0.30517578125
2.9499999,-9.75637149810791,0.727837324142456,1.6160861253738403,-8.5601806640625,10.3607177734375,0.1068115234375
2.9699999,-9.864110946655273,0.3878606855869293,0.9864110946655273,8.026123046875,5.7830810546875,2.227783203125
2.9899999,-9.938331604003906,0.1412578970193863,0.4118026793003082,15.869140625,-1.52587890625,2.1514892578125
3.0099999,-9.995792388916016,0.15083470940589905,0.10534487664699554,12.4359130859375,-1.2969970703125,1.9073486328125
3.0299999,-10.012551307678223,0.26815059781074524,0.10534487664699554,-0.2288818359375,4.0283203125,-0.8392333984375
3.0499999,-9.983820915222168,0.4692635238170624,0.2561795711517334,-9.46044921875,5.43212890625,-0.4425048828125
3.0699999,-9.962273597717285,0.5650315880775452,0.4668693244457245,-10.5438232421875,5.3253173828125,0.701904296875
3.0899999,-9.950302124023438,0.43095630407333374,0.5147533416748047,-3.8604736328125,4.2877197265625,1.8463134765625
3.1099999,-9.988609313964844,0.2322375625371933,0.40462008118629456,10.3912353515625,-0.1373291015625,3.082275390625
3.1299999,-9.998186111450195,-0.07182604819536209,0.15801730751991272,28.86962890625,-6.77490234375,4.7607421875
3.1499999,-10.093954086303711,-0.20111294090747833,-0.1388636976480484,43.4112548828125,-14.9078369140625,6.9427490234375
3.1699999,-10.067618370056152,-0.10773907601833344,-0.27054479718208313,48.797607421875,-19.2413330078125,8.056640625
3.1899999,-10.070012092590332,0.20350714027881622,-0.22505496442317963,45.257568359375,-18.85986328125,5.7220458984375
3.2099999,-9.995792388916016,0.6200982332229614,0.07422025501728058,36.1480712890625,-17.486572265625,2.3040771484375
3.2299999,-9.914389610290527,1.0247182846069336,0.5363011956214905,23.040771484375,-13.7176513671875,0.946044921875
3.2499999,-9.849745750427246,1.3215993642807007,1.015141487121582,10.4827880859375,-8.544921875,-0.18310546875
3.2699999,-9.785101890563965,1.4053963422775269,1.3838485479354858,5.5999755859375,-4.8980712890625,-2.166748046875
3.2899999,-9.758766174316406,1.3982137441635132,1.625662922859192,8.7127685546875,-2.410888671875,-4.94384765625
3.3099999,-9.737217903137207,1.259350061416626,1.6879122257232666,11.5966796875,1.190185546875,-7.0343017578125
3.3299999000000002,-9.749189376831055,1.1037269830703735,1.6974890232086182,9.429931640625,6.1798095703125,-7.659912109375
3.3499999,-9.751583099365234,0.9696516990661621,1.6496049165725708,5.706787109375,10.1165771484375,-9.796142578125
3.3699999,-9.75637149810791,0.8834604024887085,1.6496049165725708,2.288818359375,13.8702392578125,-11.0931396484375
3.3899999,-9.773131370544434,0.8619126081466675,1.6496049165725708,-5.1422119140625,20.0958251953125,-10.223388671875
3.4099999,-9.765948295593262,0.8643068075180054,1.5179238319396973,-14.2669677734375,26.153564453125,-13.1988525390625
3.4299999,-9.81143856048584,0.7230489253997803,1.235408067703247,-12.02392578125,27.9693603515625,-17.08984375
3.4499999,-9.876082420349121,0.5171475410461426,0.7709329724311829,-0.1983642578125,22.3388671875,-14.7857666015625
3.4699999,-9.95748519897461,0.2322375625371933,0.2106897532939911,7.26318359375,16.357421875,-11.4898681640625
3.4899999,-10.074800491333008,-0.12210428714752197,-0.33758243918418884,11.505126953125,10.3302001953125,-8.8958740234375
3.5099999,-10.15141487121582,-0.37828385829925537,-0.7493851184844971,19.6685791015625,2.655029296875,-6.16455078125
3.5299999,-10.213664054870605,-0.5386953949928284,-1.0007762908935547,28.7628173828125,-5.6610107421875,-3.60107421875
3.5499999,-10.220847129821777,-0.6033388376235962,-1.0271124839782715,35.430908203125,-12.603759765625,-1.068115234375
3.5699999,-10.194510459899902,-0.5099649429321289,-0.8523358106613159,35.2783203125,-15.7623291015625,1.4801025390625
3.5899999,-10.125079154968262,-0.3256114423274994,-0.4692635238170624,27.2216796875,-17.242431640625,4.2572021484375
3.6099999,-10.034099578857422,-0.05985504388809204,0.06224924325942993,16.4947509765625,-15.838623046875,5.8135986328125
3.6299999,-9.962273597717285,0.16759411990642548,0.6129156351089478,6.9732666015625,-11.3983154296875,6.65283203125
3.6499999,-9.876082420349121,0.35673606395721436,1.0223240852355957,2.716064453125,-4.9896240234375,7.4615478515625
3.6699999,-9.840168952941895,0.42377370595932007,1.259350061416626,11.4288330078125,-4.608154296875,6.134033203125
3.6899999,-9.806650161743164,0.49799394607543945,1.3120225667953491,20.0347900390625,-3.875732421875,6.65283203125
3.7099999,-9.813833236694336,0.524330198764801,1.259350061416626,19.2413330078125,0.5340576171875,5.37109375
3.7299999,-9.80904483795166,0.6153098344802856,1.1994950771331787,13.946533203125,3.875732421875,2.7618408203125
3.7499999,-9.821015357971191,0.7182605266571045,1.1635819673538208,7.50732421875,5.767822265625,2.0599365234375
3.7699999,-9.787496566772461,0.8307880163192749,1.1755530834197998,-1.5411376953125,8.880615234375,1.3275146484375
3.7899999,-9.84495735168457,0.8834604024887085,1.1324573755264282,-10.68115234375,15.3045654296875,-1.068115234375
3.8099999,-9.854534149169922,0.7972691655158997,0.8906430602073669,-9.1094970703125,16.0980224609375,-2.6092529296875
3.8299999000000002,-9.950302124023438,0.629675030708313,0.5841852426528931,3.2958984375,8.941650390625,-1.800537109375
3.8499999,-10.005369186401367,0.40222588181495667,0.15562310814857483,9.5977783203125,2.2735595703125,1.2664794921875
3.8699999,-10.072406768798828,0.26096799969673157,-0.12928688526153564,7.049560546875,-0.6866455078125,0.762939453125
3.8899999,-10.098742485046387,0.21547815203666687,-0.2753331959247589,5.0201416015625,-1.0528564453125,-0.274658203125
3.9099999,-10.105925559997559,0.2825157940387726,-0.19871874153614044,7.6141357421875,-3.5247802734375,0.4730224609375
3.9299999,-10.065223693847656,0.44771572947502136,-0.0071826050989329815,2.5482177734375,-4.39453125,2.288818359375
3.9499999,-9.995792388916016,0.7350199222564697,0.33997663855552673,-9.5062255859375,-0.885009765625,0.274658203125
3.9699999,-9.914389610290527,0.8858546018600464,0.6009446382522583,-18.096923828125,4.7760009765625,-5.2032470703125
3.9899999,-9.876082420349121,0.9481038451194763,0.7757213711738586,-15.1214599609375,5.7525634765625,-8.2550048828125
4.0099999,-9.883264541625977,0.751779317855835,0.7398083209991455,-3.2196044921875,1.28173828125,-6.2103271484375
4.029999900000001,-9.911994934082031,0.4692635238170624,0.629675030708313,7.5225830078125,-1.4801025390625,-4.08935546875
4.0499999,-9.93593692779541,0.2561795711517334,0.629675030708313,8.23974609375,-0.7171630859375,-2.50244140625
4.069999900000001,-9.919178009033203,0.2346317619085312,0.7374141216278076,-1.8310546875,3.173828125,-1.953125
4.0899999000000005,-9.888052940368652,0.3256114423274994,0.8954314589500427,-18.6920166015625,9.3231201171875,-3.0059814453125
4.1099999,-9.873687744140625,0.4381389021873474,0.9026140570640564,-25.7568359375,11.505126953125,-3.4332275390625
4.1299999000000005,-9.923966407775879,0.43095630407333374,0.6847416758537292,-17.974853515625,9.0789794921875,-4.2572021484375
4.1499999,-9.99100399017334,0.3208230137825012,0.2059013396501541,-4.1961669921875,1.6937255859375,-4.5623779296875
4.1699999000000005,-10.091560363769531,0.0454898327589035,-0.31364041566848755,15.1214599609375,-9.3994140625,-1.983642578125
4.1899999,-10.11550235748291,-0.17717093229293823,-0.586579442024231,27.9541015625,-16.4337158203125,1.2969970703125
4.209999900000001,-10.091560363769531,-0.2753331959247589,-0.4620809257030487,21.8658447265625,-13.3056640625,4.69970703125
4.2299999,-9.988609313964844,-0.1867477297782898,0.0694318488240242,0.8697509765625,-4.6844482421875,7.9193115234375
4.249999900000001,-9.93354320526123,0.05746084079146385,0.7086837291717529,-19.8516845703125,2.7008056640625,10.0860595703125
4.2699999,-9.856928825378418,0.3711012601852417,1.1420341730117798,-28.4423828125,7.0037841796875,8.4381103515625
4.289999900000001,-9.864110946655273,0.6392518281936646,1.2497732639312744,-17.4713134765625,5.126953125,4.33349609375
4.3099999,-9.86650562286377,0.8738836050033569,1.094150185585022,-5.615234375,2.6397705078125,-0.1220703125
4.329999900000001,-9.890447616577148,0.9576807022094727,0.8738836050033569,-7.781982421875,2.838134765625,-2.166748046875
4.3499999,-9.909601211547852,0.8667010068893433,0.6775590777397156,-13.4735107421875,4.21142578125,-1.8768310546875
4.369999900000001,-9.981427192687988,0.5961562395095825,0.42616790533065796,-10.162353515625,5.8441162109375,-1.8157958984375
4.3899999,-10.0580415725708,0.18914192914962769,0.06464344263076782,8.30078125,-0.518798828125,-0.6256103515625
4.409999900000001,-10.11550235748291,-0.0694318488240242,-0.31842881441116333,37.0025634765625,-11.993408203125,0.4119873046875
4.4299999,-10.17296314239502,-0.21787235140800476,-0.6392518281936646,55.572509765625,-19.1650390625,0.9765625
4.449999900000001,-10.11550235748291,-0.043095629662275314,-0.5506663918495178,51.0406494140625,-21.78955078125,1.983642578125
4.4699999,-10.031704902648926,0.30885201692581177,-0.10295066982507706,26.702880859375,-17.2576904296875,1.3885498046875
4.489999900000001,-9.880870819091797,0.8092401623725891,0.7469909191131592,-2.74658203125,-6.89697265625,0.3814697265625
4.5099999,-9.734824180603027,1.2617442607879639,1.6041151285171509,-29.754638671875,7.1258544921875,-3.448486328125
4.529999900000001,-9.619902610778809,1.534683346748352,2.2026655673980713,-47.2869873046875,17.5933837890625,-7.3394775390625
4.5499999,-9.593565940856934,1.4508862495422363,2.3056161403656006,-48.0194091796875,22.491455078125,-7.598876953125
4.569999900000001,-9.667786598205566,1.05105459690094,1.8291701078414917,-31.7230224609375,19.805908203125,-6.4544677734375
4.5899999000000005,-9.861717224121094,0.42377370595932007,1.0007762908935547,-2.197265625,12.51220703125,-5.6610107421875
4.609999900000001,-10.017339706420898,-0.10534487664699554,0.17717093229293823,21.8505859375,2.01416015625,-3.2196044921875
4.6299999000000005,-10.125079154968262,-0.395043283700943,-0.3280056416988373,25.634765625,-0.8392333984375,1.3885498046875
4.6499999,-10.11550235748291,-0.3232172429561615,-0.4213795065879822,17.059326171875,-0.1983642578125,-1.312255859375
4.6699999000000005,-10.055646896362305,-0.07900865375995636,-0.19153612852096558,3.265380859375,2.5787353515625,-1.4190673828125
4.6899999,-9.943120002746582,0.26096799969673157,0.15801730751991272,-10.7879638671875,4.7607421875,0.2899169921875
4.709999900000001,-9.967061996459961,0.5530605912208557,0.40222588181495667,-4.69970703125,0.42724609375,-2.532958984375
4.7299999,-10.08198356628418,0.40701428055763245,0.26096799969673157,7.6141357421875,-4.730224609375,-1.15966796875
4.749999900000001,-10.11789608001709,0.2059013396501541,0.11252748221158981,16.021728515625,-8.2244873046875,-0.579833984375
4.7699999,-10.125079154968262,0.033518824726343155,0.08619125932455063,18.3868408203125,-8.72802734375,0.244140625
4.789999900000001,-10.038887977600098,0.05506663769483566,0.24660277366638184,10.467529296875,-4.5013427734375,1.495361328125
4.8099999,-9.892841339111328,0.181959331035614,0.5099649429321289,2.74658203125,-2.593994140625,1.1138916015625
4.829999900000001,-9.861717224121094,0.4189853072166443,0.7924807667732239,-0.5035400390625,1.0528564453125,1.068115234375
4.8499999,-9.75397777557373,0.6033388376235962,0.9696516990661621,-5.5084228515625,1.9378662109375,0.91552734375
4.869999900000001,-9.847352027893066,0.7350199222564697,1.0103530883789062,-8.758544921875,4.82177734375,-0.5035400390625
4.8899999,-9.852140426635742,0.7110779285430908,0.9624691009521484,-13.275146484375,5.4473876953125,-0.3814697265625
4.909999900000001,-9.947908401489258,0.6272808313369751,0.8475474119186401,-15.19775390625,5.9051513671875,-0.9307861328125
4.9299999,-9.96945571899414,0.42616790533065796,0.7182605266571045,-13.519287109375,7.1868896484375,-1.3427734375
4.949999900000001,-10.007762908935547,0.23942017555236816,0.5746083855628967,-7.568359375,7.38525390625,0.67138671875
4.9699999,-10.005369186401367,0.10534487664699554,0.43335050344467163,-8.941650390625,5.8135986328125,4.57763671875
4.989999900000001,-10.031704902648926,0.0454898327589035,0.10295066982507706,-8.8653564453125,4.4097900390625,3.9825439453125
5.0099999,-10.08437728881836,0.08379705995321274,-0.15083470940589905,7.8277587890625,-5.5084228515625,2.7313232421875
5.029999900000001,-10.15141487121582,0.1388636976480484,-0.45010992884635925,20.20263671875,-15.167236328125,1.0986328125
5.0499999,-10.14902114868164,0.21787235140800476,-0.42856210470199585,23.3306884765625,-18.12744140625,-2.5177001953125
5.069999900000001,-10.070012092590332,0.33518823981285095,-0.0454898327589035,18.829345703125,-13.5955810546875,-1.52587890625
5.0899999000000005,-9.95748519897461,0.4884171485900879,0.586579442024231,1.312255859375,-0.244140625,2.8839111328125
5.109999900000001,-9.799467086791992,0.6967126727104187,1.3958195447921753,-17.7459716796875,11.16943359375,1.739501953125
5.1299999000000005,-9.715670585632324,0.9768342971801758,2.0207061767578125,-26.67236328125,20.99609375,-3.5552978515625
5.1499999,-9.622296333312988,1.194706678390503,2.2361843585968018,-34.423828125,28.7628173828125,-6.317138671875
5.1699999000000005,-9.655815124511719,1.2018892765045166,2.0039467811584473,-37.5213623046875,33.02001953125,-11.3525390625
5.1899999,-9.701305389404297,1.0007762908935547,1.3311761617660522,-26.9927978515625,28.4576416015625,-12.298583984375
5.209999900000001,-9.861717224121094,0.5817909836769104,0.36152446269989014,-13.5345458984375,19.34814453125,-8.026123046875
5.2299999,-10.019734382629395,0.272938996553421,-0.4381389021873474,-2.9296875,13.9312744140625,-7.7972412109375
5.249999900000001,-10.108319282531738,0.021547814831137657,-0.9720458984375,-0.946044921875,7.3089599609375,-7.6141357421875
5.2699999,-10.165780067443848,-0.08858546614646912,-1.0845733880996704,-6.4544677734375,4.8065185546875,-9.5672607421875
5.289999900000001,-10.14902114868164,-0.2106897532939911,-0.9888052940368652,-8.7127685546875,3.204345703125,-5.1727294921875
5.3099999,-10.120290756225586,-0.42616790533065796,-0.7876923680305481,2.4566650390625,-2.2125244140625,-3.7689208984375
5.329999900000001,-10.125079154968262,-0.6009446382522583,-0.6057330369949341,15.533447265625,-8.209228515625,2.3193359375
5.3499999,-10.0580415725708,-0.5746083855628967,-0.3232172429561615,15.68603515625,-8.331298828125,4.425048828125
5.369999900000001,-9.99339771270752,-0.3208230137825012,0.14604631066322327,1.6632080078125,-1.1444091796875,5.0506591796875
5.3899999,-9.8784761428833,0.0933738648891449,0.6536170840263367,-23.8800048828125,8.9874267578125,7.32421875
5.409999900000001,-9.892841339111328,0.3878606855869293,0.8188169598579407,-38.604736328125,16.5252685546875,4.7607421875
5.4299999,-9.93354320526123,0.4668693244457245,0.6727706789970398,-20.32470703125,8.453369140625,1.739501953125
5.449999900000001,-10.103530883789062,0.22266076505184174,0.0071826050989329815,10.07080078125,-5.0201416015625,2.74658203125
5.4699999,-10.24000072479248,-0.1173158809542656,-0.7613561153411865,35.9344482421875,-15.9759521484375,3.4637451171875
5.489999900000001,-10.309432983398438,-0.33997663855552673,-1.278503656387329,50.994873046875,-24.1241455078125,6.072998046875
5.5099999,-10.251971244812012,-0.31842881441116333,-1.3694833517074585,48.9349365234375,-28.7017822265625,6.8359375
5.529999900000001,-10.098742485046387,-0.05267243832349777,-1.05105459690094,35.70556640625,-27.6641845703125,5.2490234375
5.5499999,-9.928754806518555,0.3495534360408783,-0.33279404044151306,26.580810546875,-24.4293212890625,3.4942626953125
5.569999900000001,-9.763554573059082,0.7374141216278076,0.5554547905921936,15.6097412109375,-18.1732177734375,3.265380859375
5.5899999000000005,-9.62947940826416,1.1037269830703735,1.4413094520568848,-4.08935546875,-4.8370361328125,0.823974609375
5.609999900000001,-9.634267807006836,1.2976573705673218,2.140416383743286,-25.1007080078125,11.8255615234375,-1.922607421875
5.6299999000000005,-9.612719535827637,1.3670891523361206,2.4133553504943848,-34.6221923828125,18.707275390625,-2.13623046875
5.6499999,-9.636661529541016,1.2090718746185303,2.2433669567108154,-31.1279296875,21.026611328125,-4.486083984375
5.6699999000000005,-9.792284965515137,0.8236053586006165,1.558625340461731,-19.1192626953125,19.134521484375,-4.7454833984375
5.6899999,-9.909601211547852,0.2968810200691223,0.768538773059845,-5.0201416015625,11.65771484375,-3.173828125
5.709999900000001,-10.11789608001709,-0.17477671802043915,-0.14844051003456116,7.4310302734375,6.1187744140625,-1.03759765625
5.7299999,-10.232817649841309,-0.43095630407333374,-0.7852981686592102,18.035888671875,-1.0986328125,1.434326171875
5.749999900000001,-10.26394271850586,-0.4213795065879822,-1.1755530834197998,19.04296875,-10.040283203125,0.9918212890625
5.7699999,-10.26394271850586,-0.3016694188117981,-1.2856862545013428,17.8680419921875,-14.7705078125,-0.9613037109375
5.789999900000001,-10.204087257385254,-0.10534487664699554,-1.0007762908935547,23.8189697265625,-20.56884765625,0.7781982421875
5.8099999,-10.074800491333008,0.028730420395731926,-0.4884171485900879,20.660400390625,-20.56884765625,5.126953125
5.829999900000001,-10.06043529510498,0.0694318488240242,0.14604631066322327,8.8958740234375,-11.90185546875,6.2408447265625
5.8499999,-9.847352027893066,0.2849099934101105,0.8331822156906128,0.1983642578125,-5.3253173828125,9.3841552734375
5.869999900000001,-9.804255485534668,0.4836287498474121,1.2521674633026123,-6.8206787109375,-1.7852783203125,8.8958740234375
5.8899999,-9.816226959228516,0.6200982332229614,1.4460978507995605,-6.53076171875,0.9765625,4.2572021484375
5.909999900000001,-9.765948295593262,0.7852981686592102,1.3718775510787964,0.18310546875,-1.8463134765625,3.7078857421875
5.9299999,-9.854534149169922,0.6943184733390808,1.1180921792984009,0.48828125,-3.0670166015625,5.2032470703125
5.949999900000001,-9.940725326538086,0.5985504388809204,0.8020575642585754,-0.7476806640625,-1.0223388671875,3.7078857421875
5.9699999,-9.959878921508789,0.6416460275650024,0.5889736413955688,2.105712890625,-1.5411376953125,3.0364990234375
5.989999900000001,-9.981427192687988,0.6871358752250671,0.47165772318840027,-0.6256103515625,-1.953125,-0.6103515625
6.0099999,-9.926360130310059,0.8786720037460327,0.5171475410461426,-7.0037841796875,1.9989013671875,-5.767822265625
6.029999900000001,-9.854534149169922,0.9576807022094727,0.6967126727104187,-7.32421875,4.1351318359375,-4.8675537109375
6.0499999,-9.871294021606445,0.8259995579719543,0.9457096457481384,-11.2457275390625,6.622314453125,-6.1798095703125
6.069999900000001,-9.873687744140625,0.586579442024231,1.05105459690094,-14.3890380859375,14.0380859375,-6.65283203125
6.0899999000000005,-9.940725326538086,0.30885201692581177,1.039083480834961,-7.3699951171875,14.22119140625,0.274658203125
6.109999900000001,-9.979032516479492,0.0454898327589035,0.751779317855835,0.701904296875,9.4757080078125,1.9683837890625
6.1299999000000005,-10.038887977600098,-0.11971008777618408,0.2513911724090576,10.284423828125,2.5482177734375,1.0986328125
6.149999900000001,-10.074800491333008,-0.15801730751991272,-0.1843535304069519,19.500732421875,-8.30078125,4.82177734375
6.1699999000000005,-10.139444351196289,-0.1628057211637497,-0.5099649429321289,17.608642578125,-13.8092041015625,7.4615478515625
6.1899999,-10.125079154968262,0.021547814831137657,-0.5793967843055725,9.918212890625,-12.51220703125,7.232666015625
6.209999900000001,-10.105925559997559,0.26815059781074524,-0.395043283700943,5.126953125,-13.3514404296875,8.1634521484375
6.2299999,-10.074800491333008,0.5219359993934631,-0.14604631066322327,1.3427734375,-15.3350830078125,5.4931640625
6.249999900000001,-10.043676376342773,0.7589619159698486,0.2825157940387726,2.7618408203125,-14.2974853515625,1.800537109375
6.2699999,-9.938331604003906,0.9409212470054626,0.7852981686592102,5.1422119140625,-12.451171875,2.6702880859375
6.289999900000001,-9.792284965515137,1.0414776802062988,1.4269442558288574,-3.60107421875,-4.2877197265625,0
6.3099999,-9.672574996948242,1.0247182846069336,1.8363527059555054,-16.8609619140625,11.9781494140625,-4.638671875
6.329999900000001,-9.586383819580078,0.9864110946655273,2.10210919380188,-17.0745849609375,16.571044921875,0.518798828125
6.3499999,-9.639056205749512,0.8523358106613159,1.7884687185287476,-11.7034912109375,15.0146484375,-0.2593994140625
6.369999900000001,-9.782708168029785,0.6799532771110535,1.1540051698684692,1.28173828125,9.1552734375,-4.302978515625
6.3899999,-9.940725326538086,0.5674257874488831,0.47644615173339844,17.120361328125,-1.373291015625,-2.5482177734375
6.409999900000001,-10.038887977600098,0.4118026793003082,-0.0694318488240242,19.8516845703125,-7.5531005859375,-2.288818359375
6.4299999,-10.08198356628418,0.4429273009300232,-0.20350714027881622,9.2315673828125,-3.631591796875,-2.5482177734375
6.449999900000001,-10.034099578857422,0.4644751250743866,-0.05267243832349777,-2.655029296875,-0.0762939453125,-1.007080078125
6.4699999,-10.014945983886719,0.5506663918495178,0.15801730751991272,-7.87353515625,0.518798828125,-2.7313232421875
6.489999900000001,-9.921571731567383,0.6272808313369751,0.47884035110473633,-2.7008056640625,-1.861572265625,-3.3416748046875
6.5099999,-9.971850395202637,0.5722141861915588,0.6440402865409851,2.288818359375,-2.349853515625,-1.7852783203125
6.529999900000001,-9.883264541625977,0.5674257874488831,1.0295066833496094,-2.1209716796875,-0.48828125,-1.8157958984375
6.5499999,-9.959878921508789,0.4189853072166443,1.2114660739898682,-14.373779296875,10.5133056640625,-3.0364990234375
6.569999900000001,-9.892841339111328,0.3974374830722809,1.3503297567367554,-18.0206298828125,15.869140625,1.1138916015625
6.5899999000000005,-9.926360130310059,0.36152446269989014,1.1348515748977661,-10.6201171875,11.4288330078125,0.9765625
6.609999900000001,-9.921571731567383,0.304063618183136,0.6727706789970398,1.52587890625,5.2032470703125,-2.3345947265625
6.6299999000000005,-9.971850395202637,0.3016694188117981,0.17477671802043915,14.9383544921875,-3.326416015625,0.9002685546875
6.649999900000001,-9.964667320251465,0.31364041566848755,-0.12689268589019775,18.49365234375,-9.0789794921875,0.8087158203125
6.6699999000000005,-10.02691650390625,0.31603461503982544,-0.19632454216480255,9.5062255859375,-6.6680908203125,0.54931640625
6.6899999,-10.000580787658691,0.4572925269603729,0.026336219161748886,-0.9307861328125,-2.6702880859375,2.8228759765625
6.709999900000001,-10.002974510192871,0.5722141861915588,0.3423708379268646,-6.744384765625,-2.86865234375,1.617431640625
6.7299999,-10.017339706420898,0.6416460275650024,0.6153098344802856,-6.072998046875,-1.0528564453125,-0.8544921875
6.749999900000001,-9.959878921508789,0.7469909191131592,0.9361328482627869,-4.21142578125,-0.152587890625,-0.18310546875
6.7699999,-9.8784761428833,0.727837324142456,1.2114660739898682,-9.7503662109375,3.4637451171875,-1.77001953125
6.789999900000001,-9.861717224121094,0.7206547260284424,1.4101848602294922,-20.0653076171875,13.9617919921875,-2.5177001953125
6.8099999,-9.787496566772461,0.6248866319656372,1.37906014919281,-20.4010009765625,18.73779296875,1.0528564453125
6.829999900000001,-9.876082420349121,0.5171475410461426,1.0749965906143188,-7.01904296875,12.8173828125,0.213623046875
6.8499999,-9.93354320526123,0.43095630407333374,0.5386953949928284,4.9896240234375,5.31005859375,-2.8228759765625
6.869999900000001,-9.974244117736816,0.395043283700943,0.08140286058187485,10.3759765625,-0.9918212890625,-0.1373291015625
6.8899999,-10.055646896362305,0.40701428055763245,-0.24181437492370605,6.5155029296875,-2.50244140625,-1.251220703125
6.909999900000001,-10.0580415725708,0.43095630407333374,-0.2753331959247589,-1.861572265625,-0.457763671875,-2.44140625
6.9299999,-10.105925559997559,0.4620809257030487,-0.23942017555236816,-4.241943359375,-2.8839111328125,-0.9307861328125
6.949999900000001,-10.108319282531738,0.4118026793003082,-0.12210428714752197,0.7476806640625,-8.392333984375,-3.0364990234375
6.9699999,-10.062829971313477,0.3926490843296051,0.13168109953403473,9.979248046875,-10.43701171875,-4.180908203125
6.989999900000001,-9.986215591430664,0.395043283700943,0.4572925269603729,11.7034912109375,-8.2244873046875,-1.1444091796875
7.0099999,-9.852140426635742,0.38307225704193115,0.9768342971801758,2.105712890625,-1.708984375,1.52587890625
7.029999900000001,-9.81143856048584,0.4213795065879822,1.3551181554794312,-9.9029541015625,9.3841552734375,3.0670166015625
7.0499999,-9.75637149810791,0.47165772318840027,1.5634137392044067,-13.2904052734375,13.9617919921875,2.3193359375
7.069999900000001,-9.792284965515137,0.49559974670410156,1.4221558570861816,-11.9781494140625,14.2822265625,1.0986328125
7.0899999000000005,-9.818621635437012,0.6105214357376099,1.0893617868423462,-7.5531005859375,9.8724365234375,0.518798828125
7.109999900000001,-9.854534149169922,0.7158663272857666,0.6919242739677429,-12.26806640625,8.4075927734375,0.5645751953125
7.1299999000000005,-9.943120002746582,0.7158663272857666,0.272938996553421,-21.7437744140625,9.70458984375,-0.8697509765625
7.149999900000001,-10.043676376342773,0.7541735172271729,-0.08619125932455063,-22.6593017578125,5.9814453125,-0.4119873046875
7.1699999000000005,-10.158597946166992,0.6033388376235962,-0.47644615173339844,-18.6767578125,-2.7923583984375,-0.3509521484375
7.1899999,-10.196905136108398,0.5171475410461426,-0.6248866319656372,-9.185791015625,-13.336181640625,-4.6539306640625
7.209999900000001,-10.103530883789062,0.3495534360408783,-0.4836287498474121,0.579833984375,-16.3421630859375,-5.2337646484375
7.2299999,-9.947908401489258,0.22505496442317963,0.181959331035614,-0.79345703125,-7.232666015625,-1.3885498046875
7.249999900000001,-9.799467086791992,0.08619125932455063,0.9528923034667969,-17.1356201171875,7.720947265625,5.706787109375
7.2699999,-9.701305389404297,0.011971008032560349,1.601720929145813,-23.8800048828125,16.9525146484375,9.063720703125
7.289999900000001,-9.770736694335938,0.12689268589019775,1.7860745191574097,-16.3726806640625,20.0042724609375,6.04248046875
7.3099999,-9.835380554199219,0.24420857429504395,1.3215993642807007,-6.4239501953125,16.9219970703125,2.532958984375
7.329999900000001,-9.986215591430664,0.4668693244457245,0.6200982332229614,7.1563720703125,6.927490234375,-0.946044921875
7.3499999,-10.110713958740234,0.6177040338516235,-0.2082955539226532,19.744873046875,-1.3427734375,-2.960205078125
7.369999900000001,-10.158597946166992,0.6655880808830261,-0.6799532771110535,29.0679931640625,-11.8865966796875,-5.615234375
7.3899999,-10.160991668701172,0.6655880808830261,-0.689530074596405,26.6876220703125,-15.19775390625,-5.645751953125
7.409999900000001,-10.043676376342773,0.6847416758537292,-0.20111294090747833,9.5062255859375,-5.92041015625,-1.3885498046875
7.4299999,-9.876082420349121,0.6799532771110535,0.4620809257030487,-14.801025390625,5.2337646484375,-1.28173828125
7.449999900000001,-9.804255485534668,0.7038952708244324,0.9528923034667969,-27.6336669921875,13.214111328125,-0.2593994140625
7.4699999,-9.799467086791992,0.5817909836769104,0.9696516990661621,-15.1824951171875,6.103515625,0.3662109375
7.489999900000001,-9.921571731567383,0.4572925269603729,0.6775590777397156,6.1187744140625,-2.5177001953125,-1.983642578125
7.5099999,-9.981427192687988,0.2298433631658554,0.272938996553421,19.0277099609375,-8.6212158203125,-1.5411376953125
7.529999900000001,-10.077195167541504,0.11252748221158981,0.26336219906806946,16.7999267578125,-6.8511962890625,-1.3885498046875
7.5499999,-9.986215591430664,0.1149216815829277,0.586579442024231,-6.3018798828125,4.8675537109375,1.708984375
7.569999900000001,-9.897629737854004,0.21308395266532898,0.9457096457481384,-31.2347412109375,20.263671875,7.1563720703125
7.5899999000000005,-9.880870819091797,0.4165911078453064,1.0845733880996704,-32.470703125,20.7977294921875,6.866455078125
7.609999900000001,-9.909601211547852,0.5386953949928284,0.6416460275650024,-14.2059326171875,11.1083984375,3.8604736328125
7.6299999000000005,-10.002974510192871,0.6607996821403503,-0.011971008032560349,8.087158203125,-2.7008056640625,1.1138916015625
7.649999900000001,-10.141838073730469,0.6009446382522583,-0.667982280254364,19.4549560546875,-13.7481689453125,-4.2877197265625
7.6699999000000005,-10.160991668701172,0.5291185975074768,-0.8954314589500427,20.8892822265625,-14.892578125,-6.256103515625
7.6899999,-10.132261276245117,0.4405331015586853,-0.6703764796257019,16.5252685546875,-11.6424560546875,-1.312255859375
7.709999900000001,-10.067618370056152,0.3758896589279175,-0.22266076505184174,12.2528076171875,-10.43701171875,3.5858154296875
7.7299999,-10.010157585144043,0.3447650372982025,0.3471592366695404,11.932373046875,-8.453369140625,2.655029296875
7.749999900000001,-9.938331604003906,0.4357447028160095,0.7781155705451965,10.0555419921875,-4.608154296875,-0.335693359375
7.7699999,-9.890447616577148,0.586579442024231,1.2066776752471924,4.241943359375,0.396728515625,-1.0833740234375
7.789999900000001,-9.744400978088379,0.8403648138046265,1.699883222579956,-7.8125,7.75146484375,-2.4566650390625
7.8099999,-9.615114212036133,1.1180921792984009,2.099714994430542,-35.5377197265625,24.566650390625,-6.7291259765625
7.829999900000001,-9.550470352172852,1.213860273361206,2.0925323963165283,-59.63134765625,41.0308837890625,-2.532958984375
7.8499999,-9.646238327026367,1.1228805780410767,1.525106430053711,-52.276611328125,37.017822265625,0.244140625
7.869999900000001,-9.847352027893066,0.9002198576927185,0.44771572947502136,-24.3988037109375,18.1427001953125,-3.11279296875
7.8899999,-10.137049674987793,0.4908113479614258,-0.727837324142456,-5.37109375,-0.79345703125,-7.5225830078125
7.909999900000001,-10.290278434753418,0.047884032130241394,-1.6352397203445435,6.3934326171875,-8.697509765625,-10.772705078125
7.9299999,-10.38604736328125,-0.3711012601852417,-1.9488801956176758,23.651123046875,-14.4195556640625,-3.8604736328125
7.949999900000001,-10.311826705932617,-0.730231523513794,-1.821987509727478,36.285400390625,-19.5159912109375,7.049560546875
7.9699999,-10.211270332336426,-0.8140285611152649,-1.3215993642807007,42.388916015625,-23.4527587890625,9.4757080078125
7.989999900000001,-10.04846477508545,-0.49799394607543945,-0.5746083855628967,43.02978515625,-22.3236083984375,9.765625
8.0099999,-9.909601211547852,0.10295066982507706,0.3232172429561615,30.2734375,-16.448974609375,6.6680908203125
8.0299999,-9.75637149810791,0.9050082564353943,1.2856862545013428,4.425048828125,-4.791259765625,1.495361328125
8.049999900000001,-9.581595420837402,1.5442601442337036,2.2194249629974365,-27.6947021484375,12.4359130859375,-5.889892578125
8.069999900000001,-9.500192642211914,1.9105730056762695,2.7030537128448486,-58.6700439453125,32.0892333984375,-6.9732666015625
8.0899999,-9.478644371032715,1.7741034030914307,2.516305923461914,-66.2689208984375,40.0543212890625,-0.8697509765625
8.1099999,-9.682151794433594,1.3335703611373901,1.625662922859192,-43.6553955078125,28.472900390625,-0.1678466796875
8.129999900000001,-9.904812812805176,0.7398083209991455,0.2777273952960968,-13.702392578125,9.613037109375,-1.7547607421875
8.149999900000001,-10.192116737365723,0.17717093229293823,-0.9528923034667969,-0.2593994140625,-3.6468505859375,-4.7607421875
8.1699999,-10.36449909210205,-0.2801215946674347,-1.824381709098816,4.791259765625,-8.4991455078125,-6.4544677734375
8.1899999,-10.402806282043457,-0.45250412821769714,-2.1954829692840576,16.754150390625,-17.9290771484375,2.7008056640625
8.2099999,-10.345345497131348,-0.5746083855628967,-2.0638017654418945,31.25,-31.890869140625,7.2174072265625
8.229999900000001,-10.156203269958496,-0.3974374830722809,-1.3910311460494995,35.33935546875,-36.1785888671875,3.2806396484375
8.2499999,-9.672574996948242,0.4836287498474121,1.3551181554794312,-17.730712890625,2.4566650390625,8.11767578125
8.2699999,-9.524134635925293,0.9528923034667969,2.387019157409668,-46.93603515625,22.552490234375,10.498046875
8.2899999,-9.552865028381348,1.256955862045288,2.652775526046753,-40.7257080078125,20.7366943359375,4.638671875
8.309999900000001,-9.751583099365234,1.3024457693099976,1.965639591217041,-22.7508544921875,12.2528076171875,-3.23486328125
8.3299999,-9.871294021606445,1.113303780555725,0.9145850539207458,-5.2337646484375,5.3253173828125,-3.0975341796875
8.3499999,-10.163386344909668,0.7086837291717529,-0.17956513166427612,13.1988525390625,-3.4027099609375,-5.950927734375
8.3699999,-10.204087257385254,0.3256114423274994,-0.8020575642585754,32.501220703125,-11.749267578125,-7.2021484375
8.389999900000001,-10.24239444732666,-0.019153613597154617,-0.9552865028381348,40.8172607421875,-16.4642333984375,-0.9918212890625
8.4099999,-10.189722061157227,-0.15562310814857483,-0.6536170840263367,34.0118408203125,-13.0157470703125,1.373291015625
8.4299999,-10.012551307678223,0.009576806798577309,-0.014365210197865963,21.3165283203125,-6.744384765625,1.77001953125
8.4499999,-9.919178009033203,0.40940847992897034,0.6392518281936646,6.1492919921875,0.6256103515625,0.4425048828125
8.469999900000001,-9.81143856048584,0.849941611289978,1.015141487121582,-6.683349609375,5.157470703125,-2.1820068359375
8.4899999,-9.854534149169922,1.1420341730117798,1.115697979927063,-9.1552734375,2.7923583984375,-4.5013427734375
8.5099999,-9.832986831665039,1.2689268589019775,1.091755986213684,-6.4697265625,-2.105712890625,-6.9122314453125
8.5299999,-9.837775230407715,1.113303780555725,1.0319008827209473,-14.1143798828125,2.105712890625,-9.5367431640625
8.549999900000001,-9.828198432922363,0.7876923680305481,1.05105459690094,-27.618408203125,13.824462890625,-6.622314453125
8.569999900000001,-9.80904483795166,0.3902548849582672,1.113303780555725,-31.18896484375,18.157958984375,-0.823974609375
8.5899999,-9.828198432922363,0.011971008032560349,0.9361328482627869,-25.7110595703125,17.730712890625,3.662109375
8.6099999,-9.950302124023438,-0.3280056416988373,0.3758896589279175,-10.1470947265625,15.1214599609375,5.340576171875
8.629999900000001,-10.070012092590332,-0.37828385829925537,-0.28969839215278625,18.1121826171875,0.8697509765625,6.0577392578125
8.649999900000001,-10.189722061157227,-0.2968810200691223,-1.0199298858642578,40.1763916015625,-16.7236328125,4.7607421875
8.6699999,-10.295066833496094,-0.043095629662275314,-1.41257905960083,46.356201171875,-25.87890625,-0.732421875
8.6899999,-10.249577522277832,0.3016694188117981,-1.2234370708465576,42.7703857421875,-27.496337890625,-3.021240234375
8.709999900000001,-10.098742485046387,0.5770025849342346,-0.5219359993934631,29.5867919921875,-24.1851806640625,0.48828125
8.729999900000001,-9.90241813659668,0.8307880163192749,0.4836287498474121,6.7138671875,-11.7645263671875,2.38037109375
8.7499999,-9.720458984375,1.0342950820922852,1.3958195447921753,-11.199951171875,2.74658203125,1.220703125
8.7699999,-9.694122314453125,1.170764684677124,1.9800047874450684,-16.7388916015625,8.7890625,-0.396728515625
8.7899999,-9.658209800720215,1.3239935636520386,2.250549554824829,-20.4620361328125,8.9874267578125,-5.0506591796875
8.809999900000001,-9.660603523254395,1.2641384601593018,2.121262788772583,-29.2510986328125,18.341064453125,-10.2386474609375
8.8299999,-9.68933391571045,1.091755986213684,1.9249382019042969,-35.7818603515625,26.3824462890625,-9.5367431640625
8.8499999,-9.68933391571045,0.6584054827690125,1.3838485479354858,-37.0330810546875,28.839111328125,-3.509521484375
8.8699999,-9.895236015319824,0.1412578970193863,0.5482721924781799,-22.2320556640625,22.2320556640625,0.518798828125
8.889999900000001,-10.089165687561035,-0.3064578175544739,-0.4620809257030487,9.7198486328125,5.6915283203125,1.8463134765625
8.9099999,-10.302249908447266,-0.5410895943641663,-1.3862427473068237,37.5823974609375,-14.251708984375,1.190185546875
8.9299999,-10.378864288330078,-0.47644615173339844,-1.7932571172714233,46.844482421875,-24.1241455078125,-2.01416015625
8.9499999,-10.323798179626465,-0.24899697303771973,-1.6041151285171509,39.73388671875,-24.5208740234375,0.7781982421875
8.969999900000001,-10.14902114868164,0.13407529890537262,-0.8810662031173706,22.552490234375,-19.0277099609375,3.1280517578125
8.9899999,-10.005369186401367,0.4644751250743866,0.031124621629714966,7.2021484375,-12.8936767578125,2.899169921875
9.0099999,-9.821015357971191,0.7996633648872375,0.9074024558067322,-0.6103515625,-5.55419921875,0.9765625
9.0299999,-9.761159896850586,1.05105459690094,1.6160861253738403,-10.7879638671875,0.9765625,0.274658203125
9.049999900000001,-9.63187313079834,1.2497732639312744,2.126051187515259,-25.054931640625,10.6353759765625,-2.8839111328125
9.069999900000001,-9.634267807006836,1.194706678390503,2.2385785579681396,-37.17041015625,22.2320556640625,-6.2255859375
9.0899999,-9.674968719482422,0.9959878921508789,1.9919757843017578,-37.8875732421875,26.5045166015625,-4.4403076171875
9.1099999,-9.775525093078613,0.524330198764801,1.213860273361206,-24.0936279296875,20.172119140625,-1.2664794921875
9.129999900000001,-10.005369186401367,0.047884032130241394,0.21308395266532898,1.3427734375,8.575439453125,-1.678466796875
9.149999900000001,-10.17296314239502,-0.3016694188117981,-0.730231523513794,27.9388427734375,-5.8746337890625,-0.5950927734375
9.1699999,-10.316615104675293,-0.5027823448181152,-1.3335703611373901,39.61181640625,-15.93017578125,1.190185546875
9.1899999,-10.314221382141113,-0.35913026332855225,-1.4700398445129395,40.435791015625,-19.71435546875,2.044677734375
9.209999900000001,-10.273519515991211,-0.090979665517807,-1.0869675874710083,34.759521484375,-21.3623046875,2.3345947265625
9.229999900000001,-10.055646896362305,0.35434186458587646,-0.4118026793003082,19.7906494140625,-18.6614990234375,0.6866455078125
9.2499999,-9.892841339111328,0.7493851184844971,0.47644615173339844,4.547119140625,-10.9100341796875,-1.7242431640625
9.2699999,-9.670180320739746,1.091755986213684,1.414973258972168,-9.9334716796875,-0.5645751953125,-1.678466796875
9.2899999,-9.57441234588623,1.2234370708465576,2.190694570541382,-30.09033203125,13.3056640625,-1.3580322265625
9.309999900000001,-9.519346237182617,1.2282254695892334,2.6024973392486572,-48.0499267578125,26.85546875,-3.0364990234375
9.3299999,-9.603142738342285,1.0558429956436157,2.52109432220459,-53.7109375,34.637451171875,-2.838134765625
9.3499999,-9.691728591918945,0.7541735172271729,1.8387469053268433,-43.4112548828125,31.6925048828125,-1.6632080078125
9.3699999,-9.895236015319824,0.33279404044151306,0.7110779285430908,-21.78955078125,22.979736328125,-1.9683837890625
9.389999900000001,-10.096348762512207,-0.07422025501728058,-0.5410895943641663,7.9803466796875,8.1787109375,-1.0986328125
9.4099999,-10.278307914733887,-0.3926490843296051,-1.556231141090393,32.40966796875,-12.603759765625,0.274658203125
9.4299999,-10.407594680786133,-0.4692635238170624,-1.9584569931030273,37.78076171875,-22.5677490234375,-1.800537109375
9.4499999,-10.393229484558105,-0.3208230137825012,-1.7932571172714233,31.097412109375,-19.1497802734375,0.244140625
9.469999900000001,-10.302249908447266,-0.021547814831137657,-1.1061211824417114,23.712158203125,-19.04296875,3.9825439453125
9.4899999,-10.129867553710938,0.3663128614425659,-0.19153612852096558,14.373779296875,-17.1051025390625,1.7547607421875
9.5099999,-10.002974510192871,0.5770025849342346,0.5650315880775452,3.9520263671875,-9.70458984375,-1.0986328125
9.5299999,-9.84495735168457,0.7398083209991455,1.2641384601593018,4.2877197265625,-6.072998046875,0.244140625
9.549999900000001,-9.75397777557373,0.7709329724311829,1.6903064250946045,-1.0833740234375,0.7476806640625,1.983642578125
9.569999900000001,-9.696516990661621,0.751779317855835,1.8315643072128296,-15.80810546875,10.7421875,1.800537109375
9.5899999,-9.708487510681152,0.7422025203704834,1.7046716213226318,-23.25439453125,14.1754150390625,0.67138671875
9.6099999,-9.78989028930664,0.6823474764823914,1.237802267074585,-19.7296142578125,11.77978515625,-0.42724609375
9.629999900000001,-9.909601211547852,0.5674257874488831,0.608127236366272,-8.72802734375,4.2572021484375,-2.50244140625
9.649999900000001,-10.017339706420898,0.45250412821769714,0.06703764945268631,2.685546875,-3.021240234375,-4.4708251953125
9.6699999,-10.146626472473145,0.3926490843296051,-0.19632454216480255,6.8511962890625,-4.180908203125,-5.2947998046875
9.6899999,-10.091560363769531,0.38546648621559143,-0.12928688526153564,5.2490234375,-0.8544921875,-7.1258544921875
9.709999900000001,-10.065223693847656,0.4405331015586853,0.17238251864910126,3.35693359375,3.2806396484375,-3.5552978515625
9.729999900000001,-9.916783332824707,0.48602294921875,0.5051765441894531,2.0904541015625,9.4451904296875,-5.5389404296875
9.7499999,-9.830592155456543,0.45010992884635925,0.7086837291717529,1.3275146484375,10.711669921875,-10.6964111328125
9.7699999,-9.816226959228516,0.33758243918418884,0.7206547260284424,4.8065185546875,10.498046875,-10.589599609375
9.7899999,-9.859322547912598,0.1628057211637497,0.5817909836769104,12.451171875,6.0272216796875,-8.6517333984375
9.809999900000001,-9.928754806518555,-0.038307227194309235,0.35673606395721436,19.1802978515625,2.685546875,-7.4310302734375
9.8299999,-9.995792388916016,-0.21308395266532898,0.15322890877723694,23.62060546875,1.6021728515625,-6.0577392578125
9.8499999,-10.019734382629395,-0.3734954595565796,0.07661445438861847,26.7333984375,-0.1220703125,-2.5634765625
9.8699999,-10.014945983886719,-0.49320554733276367,0.10295066982507706,26.1383056640625,0.1373291015625,3.0975341796875
9.889999900000001,-10.014945983886719,-0.5578489899635315,0.16519992053508759,24.2462158203125,2.532958984375,7.9803466796875
9.9099999,-10.02691650390625,-0.5674257874488831,0.21547815203666687,26.5350341796875,1.922607421875,11.2762451171875
9.9299999,-10.156203269958496,-0.4836287498474121,0.17956513166427612,31.982421875,-1.4801025390625,13.3056640625
9.9499999,-10.338163375854492,-0.42856210470199585,0.08619125932455063,36.8499755859375,-4.3792724609375,13.1683349609375
9.969999900000001,-10.699687004089355,-0.3256114423274994,-0.002394201699644327,40.4815673828125,-6.591796875,16.357421875
9.9899999,-11.037269592285156,-0.24899697303771973,-0.08379705995321274,42.3583984375,-8.30078125,20.8282470703125
10.0099999,-11.164162635803223,-0.06224924325942993,-0.15322890877723694,44.464111328125,-11.627197265625,21.881103515625
10.0299999,-11.45146656036377,0.30885201692581177,-0.2298433631658554,47.119140625,-16.17431640625,19.256591796875
10.049999900000001,-11.525687217712402,0.730231523513794,-0.27054479718208313,45.8526611328125,-26.5350341796875,5.0811767578125
10.069999900000001,-11.741165161132812,1.2880805730819702,-0.2992752194404602,38.543701171875,-26.5350341796875,-1.2969970703125
10.0899999,-12.198457717895508,1.7501614093780518,-0.15562310814857483,30.426025390625,-35.7818603515625,-3.7078857421875
10.1099999,-12.315773963928223,2.073378562927246,0.07422025501728058,20.8282470703125,-74.3408203125,-24.627685546875
10.129999900000001,-12.200851440429688,2.1811177730560303,0.4692635238170624,13.24462890625,-85.235595703125,-40.6646728515625
10.149999900000001,-11.587936401367188,2.0685901641845703,0.9696516990661621,7.659912109375,-67.1234130859375,-42.1295166015625
10.1699999,-10.54406452178955,1.7812861204147339,1.4700398445129395,2.166748046875,-39.3829345703125,-39.306640625
10.1899999,-9.385271072387695,1.4077905416488647,1.8483237028121948,2.777099609375,-12.481689453125,-35.64453125
10.209999900000001,-8.391676902770996,1.039083480834961,2.0254945755004883,-1.0528564453125,2.105712890625,-31.55517578125
10.229999900000001,-7.706935405731201,0.7445967197418213,1.9943699836730957,0.30517578125,3.0364990234375,-27.3590087890625
10.2499999,-7.357381820678711,0.5363011956214905,1.8195933103561401,4.3792724609375,4.150390625,-25.848388671875
10.2699999,-7.2568254470825195,0.3998316824436188,1.599326729774475,7.50732421875,7.232666015625,-27.1148681640625
10.2899999,-7.3023152351379395,0.3232172429561615,1.4173674583435059,10.772705078125,5.7830810546875,-24.749755859375
10.309999900000001,-7.41484260559082,0.23942017555236816,1.2880805730819702,10.528564453125,1.0833740234375,-18.524169921875
10.3299999,-7.5968017578125,0.12449848651885986,1.2258312702178955,8.9111328125,-3.509521484375,-13.7176513671875
10.3499999,-7.884106159210205,0.038307227194309235,1.2449848651885986,10.4217529296875,-6.9427490234375,-14.6331787109375
10.3699999,-8.226476669311523,-0.05985504388809204,1.314416766166687,13.214111328125,-6.317138671875,-20.8587646484375
10.389999900000001,-8.619126319885254,-0.1628057211637497,1.460463047027588,13.153076171875,-6.927490234375,-23.6053466796875
10.4099999,-9.016563415527344,-0.2801215946674347,1.6519991159439087,11.6424560546875,-7.659912109375,-22.9949951171875
10.4299999,-9.373299598693848,-0.43095630407333374,1.8794482946395874,9.9334716796875,-5.3558349609375,-26.611328125
10.4499999,-9.610325813293457,-0.6320692300796509,2.126051187515259,6.3629150390625,-2.1514892578125,-31.402587890625
10.469999900000001,-9.739612579345703,-0.8475474119186401,2.3271639347076416,-0.3814697265625,3.7841796875,-29.998779296875
10.4899999,-9.746794700622559,-1.0558429956436157,2.4444799423217773,-7.415771484375,12.2222900390625,-26.85546875
10.5099999,-9.653421401977539,-1.2832920551300049,2.4372973442077637,-12.603759765625,19.561767578125,-27.4505615234375
10.5299999,-9.579200744628906,-1.4700398445129395,2.2673089504241943,-16.082763671875,21.78955078125,-26.1993408203125
10.549999900000001,-9.536105155944824,-1.6280571222305298,1.9967641830444336,-16.4794921875,15.0146484375,-21.2554931640625
10.569999900000001,-9.502586364746094,-1.7597382068634033,1.6879122257232666,-15.2587890625,7.2479248046875,-16.0980224609375
10.5899999,-9.464279174804688,-1.8722656965255737,1.41257905960083,-14.4500732421875,4.913330078125,-10.3607177734375
10.6099999,-9.428366661071777,-1.968033790588379,1.1827356815338135,-12.7410888671875,6.195068359375,-2.4871826171875
10.629999900000001,-9.390059471130371,-2.056619167327881,1.01753568649292,-7.1563720703125,3.72314453125,5.2337646484375
10.649999900000001,-9.428366661071777,-2.118868589401245,0.912190854549408,-0.30517578125,-1.434326171875,9.94873046875
10.6699999,-9.550470352172852,-2.1547815799713135,0.8690952062606812,3.631591796875,-2.655029296875,10.1470947265625
10.6899999,-9.744400978088379,-2.1499931812286377,0.9313444495201111,4.8828125,-2.2430419921875,8.7127685546875
10.709999900000001,-9.979032516479492,-2.10210919380188,1.0678139925003052,3.8909912109375,0.54931640625,8.1939697265625
10.729999900000001,-10.20648193359375,-2.03507137298584,1.2282254695892334,0.7781982421875,4.3182373046875,7.4920654296875
10.7499999,-10.412383079528809,-1.946485996246338,1.359906554222107,-3.1280517578125,4.0130615234375,5.157470703125
10.7699999,-10.563218116760254,-1.8483237028121948,1.4053963422775269,-5.218505859375,3.0670166015625,-0.030517578125
10.7899999,-10.627861022949219,-1.764526605606079,1.3335703611373901,-5.035400390625,3.936767578125,-5.06591796875
10.809999900000001,-10.56800651550293,-1.7118542194366455,1.170764684677124,-4.0435791015625,6.9427490234375,-6.89697265625
10.8299999,-10.412383079528809,-1.7046716213226318,0.9433154463768005,-1.2664794921875,12.9547119140625,-6.6375732421875
10.8499999,-10.18493366241455,-1.721431016921997,0.727837324142456,4.2724609375,13.4429931640625,-5.67626953125
10.8699999,-9.988609313964844,-1.7286136150360107,0.586579442024231,10.55908203125,8.4075927734375,-4.7607421875
10.889999900000001,-9.830592155456543,-1.702277421951294,0.569819986820221,15.5029296875,3.0517578125,-5.7525634765625
10.9099999,-9.715670585632324,-1.6328455209732056,0.6967126727104187,17.9290771484375,-0.5035400390625,-6.4544677734375
10.9299999,-9.627084732055664,-1.5131354331970215,0.9361328482627869,17.059326171875,-3.60107421875,-3.1890869140625
10.9499999,-9.557653427124023,-1.3623007535934448,1.2449848651885986,12.9241943359375,-5.6915283203125,1.64794921875
10.969999900000001,-9.509769439697266,-1.1899182796478271,1.5490485429763794,6.89697265625,-4.6234130859375,4.94384765625
10.9899999,-9.50737476348877,-1.015141487121582,1.7956513166427612,0.7476806640625,-0.6561279296875,5.5694580078125
11.0099999,-9.552865028381348,-0.8738836050033569,1.944091796875,-3.7841796875,2.9754638671875,5.0506591796875
11.0299999,-9.62947940826416,-0.7757213711738586,1.9823989868164062,-6.8511962890625,3.4942626953125,6.195068359375
11.049999900000001,-9.72285270690918,-0.7422025203704834,1.9273324012756348,-9.0789794921875,2.105712890625,7.965087890625
11.069999900000001,-9.945513725280762,-0.7589619159698486,1.8052281141281128,-9.9334716796875,2.7313232421875,7.6904296875
11.0899999,-10.26394271850586,-0.8595184087753296,1.6735470294952393,-8.4075927734375,-2.3651123046875,1.9683837890625
11.1099999,-10.448296546936035,-0.9768342971801758,1.53707754611969,-6.7291259765625,-7.7667236328125,-4.608154296875
11.129999900000001,-10.654197692871094,-1.1037269830703735,1.4269442558288574,-4.08935546875,-0.3662109375,2.8533935546875
11.149999900000001,-10.560823440551758,-1.1803414821624756,1.3431471586227417,-1.2664794921875,0.274658203125,4.913330078125
11.1699999,-10.376470565795898,-1.1899182796478271,1.2952631711959839,0.42724609375,-2.1820068359375,1.9073486328125
11.1899999,-10.153809547424316,-1.1492167711257935,1.2952631711959839,0.30517578125,-1.922607421875,-0.091552734375
11.209999900000001,-10.002974510192871,-1.0965443849563599,1.338358759880066,-1.0528564453125,3.082275390625,-0.0152587890625
11.229999900000001,-9.950302124023438,-1.0558429956436157,1.3886369466781616,-1.922607421875,4.94384765625,-0.5340576171875
11.2499999,-9.93593692779541,-1.0462661981582642,1.4317326545715332,-1.5716552734375,-4.45556640625,-1.2054443359375
11.2699999,-9.904812812805176,-1.070208191871643,1.45806884765625,-0.7476806640625,-13.8397216796875,1.007080078125
11.2899999,-9.792284965515137,-1.1085153818130493,1.4676456451416016,0.274658203125,-15.1214599609375,5.5694580078125
11.309999900000001,-9.567230224609375,-1.1516109704971313,1.4867992401123047,1.15966796875,-14.862060546875,9.979248046875
11.3299999,-9.332598686218262,-1.1540051698684692,1.501164436340332,1.2054443359375,-10.7879638671875,11.566162109375
11.3499999,-9.155426979064941,-1.1204863786697388,1.4915876388549805,0.396728515625,-0.42724609375,8.36181640625
11.3699999,-9.078812599182129,-1.0654197931289673,1.4676456451416016,-1.4495849609375,6.622314453125,5.5084228515625
11.389999900000001,-9.17936897277832,-0.9959878921508789,1.4389152526855469,-4.0740966796875,7.5836181640625,6.8359375
11.4099999,-9.576807022094727,-0.9648633003234863,1.4053963422775269,-6.77490234375,5.9661865234375,2.532958984375
11.4299999,-9.916783332824707,-0.9983820915222168,1.3718775510787964,-9.0179443359375,3.0670166015625,-5.1727294921875
11.4499999,-10.304644584655762,-1.0271124839782715,1.316810965538025,-7.7972412109375,3.997802734375,-0.2593994140625
11.469999900000001,-10.441113471984863,-1.1252747774124146,1.2617442607879639,-4.4097900390625,2.74658203125,-1.0833740234375
11.4899999,-10.357316970825195,-1.1994950771331787,1.2066776752471924,-2.3040771484375,0.7171630859375,-0.2288818359375
11.5099999,-10.192116737365723,-1.290474772453308,1.1994950771331787,-1.3885498046875,1.3885498046875,4.0130615234375
11.5299999,-9.840168952941895,-1.3670891523361206,1.2449848651885986,-0.1373291015625,0.5035400390625,6.04248046875
11.549999900000001,-9.454702377319336,-1.3718775510787964,1.2210428714752197,0.3509521484375,19.8822021484375,7.2479248046875
11.569999900000001,-9.44991397857666,-1.3287819623947144,1.2282254695892334,3.3111572265625,32.1044921875,14.617919921875
11.5899999,-9.390059471130371,-1.2689268589019775,1.1348515748977661,4.5166015625,-9.033203125,7.5531005859375
11.6099999,-9.732429504394531,-1.173158884048462,1.1540051698684692,4.302978515625,-11.9171142578125,-0.6103515625
11.629999900000001,-9.983820915222168,-1.115697979927063,1.2018892765045166,5.2490234375,-7.3089599609375,6.9580078125
11.649999900000001,-10.050858497619629,-1.048660397529602,1.3479355573654175,7.4005126953125,-4.5318603515625,11.0015869140625
11.6699999,-10.019734382629395,-0.9672574996948242,1.5107412338256836,8.0718994140625,-2.410888671875,8.4381103515625
11.6899999,-9.911994934082031,-0.8906430602073669,1.6543933153152466,6.5765380859375,0.18310546875,6.2103271484375
11.709999900000001,-9.773131370544434,-0.8451532125473022,1.7549498081207275,3.3721923828125,3.387451171875,8.1329345703125
11.729999900000001,-9.516951560974121,-0.8140285611152649,1.802833914756775,-2.2125244140625,7.38525390625,10.9405517578125
11.7499999,-9.354146003723145,-0.8331822156906128,1.8171991109848022,-8.636474609375,8.087158203125,17.39501953125
11.7699999,-9.167398452758789,-0.912190854549408,1.7908629179000854,-13.275146484375,11.8255615234375,12.603759765625
11.7899999,-9.428366661071777,-0.9720458984375,1.764526605606079,-15.56396484375,11.474609375,11.65771484375
11.809999900000001,-10.247182846069336,-1.1324573755264282,1.501164436340332,-13.1683349609375,15.1824951171875,27.923583984375
11.8299999,-10.520122528076172,-1.0558429956436157,1.237802267074585,-6.500244140625,11.6119384765625,29.8614501953125
11.8499999,-10.448296546936035,-0.8331822156906128,0.8906430602073669,0.48828125,7.5225830078125,25.20751953125
11.8699999,-10.18493366241455,-0.48602294921875,0.5770025849342346,7.5836181640625,3.2196044921875,21.1334228515625
11.889999900000001,-9.801861763000488,-0.19393034279346466,0.45010992884635925,11.7950439453125,-2.7313232421875,18.310546875
11.9099999,-9.75397777557373,0.10534487664699554,0.545877993106842,8.4075927734375,-2.0904541015625,18.1121826171875
11.9299999,-9.737217903137207,0.19632454216480255,0.8164227604866028,1.434326171875,3.6468505859375,14.3585205078125
11.9499999,-9.861717224121094,0.2801215946674347,1.0965443849563599,-0.1678466796875,6.8511962890625,17.5628662109375
11.969999900000001,-10.02452278137207,0.33518823981285095,1.3623007535934448,3.90625,5.523681640625,16.54052734375
11.9899999,-9.93593692779541,0.3926490843296051,1.5107412338256836,3.0059814453125,8.5906982421875,11.6729736328125
12.0099999,-9.9000244140625,0.5626373887062073,1.5753847360610962,-1.89208984375,14.6636962890625,9.1400146484375
12.0299999,-9.485827445983887,0.5674257874488831,1.6543933153152466,-5.3253173828125,14.8468017578125,5.462646484375
12.049999900000001,-8.971074104309082,0.6009446382522583,1.6927006244659424,-14.7552490234375,18.280029296875,12.725830078125
12.069999900000001,-9.100360870361328,0.5817909836769104,1.7836803197860718,-27.4810791015625,28.4423828125,13.2293701171875
12.0899999,-9.287108421325684,0.4620809257030487,1.7693150043487549,-37.59765625,36.6973876953125,-2.5634765625
12.1099999,-10.012551307678223,0.4812345504760742,1.460463047027588,-37.2467041015625,39.3829345703125,11.71875
12.129999900000001,-10.699687004089355,0.4405331015586853,0.8930372595787048,-17.7459716796875,25.5126953125,10.80322265625
12.149999900000001,-10.812214851379395,0.4381389021873474,0.043095629662275314,4.1351318359375,15.0299072265625,0.42724609375
12.1699999,-10.733205795288086,0.5027823448181152,-0.7374141216278076,17.608642578125,8.5601806640625,-5.584716796875
12.1899999,-10.577583312988281,0.5363011956214905,-1.139639973640442,20.355224609375,-3.7078857421875,-10.223388671875
12.209999900000001,-10.383652687072754,0.5554547905921936,-1.1276689767837524,12.0849609375,-9.3841552734375,-7.01904296875
12.229999900000001,-10.230423927307129,0.47884035110473633,-0.8092401623725891,0.396728515625,-5.2337646484375,-4.5166015625
12.2499999,-10.108319282531738,0.33039984107017517,-0.35673606395721436,-3.4942626953125,-4.2877197265625,-5.31005859375
12.2699999,-9.998186111450195,0.12449848651885986,0.047884032130241394,-0.7171630859375,-9.27734375,-2.5634765625
12.289999900000002,-9.938331604003906,-0.05027823522686958,0.31603461503982544,1.1749267578125,-11.5966796875,2.13623046875
12.309999900000001,-9.940725326538086,-0.15801730751991272,0.507570743560791,1.953125,-10.1165771484375,3.326416015625
12.3299999,-9.921571731567383,-0.19153612852096558,0.6775590777397156,1.3885498046875,-8.8043212890625,2.99072265625
12.3499999,-9.911994934082031,-0.1173158809542656,0.8212111592292786,-2.74658203125,-8.1024169921875,5.2642822265625
12.3699999,-9.895236015319824,0.031124621629714966,0.9433154463768005,-5.096435546875,-6.439208984375,6.4239501953125
12.389999900000001,-9.888052940368652,0.23702596127986908,1.0678139925003052,-2.349853515625,-2.3345947265625,3.60107421875
12.4099999,-9.890447616577148,0.4381389021873474,1.094150185585022,-1.15966796875,1.2664794921875,-0.8697509765625
12.4299999,-9.9000244140625,0.6057330369949341,1.0462661981582642,-1.678466796875,0.5035400390625,-2.2735595703125
12.4499999,-9.914389610290527,0.7110779285430908,0.9457096457481384,-1.0986328125,-0.6866455078125,-2.716064453125
12.469999900000001,-9.93593692779541,0.7374141216278076,0.849941611289978,-1.1138916015625,0.8087158203125,-6.3323974609375
12.4899999,-9.952696800231934,0.6560112833976746,0.727837324142456,-3.082275390625,2.4566650390625,-8.5296630859375
12.5099999,-9.962273597717285,0.507570743560791,0.6512228846549988,-0.762939453125,0.1220703125,-7.2021484375
12.5299999,-9.96945571899414,0.2968810200691223,0.608127236366272,4.730224609375,-2.105712890625,-5.67626953125
12.549999900000001,-9.983820915222168,0.09576806426048279,0.6224924325942993,5.9814453125,-0.5645751953125,-5.2032470703125
12.569999900000001,-9.971850395202637,-0.07661445438861847,0.6631938815116882,2.899169921875,1.6326904296875,-3.90625
12.5899999,-9.945513725280762,-0.19153612852096558,0.7134721279144287,2.410888671875,1.7852783203125,-0.5645751953125
12.6099999,-9.95748519897461,-0.2322375625371933,0.7374141216278076,5.4473876953125,0.579833984375,1.64794921875
12.629999900000001,-9.950302124023438,-0.19871874153614044,0.727837324142456,4.57763671875,0.1983642578125,1.9683837890625
12.649999900000001,-9.93354320526123,-0.038307227194309235,0.7757213711738586,-1.5869140625,1.4495849609375,2.50244140625
12.6699999,-9.78989028930664,0.1388636976480484,0.9265560507774353,-11.8255615234375,4.547119140625,3.5858154296875
12.6899999,-9.75397777557373,0.363918662071228,1.1492167711257935,-29.3121337890625,12.481689453125,3.96728515625
12.709999900000001,-9.519346237182617,0.47405192255973816,1.314416766166687,-44.7235107421875,18.5089111328125,3.082275390625
12.729999900000001,-9.57201862335205,0.42856210470199585,1.2090718746185303,-45.6085205078125,20.050048828125,5.67626953125
12.7499999,-9.66539192199707,0.26096799969673157,0.9193734526634216,-28.4881591796875,12.9241943359375,7.8582763671875
12.7699999,-9.859322547912598,-0.011971008032560349,0.38067805767059326,-4.39453125,8.0413818359375,3.96728515625
12.789999900000002,-10.199298858642578,-0.28730419278144836,-0.24420857429504395,18.707275390625,2.410888671875,4.425048828125
12.809999900000001,-10.400412559509277,-0.43095630407333374,-0.7852981686592102,38.330078125,-12.3138427734375,5.06591796875
12.8299999,-10.548852920532227,-0.33279404044151306,-1.113303780555725,51.33056640625,-22.5982666015625,4.4403076171875
12.8499999,-10.472238540649414,-0.028730420395731926,-0.993593692779541,52.3223876953125,-28.717041015625,2.166748046875
12.8699999,-10.266336441040039,0.47405192255973816,-0.3232172429561615,32.71484375,-23.7884521484375,-3.2806396484375
12.889999900000001,-9.974244117736816,0.9217676520347595,0.730231523513794,-2.3956298828125,-7.50732421875,-3.6163330078125
12.9099999,-9.746794700622559,1.2066776752471924,1.699883222579956,-29.0069580078125,10.467529296875,-0.4425048828125
12.9299999,-9.622296333312988,1.2689268589019775,2.406172752380371,-33.538818359375,12.3748779296875,0.518798828125
12.9499999,-9.634267807006836,1.039083480834961,2.4157495498657227,-37.0941162109375,18.1121826171875,-4.82177734375
12.969999900000001,-9.727641105651855,0.6655880808830261,1.8626888990402222,-30.609130859375,20.416259765625,-2.99072265625
12.9899999,-9.914389610290527,0.21787235140800476,0.950498104095459,-10.8642578125,9.185791015625,1.739501953125
13.0099999,-10.091560363769531,-0.2322375625371933,-0.09576806426048279,10.833740234375,-6.3934326171875,1.1138916015625
13.0299999,-10.26394271850586,-0.43335050344467163,-0.8954314589500427,23.9715576171875,-16.54052734375,2.25830078125
13.049999900000001,-10.278307914733887,-0.33518823981285095,-1.0199298858642578,24.932861328125,-24.6124267578125,1.3275146484375
13.069999900000001,-10.103530883789062,0.031124621629714966,-0.35673606395721436,9.46044921875,-17.0440673828125,-4.08935546875
13.0899999,-9.840168952941895,0.49320554733276367,0.7661445140838623,-24.1851806640625,2.6702880859375,-0.8392333984375
13.1099999,-9.557653427124023,0.8068459630012512,1.824381709098816,-61.614990234375,24.1546630859375,2.8533935546875
13.129999900000001,-9.083600997924805,0.7757213711738586,2.1811177730560303,-67.474365234375,26.4739990234375,6.378173828125
13.149999900000001,-8.753201484680176,0.47644615173339844,1.7908629179000854,-33.905029296875,13.153076171875,10.2081298828125
13.1699999,-8.33182144165039,-0.16519992053508759,0.7158663272857666,8.8653564453125,1.5106201171875,9.27734375
13.1899999,-8.123526573181152,-0.7422025203704834,-0.2944868206977844,52.5665283203125,-13.8702392578125,15.411376953125
13.209999900000001,-8.51138687133789,-1.036689281463623,-0.8355764150619507,84.747314453125,-22.552490234375,15.533447265625
13.229999900000001,-8.923190116882324,-0.7972691655158997,-0.5913678407669067,85.418701171875,-20.81298828125,17.120361328125
13.2499999,-9.615114212036133,0.19153612852096558,0.3495534360408783,55.3131103515625,-2.166748046875,17.2576904296875
13.2699999,-9.792284965515137,1.4700398445129395,1.599326729774475,4.9591064453125,21.42333984375,0.3204345703125
13.289999900000002,-10.141838073730469,2.52109432220459,2.279279947280884,-43.2281494140625,43.8690185546875,-12.7105712890625
13.309999900000001,-10.371682167053223,2.808398485183716,2.3511061668395996,-57.6629638671875,37.5213623046875,-16.998291015625
13.3299999,-11.159374237060547,2.3726539611816406,1.4652514457702637,-61.248779296875,23.0865478515625,3.7078857421875
13.3499999,-11.623848915100098,1.2880805730819702,0.35913026332855225,-70.73974609375,9.674072265625,11.1236572265625
13.3699999,-12.11705493927002,-0.021547814831137657,-0.8571242094039917,-61.58447265625,-0.2899169921875,19.3328857421875
13.389999900000001,-11.882423400878906,-0.7876923680305481,-1.2761094570159912,-22.0947265625,-16.5252685546875,29.754638671875
13.4099999,-11.257535934448242,-0.912190854549408,-0.9768342971801758,-8.636474609375,-17.059326171875,37.0635986328125
13.4299999,-10.618284225463867,-0.36152446269989014,-0.395043283700943,-32.9742431640625,6.3018798828125,20.99609375
13.4499999,-10.053253173828125,0.4668693244457245,0.38067805767059326,-31.31103515625,8.8653564453125,-6.378173828125
13.469999900000001,-9.636661529541016,1.0678139925003052,1.0007762908935547,-1.77001953125,-6.9122314453125,-6.744384765625
13.4899999,-9.5624418258667,1.161187767982483,1.0749965906143188,-2.838134765625,2.838134765625,16.8914794921875
13.5099999,-9.509769439697266,1.048660397529602,1.0414776802062988,-17.059326171875,11.5203857421875,22.674560546875
13.5299999,-9.560047149658203,1.1037269830703735,0.8212111592292786,-14.404296875,4.364013671875,7.781982421875
13.549999900000001,-9.679757118225098,1.4437036514282227,0.47165772318840027,-9.21630859375,-1.8463134765625,-9.1705322265625
13.569999900000001,-9.813833236694336,1.723825216293335,0.2082955539226532,-14.434814453125,-3.96728515625,-19.7296142578125
13.5899999,-9.940725326538086,1.7381904125213623,0.12689268589019775,-22.216796875,-0.9002685546875,-17.181396484375
13.6099999,-10.041281700134277,1.292868971824646,0.19393034279346466,-18.6767578125,2.50244140625,-5.0506591796875
13.629999900000001,-10.101137161254883,0.6440402865409851,0.3423708379268646,-9.8724365234375,-0.06103515625,10.1165771484375
13.649999900000001,-10.055646896362305,0.24181437492370605,0.5267243981361389,-4.6844482421875,-1.6021728515625,16.8304443359375
13.6699999,-10.019734382629395,0.17956513166427612,0.6129156351089478,-3.4637451171875,4.7149658203125,5.9967041015625
13.6899999,-9.93593692779541,0.43335050344467163,0.6153098344802856,0.8544921875,7.1868896484375,-3.9520263671875
13.709999900000001,-9.880870819091797,0.8595184087753296,0.5578489899635315,1.373291015625,-0.1068115234375,0.3509521484375
13.729999900000001,-9.84495735168457,1.113303780555725,0.40940847992897034,-6.317138671875,-3.35693359375,2.4261474609375
13.7499999,-9.837775230407715,1.2258312702178955,0.3423708379268646,-11.688232421875,-0.1220703125,-3.8604736328125
13.7699999,-9.854534149169922,1.2210428714752197,0.33518823981285095,-6.77490234375,1.800537109375,-6.3934326171875
13.789999900000002,-9.856928825378418,1.0654197931289673,0.43095630407333374,0.152587890625,-0.701904296875,-4.8980712890625
13.809999900000001,-9.9000244140625,0.8451532125473022,0.45250412821769714,-1.9683837890625,0.30517578125,-0.396728515625
13.8299999,-9.914389610290527,0.7709329724311829,0.5051765441894531,-8.026123046875,1.922607421875,4.974365234375
13.8499999,-9.919178009033203,0.871489405632019,0.4692635238170624,-15.533447265625,0.8697509765625,3.814697265625
13.8699999,-9.897629737854004,1.0965443849563599,0.4644751250743866,-25.238037109375,-1.4190673828125,-4.974365234375
13.889999900000001,-9.895236015319824,1.3072341680526733,0.5315127968788147,-35.70556640625,0.396728515625,-12.451171875
13.9099999,-9.895236015319824,1.2976573705673218,0.689530074596405,-40.924072265625,7.720947265625,-10.19287109375
13.9299999,-9.892841339111328,1.0223240852355957,0.7158663272857666,-40.1458740234375,12.908935546875,-2.105712890625
13.9499999,-9.926360130310059,0.6655880808830261,0.5722141861915588,-30.9906005859375,6.5155029296875,4.9285888671875
13.969999900000001,-9.943120002746582,0.47884035110473633,0.38546648621559143,-14.678955078125,-5.5084228515625,4.1656494140625
13.9899999,-9.967061996459961,0.5147533416748047,0.26096799969673157,-3.6468505859375,-5.0201416015625,-5.79833984375
14.0099999,-9.959878921508789,0.6488286852836609,0.272938996553421,-2.044677734375,3.11279296875,-15.19775390625
14.0299999,-9.95748519897461,0.7541735172271729,0.4118026793003082,2.62451171875,2.25830078125,-15.869140625
14.049999900000001,-9.931148529052734,0.6655880808830261,0.49320554733276367,6.2408447265625,-1.9989013671875,-5.950927734375
14.069999900000001,-9.962273597717285,0.5171475410461426,0.4884171485900879,4.364013671875,-1.4801025390625,1.983642578125
14.0899999,-9.974244117736816,0.42616790533065796,0.4908113479614258,-2.2125244140625,-1.7852783203125,3.8909912109375
14.1099999,-9.983820915222168,0.5410895943641663,0.5267243981361389,-7.87353515625,-1.556396484375,0.7476806640625
14.129999900000001,-9.979032516479492,0.6943184733390808,0.586579442024231,-7.781982421875,0.4119873046875,-5.7525634765625
14.149999900000001,-9.93593692779541,0.9074024558067322,0.6512228846549988,-6.2103271484375,2.8076171875,-8.1787109375
14.1699999,-9.895236015319824,0.9696516990661621,0.7134721279144287,-8.0718994140625,3.173828125,-7.232666015625
14.1899999,-9.86650562286377,0.8834604024887085,0.7230489253997803,-18.1427001953125,5.06591796875,-3.4637451171875
14.209999900000001,-9.890447616577148,0.7637503147125244,0.6943184733390808,-31.829833984375,7.0953369140625,2.4261474609375
14.229999900000001,-9.90241813659668,0.5578489899635315,0.689530074596405,-40.313720703125,6.7901611328125,5.126953125
14.2499999,-9.93354320526123,0.3926490843296051,0.6512228846549988,-45.623779296875,9.1552734375,7.7362060546875
14.2699999,-9.962273597717285,0.3280056416988373,0.4429273009300232,-45.83740234375,11.41357421875,12.2222900390625
14.289999900000002,-9.983820915222168,0.40222588181495667,0.2537853717803955,-30.09033203125,1.708984375,10.7421875
14.309999900000001,-9.964667320251465,0.5339069962501526,0.181959331035614,-6.3934326171875,-8.23974609375,-1.2969970703125
14.3299999,-9.959878921508789,0.5793967843055725,0.23942017555236816,10.6353759765625,0.9765625,-10.0250244140625
14.3499999,-9.895236015319824,0.4596867263317108,0.5626373887062073,31.036376953125,11.077880859375,-5.5084228515625
14.3699999,-9.849745750427246,0.24420857429504395,0.8164227604866028,53.4515380859375,13.6871337890625,0.762939453125
14.389999900000001,-9.861717224121094,0.363918662071228,0.8762778043746948,63.96484375,13.153076171875,-1.6632080078125
14.4099999,-9.883264541625977,0.4429273009300232,0.6392518281936646,58.349609375,10.6353759765625,-12.939453125
14.4299999,-9.981427192687988,0.7852981686592102,0.21308395266532898,50.018310546875,5.645751953125,-16.2811279296875
14.4499999,-10.036493301391602,0.9145850539207458,-0.19153612852096558,44.37255859375,-5.2490234375,-9.6588134765625
14.469999900000001,-10.093954086303711,0.8236053586006165,-0.43335050344467163,32.257080078125,-10.68115234375,-6.591796875
14.4899999,-10.11550235748291,0.5793967843055725,-0.42616790533065796,24.4293212890625,-7.99560546875,-4.486083984375
14.5099999,-10.067618370056152,0.30885201692581177,-0.1604115068912506,21.3470458984375,-5.9814453125,3.7994384765625
14.5299999,-10.034099578857422,0.08379705995321274,0.09576806426048279,20.7366943359375,-3.8604736328125,11.749267578125
14.549999900000001,-9.986215591430664,0.12210428714752197,0.21547815203666687,24.5361328125,-5.096435546875,11.2457275390625
14.569999900000001,-10.005369186401367,0.37828385829925537,0.09816227108240128,26.6571044921875,-13.1988525390625,1.5106201171875
14.5899999,-10.050858497619629,0.6967126727104187,-0.0694318488240242,29.84619140625,-24.4903564453125,-7.99560546875
14.6099999,-10.072406768798828,0.9457096457481384,-0.12689268589019775,34.8968505859375,-31.3262939453125,-5.035400390625
14.629999900000001,-9.99339771270752,0.9672574996948242,0.33039984107017517,33.203125,-22.0184326171875,3.5247802734375
14.649999900000001,-9.861717224121094,0.8475474119186401,0.8954314589500427,15.472412109375,0.244140625,4.6234130859375
14.6699999,-9.742006301879883,0.4884171485900879,1.3455413579940796,-0.2899169921875,13.671875,8.2855224609375
14.6899999,-9.701305389404297,0.2944868206977844,1.4987702369689941,4.8828125,4.5013427734375,19.2413330078125
14.709999900000001,-9.727641105651855,0.36152446269989014,1.2832920551300049,4.9285888671875,-1.1749267578125,24.3377685546875
14.729999900000001,-9.840168952941895,0.730231523513794,0.8140285611152649,-6.683349609375,4.913330078125,9.033203125
14.7499999,-9.861717224121094,1.3479355573654175,0.6129156351089478,-4.1351318359375,0.1220703125,-9.979248046875
14.7699999,-9.897629737854004,1.7094600200653076,0.42856210470199585,-0.701904296875,-0.9613037109375,-16.4031982421875
14.789999900000002,-9.907206535339355,1.5514427423477173,0.4429273009300232,-0.67138671875,3.5858154296875,-10.92529296875
14.809999900000001,-9.897629737854004,1.0558429956436157,0.5793967843055725,0.9307861328125,6.34765625,0.9918212890625
14.8299999,-9.911994934082031,0.4884171485900879,0.6129156351089478,6.256103515625,10.6353759765625,8.331298828125
14.8499999,-9.95748519897461,0.12210428714752197,0.5410895943641663,22.3236083984375,6.3018798828125,4.5318603515625
14.8699999,-10.038887977600098,0.1149216815829277,0.35913026332855225,49.957275390625,-4.69970703125,-3.021240234375
14.889999900000001,-10.101137161254883,0.3974374830722809,0.17238251864910126,65.7501220703125,-7.8887939453125,-7.7972412109375
14.9099999,-10.247182846069336,0.545877993106842,-0.06464344263076782,66.0552978515625,-6.6375732421875,-10.9100341796875
14.9299999,-10.228029251098633,0.6823474764823914,0.002394201699644327,65.887451171875,-12.9547119140625,-8.026123046875
14.9499999,-10.055646896362305,0.751779317855835,0.35434186458587646,59.1278076171875,-15.13671875,2.685546875
14.969999900000001,-9.986215591430664,0.7876923680305481,0.6177040338516235,39.6270751953125,7.843017578125,2.9754638671875
14.9899999,-9.840168952941895,0.993593692779541,1.0271124839782715,23.223876953125,11.2762451171875,-5.0811767578125
15.0099999,-9.93593692779541,1.1659762859344482,1.1085153818130493,16.6473388671875,2.3956298828125,-6.7596435546875
15.0299999,-10.201693534851074,1.2617442607879639,0.9672574996948242,3.2196044921875,5.859375,-3.0670166015625
15.049999900000001,-10.17296314239502,1.161187767982483,0.6775590777397156,-11.383056640625,8.23974609375,3.1585693359375
15.069999900000001,-10.187328338623047,1.0247182846069336,0.2825157940387726,-14.190673828125,5.4473876953125,8.1024169921875
15.0899999,-10.041281700134277,0.8547300100326538,0.014365210197865963,-1.03759765625,-4.791259765625,-1.922607421875
15.1099999,-10.098742485046387,0.667982280254364,-0.1173158809542656,5.8135986328125,-12.2222900390625,-6.7291259765625
15.129999900000001,-9.988609313964844,0.5889736413955688,0.019153613597154617,-3.692626953125,-3.204345703125,2.6397705078125
15.149999900000001,-9.955090522766113,0.5626373887062073,0.3423708379268646,-7.4310302734375,1.5411376953125,9.5062255859375
15.1699999,-9.840168952941895,0.689530074596405,0.6033388376235962,0.8697509765625,2.8228759765625,2.166748046875
15.1899999,-9.859322547912598,0.7589619159698486,0.7469909191131592,10.0555419921875,3.3416748046875,-7.7362060546875
15.209999900000001,-10.017339706420898,0.828393816947937,0.768538773059845,13.5345458984375,-0.030517578125,-6.561279296875
15.229999900000001,-10.319009780883789,0.8236053586006165,0.7493851184844971,11.65771484375,3.082275390625,0.5340576171875
15.2499999,-10.113107681274414,0.7206547260284424,0.586579442024231,6.2713623046875,2.6702880859375,1.3275146484375
15.2699999,-10.055646896362305,0.7996633648872375,0.3232172429561615,7.965087890625,4.0130615234375,3.7384033203125
15.289999900000002,-9.86889934539795,0.8619126081466675,0.07661445438861847,13.7786865234375,-8.514404296875,-8.514404296875
15.309999900000001,-9.768342971801758,1.0295066833496094,0.05746084079146385,10.4827880859375,-14.22119140625,-11.260986328125
15.3299999,-9.909601211547852,1.0127472877502441,0.6009446382522583,-12.02392578125,8.9111328125,-4.8675537109375
15.3499999,-9.986215591430664,0.8451532125473022,0.8236053586006165,-8.4228515625,6.04248046875,1.8310546875
15.3699999,-9.974244117736816,0.4620809257030487,0.7733271718025208,-1.0223388671875,2.5482177734375,0.6866455078125
15.389999900000001,-10.1753568649292,0.2753331959247589,0.5650315880775452,4.5623779296875,1.03759765625,2.288818359375
15.4099999,-10.273519515991211,0.24181437492370605,0.37828385829925537,7.32421875,-6.0882568359375,0.7171630859375
15.4299999,-10.38844108581543,0.4836287498474121,0.272938996553421,7.1868896484375,-3.11279296875,2.1514892578125
15.4499999,-9.981427192687988,0.7350199222564697,0.20350714027881622,5.645751953125,-2.349853515625,-0.91552734375
15.469999900000001,-9.691728591918945,1.072602391242981,0.24660277366638184,6.4849853515625,-2.3345947265625,-3.7078857421875
15.4899999,-9.464279174804688,1.1875240802764893,0.3758896589279175,2.8076171875,-2.7313232421875,-9.368896484375
15.5099999,-9.497797966003418,1.2521674633026123,0.646434485912323,-8.331298828125,-1.220703125,-8.941650390625
15.5299999,-9.81143856048584,1.1803414821624756,0.9169792532920837,-17.9901123046875,8.6822509765625,-5.889892578125
15.549999900000001,-10.110713958740234,1.0534487962722778,1.048660397529602,-19.7601318359375,14.34326171875,-7.38525390625
15.569999900000001,-10.345345497131348,0.8595184087753296,0.9744400978088379,-14.3280029296875,5.06591796875,-9.3994140625
15.5899999,-10.474632263183594,0.6823474764823914,0.689530074596405,-8.6822509765625,4.2877197265625,-8.2855224609375
15.6099999,-10.572794914245605,0.5267243981361389,0.3902548849582672,-5.0811767578125,4.0435791015625,-6.9122314453125
15.629999900000001,-10.596736907958984,0.4620809257030487,0.15801730751991272,-4.94384765625,-1.220703125,-11.65771484375
15.649999900000001,-10.611102104187012,0.47644615173339844,0.07182604819536209,-3.8299560546875,-1.2359619140625,-12.1307373046875
15.6699999,-10.491392135620117,0.5602431893348694,0.033518824726343155,-1.312255859375,-0.0152587890625,-18.6767578125
15.6899999,-10.400412559509277,0.6440402865409851,0.0694318488240242,1.9989013671875,-1.220703125,-16.357421875
15.709999900000001,-10.14902114868164,0.7134721279144287,0.11013327538967133,2.1209716796875,-8.7890625,-13.5345458984375
15.729999900000001,-9.921571731567383,0.706289529800415,0.17956513166427612,-0.1983642578125,-9.185791015625,-8.9569091796875
15.7499999,-9.619902610778809,0.7015010714530945,0.2777273952960968,-2.9296875,-9.5062255859375,-1.617431640625
15.7699999,-9.366117477416992,0.6200982332229614,0.38307225704193115,-4.1046142578125,-4.9896240234375,-0.8392333984375
15.789999900000002,-9.141061782836914,0.5961562395095825,0.5602431893348694,-3.2501220703125,5.218505859375,-5.096435546875
15.809999900000001,-9.136273384094238,0.586579442024231,0.7924807667732239,-8.5601806640625,10.1776123046875,-7.568359375
15.8299999,-9.265560150146484,0.586579442024231,0.9624691009521484,-27.0233154296875,10.8489990234375,-8.8348388671875
15.8499999,-9.548076629638672,0.5482721924781799,1.070208191871643,-32.257080078125,5.035400390625,-16.4794921875
15.869999900000002,-9.77791976928711,0.4118026793003082,1.0055646896362305,-25.87890625,-0.7476806640625,-23.01025390625
15.889999900000001,-9.914389610290527,0.181959331035614,0.7996633648872375,-19.073486328125,9.6588134765625,-21.8048095703125
15.9099999,-9.885659217834473,-0.07900865375995636,0.5506663918495178,-13.2904052734375,22.796630859375,-20.3094482421875
15.9299999,-9.763554573059082,-0.28730419278144836,0.304063618183136,-9.429931640625,24.5361328125,-20.660400390625
15.9499999,-9.586383819580078,-0.4381389021873474,0.05746084079146385,-6.89697265625,11.9781494140625,-17.02880859375
15.969999900000001,-9.385271072387695,-0.4908113479614258,-0.15322890877723694,-1.9073486328125,-7.4462890625,-6.3934326171875
15.9899999,-9.205705642700195,-0.47884035110473633,-0.2944868206977844,5.859375,-16.29638671875,3.9825439453125
16.0099999,-9.126696586608887,-0.3998316824436188,-0.35913026332855225,12.969970703125,-14.4195556640625,9.1705322265625
16.0299999,-9.155426979064941,-0.2777273952960968,-0.2944868206977844,17.578125,-16.0369873046875,8.7738037109375
16.0499999,-9.306262016296387,-0.17956513166427612,-0.12689268589019775,19.6990966796875,-16.021728515625,6.927490234375
16.0699999,-9.5408935546875,-0.0933738648891449,0.12210428714752197,19.9127197265625,-11.8408203125,6.5765380859375
16.089999900000002,-9.758766174316406,-0.08619125932455063,0.4165911078453064,18.3868408203125,-12.2833251953125,6.0882568359375
16.109999900000002,-9.923966407775879,-0.08619125932455063,0.7254431247711182,14.923095703125,-20.965576171875,10.43701171875
16.1299999,-10.010157585144043,-0.11971008777618408,0.9720458984375,11.077880859375,-19.0277099609375,14.4805908203125
16.1499999,-10.034099578857422,-0.15562310814857483,1.113303780555725,9.1400146484375,-11.871337890625,11.260986328125
16.1699999,-10.000580787658691,-0.21787235140800476,1.137245774269104,8.9263916015625,-13.9923095703125,5.4473876953125
16.1899999,-10.017339706420898,-0.2825157940387726,1.0869675874710083,9.7198486328125,-19.0277099609375,1.220703125
16.2099999,-10.120290756225586,-0.33279404044151306,0.9816226959228516,9.765625,-15.6097412109375,-6.2713623046875
16.2299999,-10.211270332336426,-0.38546648621559143,0.9289502501487732,8.697509765625,-14.129638671875,-14.4500732421875
16.249999900000002,-10.299856185913086,-0.40701428055763245,0.9026140570640564,6.4544677734375,-16.510009765625,-13.946533203125
16.269999900000002,-10.307038307189941,-0.4189853072166443,0.950498104095459,4.6539306640625,-17.6544189453125,-9.8876953125
16.2899999,-10.232817649841309,-0.40462008118629456,0.9983820915222168,3.2806396484375,-12.9852294921875,-9.2315673828125
16.3099999,-10.053253173828125,-0.3711012601852417,1.1276689767837524,1.1138916015625,-2.5177001953125,-9.3994140625
16.3299999,-9.981427192687988,-0.29209262132644653,1.1683704853057861,-0.48828125,24.7650146484375,-11.8408203125
16.3499999,-9.988609313964844,-0.22266076505184174,1.2018892765045166,0.030517578125,34.393310546875,-18.6309814453125
16.3699999,-10.08198356628418,-0.1604115068912506,1.161187767982483,-3.60107421875,12.7716064453125,-21.2249755859375
16.3899999,-10.17296314239502,-0.15083470940589905,1.1013327836990356,-10.2386474609375,-4.241943359375,-18.157958984375
16.4099999,-10.18493366241455,-0.181959331035614,1.0247182846069336,-12.51220703125,0.9307861328125,-14.068603515625
16.429999900000002,-10.050858497619629,-0.272938996553421,0.9528923034667969,-9.9029541015625,8.6212158203125,-13.0615234375
16.4499999,-9.883264541625977,-0.38067805767059326,0.8858546018600464,-7.3089599609375,2.8839111328125,-8.8958740234375
16.4699999,-9.746794700622559,-0.4884171485900879,0.8331822156906128,-5.3253173828125,-4.2877197265625,-2.349853515625
16.4899999,-9.62947940826416,-0.569819986820221,0.8236053586006165,-1.9378662109375,-5.3253173828125,1.8768310546875
16.5099999,-9.478644371032715,-0.6009446382522583,0.8762778043746948,1.556396484375,-3.60107421875,6.622314453125
16.5299999,-9.385271072387695,-0.5746083855628967,0.9289502501487732,2.777099609375,9.9029541015625,11.04736328125
16.5499999,-9.385271072387695,-0.49320554733276367,0.9457096457481384,2.5482177734375,25.2227783203125,8.6517333984375
16.5699999,-9.514557838439941,-0.3974374830722809,0.9097966551780701,2.3193359375,22.9949951171875,0.457763671875
16.589999900000002,-9.710882186889648,-0.31842881441116333,0.8379706144332886,2.2125244140625,9.674072265625,-3.1280517578125
16.609999900000002,-10.187328338623047,-0.31603461503982544,0.7733271718025208,2.685546875,3.2806396484375,-1.28173828125
16.6299999,-10.3549222946167,-0.3280056416988373,0.751779317855835,4.4097900390625,-2.86865234375,-7.476806640625
16.6499999,-10.57040023803711,-0.4141969084739685,0.7757213711738586,4.6234130859375,-2.9449462890625,0.1068115234375
16.6699999,-10.508151054382324,-0.40462008118629456,0.8403648138046265,2.3956298828125,-1.46484375,1.9989013671875
16.6899999,-10.29746150970459,-0.3926490843296051,0.8906430602073669,-1.28173828125,-0.0457763671875,-0.457763671875
16.7099999,-10.077195167541504,-0.3280056416988373,0.9193734526634216,-2.288818359375,1.6632080078125,-2.2125244140625
16.7299999,-9.93593692779541,-0.27054479718208313,0.9241618514060974,0.5340576171875,1.2969970703125,-3.6163330078125
16.749999900000002,-9.86889934539795,-0.2753331959247589,0.9169792532920837,1.5411376953125,0.732421875,-3.9520263671875
16.769999900000002,-9.821015357971191,-0.33279404044151306,0.9265560507774353,-2.3345947265625,1.46484375,-1.2054443359375
16.7899999,-9.852140426635742,-0.4692635238170624,0.8355764150619507,-6.011962890625,1.89208984375,2.3956298828125
16.8099999,-9.885659217834473,-0.6943184733390808,0.7661445140838623,-4.119873046875,1.7547607421875,1.2664794921875
16.8299999,-9.976638793945312,-0.9169792532920837,0.6392518281936646,-3.9520263671875,-0.946044921875,8.758544921875
16.8499999,-10.043676376342773,-1.0678139925003052,0.5961562395095825,-7.9345703125,-1.312255859375,15.7318115234375
16.8699999,-10.062829971313477,-1.05105459690094,0.608127236366272,-13.427734375,-0.1220703125,18.5089111328125
16.8899999,-9.988609313964844,-0.9409212470054626,0.7637503147125244,-18.61572265625,0.8544921875,17.913818359375
16.9099999,-9.892841339111328,-0.6751648783683777,0.9552865028381348,-27.801513671875,5.0506591796875,18.5394287109375
16.929999900000002,-9.816226959228516,-0.47644615173339844,1.0965443849563599,-35.2325439453125,10.55908203125,20.69091796875
16.9499999,-9.794678688049316,-0.304063618183136,1.139639973640442,-30.21240234375,10.9405517578125,20.9197998046875
16.9699999,-9.830592155456543,-0.2059013396501541,1.0031704902648926,-16.998291015625,7.8125,19.500732421875
16.9899999,-9.907206535339355,-0.1149216815829277,0.7038952708244324,-3.5858154296875,4.8065185546875,17.9443359375
17.0099999,-9.995792388916016,-0.038307227194309235,0.35673606395721436,9.3536376953125,0.8544921875,15.6402587890625
17.0299999,-10.06043529510498,0.08379705995321274,0.05746084079146385,20.2789306640625,-4.82177734375,13.580322265625
17.0499999,-10.103530883789062,0.24420857429504395,-0.11971008777618408,23.590087890625,-9.33837890625,11.505126953125
17.0699999,-10.105925559997559,0.45010992884635925,-0.11971008777618408,20.1263427734375,-11.2152099609375,9.033203125
17.089999900000002,-10.074800491333008,0.6440402865409851,0.028730420395731926,15.4571533203125,-11.7340087890625,5.9356689453125
17.109999900000002,-10.02691650390625,0.811634361743927,0.272938996553421,12.176513671875,-12.1002197265625,3.1280517578125
17.1299999,-9.962273597717285,0.9193734526634216,0.6105214357376099,8.3770751953125,-11.505126953125,1.40380859375
17.1499999,-9.897629737854004,0.9792284965515137,0.9624691009521484,-0.0457763671875,-8.056640625,0.1983642578125
17.1699999,-9.840168952941895,0.9720458984375,1.280897855758667,-9.490966796875,-2.8076171875,-1.953125
17.1899999,-9.799467086791992,0.9145850539207458,1.522712230682373,-15.8843994140625,1.190185546875,-4.4403076171875
17.2099999,-9.785101890563965,0.8020575642585754,1.623268723487854,-19.6685791015625,4.0740966796875,-4.8675537109375
17.2299999,-9.792284965515137,0.6440402865409851,1.5849615335464478,-20.3094482421875,6.7138671875,-4.6844482421875
17.249999900000002,-9.835380554199219,0.42616790533065796,1.4077905416488647,-14.495849609375,8.0108642578125,-5.9661865234375
17.269999900000002,-9.861717224121094,0.22266076505184174,1.2018892765045166,-4.7607421875,5.92041015625,-5.7525634765625
17.2899999,-9.892841339111328,-0.0071826050989329815,1.0031704902648926,-3.570556640625,4.7149658203125,-2.5787353515625
17.3099999,-9.890447616577148,-0.19393034279346466,0.8643068075180054,-9.8724365234375,7.2784423828125,1.2359619140625
17.3299999,-9.916783332824707,-0.3495534360408783,0.7948749661445618,-13.3514404296875,9.5367431640625,3.96728515625
17.3499999,-9.938331604003906,-0.4357447028160095,0.6919242739677429,-6.927490234375,8.3770751953125,5.950927734375
17.3699999,-9.971850395202637,-0.45250412821769714,0.524330198764801,6.9427490234375,2.8533935546875,7.110595703125
17.3899999,-10.005369186401367,-0.38067805767059326,0.3495534360408783,17.486572265625,-2.166748046875,7.6904296875
17.409999900000003,-10.034099578857422,-0.26096799969673157,0.2298433631658554,19.95849609375,-4.0283203125,6.744384765625
17.429999900000002,-9.998186111450195,-0.009576806798577309,0.2849099934101105,15.6097412109375,-3.021240234375,5.79833984375
17.4499999,-9.976638793945312,0.2777273952960968,0.4429273009300232,6.3934326171875,-2.74658203125,4.8370361328125
17.4699999,-9.931148529052734,0.5410895943641663,0.6416460275650024,-2.3956298828125,-0.7476806640625,6.3934326171875
17.4899999,-9.907206535339355,0.7829039692878723,0.8020575642585754,-6.2408447265625,0.091552734375,5.7830810546875
17.5099999,-9.892841339111328,0.8690952062606812,0.8738836050033569,-8.23974609375,-1.556396484375,3.631591796875
17.5299999,-9.919178009033203,0.912190854549408,0.8547300100326538,-10.3912353515625,2.38037109375,1.7852783203125
17.5499999,-9.93593692779541,0.8044517636299133,0.7709329724311829,-8.60595703125,2.0904541015625,1.3885498046875
17.5699999,-9.964667320251465,0.689530074596405,0.6584054827690125,-1.2969970703125,-1.9073486328125,-0.9918212890625
17.589999900000002,-9.983820915222168,0.49559974670410156,0.5793967843055725,5.7525634765625,-7.0648193359375,-1.9073486328125
17.609999900000002,-10.000580787658691,0.3734954595565796,0.6129156351089478,6.28662109375,-6.6680908203125,-0.5035400390625
17.6299999,-9.998186111450195,0.304063618183136,0.7661445140838623,0.3204345703125,-2.5482177734375,1.0223388671875
17.6499999,-9.947908401489258,0.31842881441116333,0.9481038451194763,-5.18798828125,0.732421875,0.152587890625
17.6699999,-9.911994934082031,0.35434186458587646,1.091755986213684,-5.92041015625,1.495361328125,-0.9002685546875
17.6899999,-9.909601211547852,0.33039984107017517,1.072602391242981,-3.3721923828125,3.1585693359375,-0.274658203125
17.7099999,-9.883264541625977,0.31603461503982544,0.993593692779541,1.678466796875,0.701904296875,0.8544921875
17.7299999,-9.955090522766113,0.26575639843940735,0.8834604024887085,3.692626953125,-1.52587890625,-0.18310546875
17.749999900000002,-9.923966407775879,0.304063618183136,0.8595184087753296,-1.1138916015625,2.7008056640625,1.0223388671875
17.769999900000002,-9.923966407775879,0.3663128614425659,0.8978256583213806,-8.941650390625,5.218505859375,1.922607421875
17.7899999,-9.911994934082031,0.4572925269603729,0.9768342971801758,-15.594482421875,7.293701171875,1.617431640625
17.8099999,-9.8784761428833,0.5506663918495178,1.015141487121582,-16.754150390625,7.9803466796875,1.1138916015625
17.8299999,-9.931148529052734,0.5650315880775452,0.9265560507774353,-12.2528076171875,7.659912109375,0.1220703125
17.8499999,-9.962273597717285,0.47884035110473633,0.7565677165985107,-2.38037109375,2.410888671875,-2.044677734375
17.8699999,-9.998186111450195,0.3998316824436188,0.5410895943641663,5.950927734375,-1.2969970703125,-2.50244140625
17.8899999,-10.002974510192871,0.31364041566848755,0.40701428055763245,7.6751708984375,-2.01416015625,0.7476806640625
17.909999900000003,-9.971850395202637,0.31603461503982544,0.40462008118629456,3.173828125,-0.5950927734375,0.2899169921875
17.929999900000002,-9.95748519897461,0.3663128614425659,0.49799394607543945,-1.2969970703125,0.213623046875,0.0762939453125
17.9499999,-9.911994934082031,0.4381389021873474,0.6607996821403503,-1.678466796875,0.91552734375,-0.4730224609375
17.9699999,-9.914389610290527,0.4429273009300232,0.7565677165985107,-2.01416015625,1.28173828125,0.1983642578125
17.9899999,-9.885659217834473,0.45489832758903503,0.8595184087753296,-1.5411376953125,0.48828125,1.129150390625
18.0099999,-9.909601211547852,0.43095630407333374,0.9241618514060974,-3.143310546875,1.7852783203125,0.91552734375
18.0299999,-9.880870819091797,0.48602294921875,1.0271124839782715,-10.3912353515625,4.486083984375,3.1890869140625
18.0499999,-9.8784761428833,0.5985504388809204,1.1779472827911377,-20.7366943359375,8.392333984375,2.471923828125
18.0699999,-9.864110946655273,0.7110779285430908,1.2401964664459229,-32.5775146484375,12.176513671875,0.091552734375
18.089999900000002,-9.86650562286377,0.7781155705451965,1.1468225717544556,-35.0341796875,16.3421630859375,-1.4190673828125
18.109999900000002,-9.919178009033203,0.6560112833976746,0.8331822156906128,-19.10400390625,11.077880859375,-1.64794921875
18.1299999,-10.005369186401367,0.40701428055763245,0.3519476354122162,1.373291015625,4.45556640625,-1.4190673828125
18.1499999,-10.070012092590332,0.1412578970193863,-0.11252748221158981,18.463134765625,-5.4779052734375,-3.47900390625
18.1699999,-10.127472877502441,-0.026336219161748886,-0.36152446269989014,28.0303955078125,-11.2457275390625,-4.94384765625
18.1899999,-10.125079154968262,-0.014365210197865963,-0.3687070608139038,28.3203125,-11.7950439453125,-3.173828125
18.2099999,-10.079588890075684,0.1364694982767105,-0.08379705995321274,20.7366943359375,-13.36669921875,-1.03759765625
18.2299999,-10.005369186401367,0.33997663855552673,0.35434186458587646,8.9263916015625,-9.4757080078125,-1.1749267578125
18.249999900000002,-9.909601211547852,0.49320554733276367,0.7948749661445618,-0.9307861328125,-3.7689208984375,-1.7852783203125
18.269999900000002,-9.825803756713867,0.5674257874488831,1.1276689767837524,-3.6468505859375,-1.40380859375,-0.9307861328125
18.2899999,-9.847352027893066,0.5770025849342346,1.3263877630233765,-6.1187744140625,1.2664794921875,0.7171630859375
18.3099999,-9.825803756713867,0.5578489899635315,1.3335703611373901,-13.3209228515625,2.44140625,-0.0152587890625
18.3299999,-9.9000244140625,0.5219359993934631,1.3215993642807007,-17.4102783203125,3.0670166015625,-1.8157958984375
18.3499999,-9.90241813659668,0.42377370595932007,1.1994950771331787,-18.9666748046875,6.28662109375,-0.0762939453125
18.3699999,-9.921571731567383,0.3687070608139038,1.0749965906143188,-17.39501953125,6.317138671875,2.9296875
18.3899999,-9.940725326538086,0.24660277366638184,0.9097966551780701,-13.092041015625,5.4931640625,3.4027099609375
18.409999900000003,-9.93354320526123,0.2513911724090576,0.7613561153411865,-7.9803466796875,5.706787109375,2.0904541015625
18.429999900000002,-9.947908401489258,0.2106897532939911,0.5889736413955688,-5.2337646484375,3.72314453125,1.3885498046875
18.4499999,-9.976638793945312,0.2561795711517334,0.45010992884635925,-2.471923828125,2.9144287109375,1.5716552734375
18.4699999,-9.979032516479492,0.2346317619085312,0.2849099934101105,4.6234130859375,-0.6866455078125,1.5869140625
18.4899999,-10.014945983886719,0.2753331959247589,0.21308395266532898,12.481689453125,-5.6610107421875,0.3204345703125
18.5099999,-10.022128105163574,0.3519476354122162,0.21547815203666687,15.13671875,-8.48388671875,-1.5716552734375
18.5299999,-10.017339706420898,0.4165911078453064,0.3447650372982025,13.458251953125,-9.1094970703125,-0.8544921875
18.5499999,-9.971850395202637,0.4908113479614258,0.5554547905921936,9.3231201171875,-7.5836181640625,-0.1220703125
18.5699999,-9.93593692779541,0.5793967843055725,0.828393816947937,2.2125244140625,-4.3792724609375,-1.6326904296875
18.589999900000002,-9.86889934539795,0.6033388376235962,1.0773907899856567,-6.7138671875,-0.8087158203125,-1.953125
18.609999900000002,-9.813833236694336,0.6033388376235962,1.2210428714752197,-11.260986328125,3.021240234375,-1.0986328125
18.6299999,-9.828198432922363,0.5195417404174805,1.2713210582733154,-9.552001953125,4.9285888671875,0.152587890625
18.6499999,-9.854534149169922,0.42856210470199585,1.1779472827911377,-7.7362060546875,5.18798828125,0.396728515625
18.6699999,-9.897629737854004,0.3447650372982025,1.036689281463623,-4.9896240234375,2.899169921875,-1.9378662109375
18.6899999,-9.950302124023438,0.2801215946674347,0.9002198576927185,-2.8228759765625,3.2196044921875,-1.3885498046875
18.7099999,-9.979032516479492,0.2849099934101105,0.7613561153411865,-1.6326904296875,3.7689208984375,-0.3662109375
18.7299999,-10.000580787658691,0.2849099934101105,0.6967126727104187,-0.79345703125,2.471923828125,0.54931640625
18.749999900000002,-9.976638793945312,0.27054479718208313,0.646434485912323,-2.6397705078125,2.5634765625,0.946044921875
18.769999900000002,-9.986215591430664,0.3447650372982025,0.6392518281936646,-4.0740966796875,2.74658203125,0.244140625
18.7899999,-9.952696800231934,0.36152446269989014,0.6320692300796509,-3.2806396484375,1.4801025390625,-0.244140625
18.8099999,-9.945513725280762,0.38067805767059326,0.586579442024231,1.220703125,-0.8392333984375,-0.885009765625
18.8299999,-9.964667320251465,0.3878606855869293,0.507570743560791,5.7830810546875,-2.4871826171875,1.40380859375
18.8499999,-9.998186111450195,0.3878606855869293,0.5267243981361389,5.5694580078125,-5.9661865234375,-0.54931640625
18.8699999,-10.002974510192871,0.40940847992897034,0.6320692300796509,3.8909912109375,-4.8980712890625,0.1220703125
18.8899999,-10.005369186401367,0.38546648621559143,0.7709329724311829,2.3651123046875,-2.7008056640625,-0.8392333984375
18.909999900000003,-9.940725326538086,0.395043283700943,0.9457096457481384,-0.1068115234375,-2.197265625,-0.1983642578125
18.929999900000002,-9.9000244140625,0.3926490843296051,1.0654197931289673,-4.39453125,1.190185546875,-0.0152587890625
18.9499999,-9.84495735168457,0.40462008118629456,1.1180921792984009,-5.3558349609375,4.3182373046875,-0.8087158203125
18.9699999,-9.852140426635742,0.3687070608139038,1.0797849893569946,-0.8697509765625,3.7384033203125,0.1678466796875
18.9899999,-9.849745750427246,0.3687070608139038,0.9911994934082031,1.068115234375,3.3416748046875,-0.06103515625
19.0099999,-9.885659217834473,0.3280056416988373,0.8954314589500427,-2.4566650390625,4.0740966796875,0.213623046875
19.0299999,-9.897629737854004,0.3687070608139038,0.8930372595787048,-5.035400390625,3.7689208984375,1.0833740234375
19.0499999,-9.895236015319824,0.40701428055763245,0.8786720037460327,-8.8653564453125,6.8359375,0.3662109375
19.0699999,-9.923966407775879,0.4596867263317108,0.9145850539207458,-10.7269287109375,8.4075927734375,-1.0986328125
19.089999900000002,-9.90241813659668,0.5051765441894531,0.8906430602073669,-10.9100341796875,7.293701171875,0
19.109999900000002,-9.931148529052734,0.47884035110473633,0.8188169598579407,-10.92529296875,7.9803466796875,-0.4119873046875
19.1299999,-9.938331604003906,0.4405331015586853,0.6967126727104187,-8.636474609375,5.9967041015625,-1.2969970703125
19.1499999,-10.012551307678223,0.3447650372982025,0.49320554733276367,-2.9754638671875,3.814697265625,-0.762939453125
19.1699999,-10.034099578857422,0.2561795711517334,0.3711012601852417,2.8533935546875,0.7476806640625,0.6561279296875
19.1899999,-10.046070098876953,0.1843535304069519,0.2801215946674347,2.8839111328125,-1.6937255859375,2.5787353515625
19.2099999,-10.022128105163574,0.19632454216480255,0.3471592366695404,-1.0833740234375,-2.5177001953125,0.8697509765625
19.2299999,-9.979032516479492,0.2561795711517334,0.4884171485900879,-4.302978515625,0.0152587890625,1.03759765625
19.249999900000002,-9.923966407775879,0.3447650372982025,0.6248866319656372,-4.058837890625,-0.4730224609375,0.91552734375
19.269999900000002,-9.945513725280762,0.3974374830722809,0.6799532771110535,-2.3193359375,-0.4425048828125,-0.9613037109375
19.2899999,-9.873687744140625,0.4118026793003082,0.6368576288223267,3.4637451171875,-0.6561279296875,0.885009765625
19.3099999,-9.926360130310059,0.3663128614425659,0.5817909836769104,9.2315673828125,-1.800537109375,1.7852783203125
19.3299999,-9.928754806518555,0.3734954595565796,0.5746083855628967,7.0953369140625,-4.1656494140625,0.8087158203125
19.3499999,-9.967061996459961,0.3256114423274994,0.6129156351089478,2.9449462890625,-2.8228759765625,0.9613037109375
19.3699999,-9.971850395202637,0.4692635238170624,0.7852981686592102,0.18310546875,-0.7476806640625,1.5869140625
19.3899999,-9.93354320526123,0.4668693244457245,0.8259995579719543,-3.6773681640625,0.213623046875,0.79345703125
19.409999900000003,-9.962273597717285,0.5195417404174805,0.8738836050033569,-5.2337646484375,1.5716552734375,0.518798828125
19.429999900000002,-9.93354320526123,0.524330198764801,0.871489405632019,-2.13623046875,1.3275146484375,2.6397705078125
19.4499999,-9.95748519897461,0.49320554733276367,0.7876923680305481,-0.701904296875,-1.3275146484375,2.532958984375
19.4699999,-9.986215591430664,0.47405192255973816,0.8307880163192749,-2.9296875,-0.79345703125,-1.3885498046875
19.4899999,-9.9000244140625,0.4692635238170624,0.7972691655158997,-6.988525390625,0.579833984375,-0.2899169921875
19.5099999,-9.926360130310059,0.44771572947502136,0.8619126081466675,-10.467529296875,4.0740966796875,0.4730224609375
19.5299999,-9.888052940368652,0.40462008118629456,0.7398083209991455,-7.1258544921875,5.462646484375,0.640869140625
19.5499999,-9.93593692779541,0.3280056416988373,0.667982280254364,1.3580322265625,1.7547607421875,1.3275146484375
19.5699999,-9.99100399017334,0.3280056416988373,0.5195417404174805,5.4931640625,-1.8310546875,0.0152587890625
19.589999900000002,-9.979032516479492,0.31364041566848755,0.4381389021873474,7.38525390625,-1.7547607421875,0.1068115234375
19.609999900000002,-10.005369186401367,0.3447650372982025,0.44771572947502136,8.1329345703125,-2.655029296875,0.7476806640625
19.6299999,-9.959878921508789,0.35673606395721436,0.507570743560791,7.2174072265625,-3.8604736328125,0.6256103515625
19.6499999,-9.983820915222168,0.40701428055763245,0.629675030708313,6.4849853515625,-2.6397705078125,1.77001953125
19.6699999,-9.952696800231934,0.45010992884635925,0.7015010714530945,5.3253173828125,-2.899169921875,3.96728515625
19.6899999,-9.945513725280762,0.5674257874488831,0.871489405632019,0.3204345703125,-3.1585693359375,0.6561279296875
19.7099999,-9.885659217834473,0.6751648783683777,0.9361328482627869,-5.218505859375,-0.54931640625,-1.983642578125
19.7299999,-9.856928825378418,0.706289529800415,0.9959878921508789,-9.2315673828125,2.44140625,-1.861572265625
19.749999900000002,-9.883264541625977,0.6153098344802856,0.9768342971801758,-5.3558349609375,3.265380859375,-1.4190673828125
19.769999900000002,-9.940725326538086,0.4812345504760742,0.8930372595787048,1.4190673828125,2.4871826171875,-0.5035400390625
19.7899999,-9.998186111450195,0.3663128614425659,0.7972691655158997,3.204345703125,0.3814697265625,0.5950927734375
19.8099999,-10.038887977600098,0.30885201692581177,0.7398083209991455,3.4942626953125,1.251220703125,0.5035400390625
19.8299999,-9.998186111450195,0.35673606395721436,0.7541735172271729,2.74658203125,1.251220703125,0.396728515625
19.8499999,-9.964667320251465,0.4189853072166443,0.7733271718025208,0.3662109375,1.678466796875,-0.30517578125
19.8699999,-9.962273597717285,0.5099649429321289,0.8571242094039917,-1.007080078125,4.180908203125,0.030517578125
19.8899999,-9.895236015319824,0.6224924325942993,0.8858546018600464,-3.7841796875,4.486083984375,3.021240234375
19.909999900000003,-9.892841339111328,0.7038952708244324,0.9409212470054626,-9.307861328125,4.82177734375,-2.0904541015625
19.929999900000002,-9.813833236694336,0.7445967197418213,0.9193734526634216,-9.82666015625,5.523681640625,-3.3721923828125
19.9499999,-9.787496566772461,0.6727706789970398,0.8810662031173706,-7.965087890625,7.476806640625,-3.204345703125
19.9699999,-9.828198432922363,0.5219359993934631,0.7661445140838623,-3.2958984375,7.232666015625,-2.4871826171875
19.9899999,-9.923966407775879,0.3519476354122162,0.6153098344802856,2.960205078125,5.4473876953125,-0.9765625
20.0099999,-10.014945983886719,0.24660277366638184,0.44771572947502136,7.2021484375,1.8157958984375,0.4425048828125
20.0299999,-10.0580415725708,0.2082955539226532,0.3232172429561615,9.2010498046875,0.06103515625,-0.1068115234375
