# Time (seconds),Accel_X,Accel_Y,Accel_Z,Gyro_X,Gyro_Y,Gyro_Z
0.0099999,0.002394201699644327,-9.950302124023438,0.9074024558067322,-1.2054443359375,0.5645751953125,2.9296875
0.029999900000000003,0.20350714027881622,-9.988609313964844,0.912190854549408,1.312255859375,0.8697509765625,3.2806396484375
0.0499999,0.31364041566848755,-9.995792388916016,0.9672574996948242,2.105712890625,2.0751953125,6.6070556640625
0.0699999,0.29209262132644653,-10.017339706420898,0.9361328482627869,-0.9002685546875,2.716064453125,13.12255859375
0.08999990000000001,0.181959331035614,-9.96945571899414,0.9720458984375,-0.6103515625,-5.37109375,9.002685546875
0.10999990000000001,-0.19632454216480255,-9.955090522766113,0.811634361743927,1.3580322265625,-14.5263671875,3.143310546875
0.1299999,-0.7350199222564697,-9.967061996459961,0.4884171485900879,3.143310546875,-24.566650390625,3.662109375
0.14999990000000002,-1.1276689767837524,-10.218452453613281,0.16998831927776337,5.279541015625,-42.816162109375,5.67626953125
0.1699999,-1.2856862545013428,-10.596736907958984,-0.12210428714752197,6.134033203125,-49.7283935546875,26.8402099609375
0.1899999,-1.036689281463623,-11.039664268493652,-0.16998831927776337,5.1727294921875,-35.308837890625,58.197021484375
0.20999990000000002,-0.5674257874488831,-11.468226432800293,-0.035913024097681046,-1.9378662109375,-11.1846923828125,82.09228515625
0.2299999,-0.22744916379451752,-11.743558883666992,0.1628057211637497,-11.5966796875,10.6964111328125,100.1434326171875
0.2499999,-0.24420857429504395,-11.808202743530273,0.2753331959247589,-15.4571533203125,20.751953125,114.2730712890625
0.2699999,-0.6584054827690125,-11.621455192565918,0.23702596127986908,-11.2152099609375,22.8729248046875,121.03271484375
0.28999990000000003,-1.2545616626739502,-11.140220642089844,0.11013327538967133,-3.96728515625,22.15576171875,121.03271484375
0.3099999,-1.821987509727478,-10.486603736877441,0.028730420395731926,0.1068115234375,26.611328125,122.1771240234375
0.3299999,-2.2864625453948975,-9.823410034179688,0.040701430290937424,0.0152587890625,43.304443359375,127.2125244140625
0.34999990000000003,-2.6815059185028076,-9.318233489990234,0.15322890877723694,-1.1138916015625,70.1446533203125,135.7879638671875
0.3699999,-3.134010076522827,-8.911218643188477,0.14365209639072418,-1.8157958984375,95.428466796875,145.9808349609375
0.3899999,-3.646369218826294,-8.621520042419434,0.06464344263076782,-2.9144287109375,101.07421875,156.890869140625
0.40999990000000003,-4.323928356170654,-8.269572257995605,-0.2059013396501541,-4.1656494140625,90.850830078125,163.360595703125
0.4299999,-5.085284233093262,-7.841010570526123,-0.5817909836769104,0.8087158203125,82.916259765625,163.5284423828125
0.4499999,-5.916072368621826,-7.371747016906738,-0.8307880163192749,5.3253173828125,64.0106201171875,162.078857421875
0.4699999,-6.703764915466309,-6.833051681518555,-1.0319008827209473,7.1868896484375,38.4674072265625,159.332275390625
0.4899999,-7.433996200561523,-6.275202751159668,-1.0295066833496094,6.7138671875,17.0440673828125,153.1524658203125
0.5099999,-7.939172744750977,-5.829881191253662,-0.730231523513794,1.6326904296875,-7.598876953125,152.3590087890625
0.5299999,-8.269572257995605,-5.48272180557251,-0.3471592366695404,-6.6375732421875,-33.0657958984375,158.4320068359375
0.5499999,-8.355764389038086,-5.197812080383301,0.30885201692581177,-15.838623046875,-68.3746337890625,164.8101806640625
0.5699999,-8.130708694458008,-4.920084476470947,1.1013327836990356,-21.1639404296875,-90.240478515625,162.5823974609375
0.5899998999999999,-7.7213006019592285,-4.671087741851807,1.946485996246338,-28.01513671875,-79.803466796875,152.89306640625
0.6099998999999999,-7.201758861541748,-4.460397720336914,2.82515811920166,-42.724609375,-51.9256591796875,152.2216796875
0.6299999,-6.811503887176514,-4.292803764343262,3.536235809326172,-59.539794921875,-22.2015380859375,158.3099365234375
0.6499999,-6.813898086547852,-4.177882194519043,3.8810009956359863,-71.746826171875,6.8359375,156.2347412109375
0.6699999,-7.220912456512451,-4.036623954772949,3.799597978591919,-79.742431640625,19.34814453125,146.1334228515625
0.6899999,-8.022970199584961,-3.864241600036621,3.315969467163086,-82.6416015625,12.5579833984375,132.110595703125
0.7099999,-9.006986618041992,-3.7014358043670654,2.5474305152893066,-78.9337158203125,-2.410888671875,114.1357421875
0.7299998999999999,-9.890447616577148,-3.6176388263702393,1.7166426181793213,-69.549560546875,-17.15087890625,89.9200439453125
0.7499998999999999,-10.54645824432373,-3.6583402156829834,0.9648633003234863,-55.23681640625,-23.6358642578125,66.2078857421875
0.7699999,-10.910377502441406,-3.799597978591919,0.40462008118629456,-39.7186279296875,-28.3966064453125,53.8177490234375
0.7899999,-11.027692794799805,-4.000710964202881,0.05506663769483566,-25.482177734375,-34.11865234375,46.875
0.8099999,-10.977415084838867,-4.1611223220825195,-0.09816227108240128,-13.4429931640625,-40.0390625,35.94970703125
0.8299999,-10.78348445892334,-4.197035789489746,-0.10534487664699554,-4.2266845703125,-45.3643798828125,24.96337890625
0.8499998999999999,-10.383652687072754,-4.065354347229004,0.026336219161748886,0.9765625,-50.506591796875,21.728515625
0.8699998999999999,-9.780313491821289,-3.7828385829925537,0.23942017555236816,2.44140625,-46.9970703125,27.6641845703125
0.8899999,-9.028534889221191,-3.3877954483032227,0.5195417404174805,1.0833740234375,-37.90283203125,43.2891845703125
0.9099999,-8.355764389038086,-2.8562827110290527,0.811634361743927,-3.41796875,-28.839111328125,62.7288818359375
0.9299999,-7.94635534286499,-2.250549554824829,1.0630255937576294,-9.4757080078125,-17.5323486328125,71.5789794921875
0.9499999,-7.924807548522949,-1.5897499322891235,1.2282254695892334,-16.2811279296875,-7.99560546875,67.413330078125
0.9699998999999999,-8.216899871826172,-0.9816226959228516,1.2880805730819702,-23.4375,-3.0517578125,55.5267333984375
0.9899998999999999,-8.65743350982666,-0.5051765441894531,1.2401964664459229,-29.47998046875,4.4708251953125,41.534423828125
1.0099999,-9.05487060546875,-0.26336219906806946,1.113303780555725,-32.6995849609375,19.744873046875,29.7088623046875
1.0299999,-9.39245319366455,-0.22505496442317963,0.912190854549408,-33.355712890625,35.6597900390625,24.7802734375
1.0499999,-9.672574996948242,-0.3280056416988373,0.6607996821403503,-32.2723388671875,34.5611572265625,21.942138671875
1.0699999,-9.940725326538086,-0.5051765441894531,0.395043283700943,-29.60205078125,20.7366943359375,16.1590576171875
1.0899999,-10.228029251098633,-0.6560112833976746,0.12928688526153564,-23.6358642578125,8.97216796875,9.8876953125
1.1099999,-10.3549222946167,-0.7709329724311829,-0.023942016065120697,-14.3280029296875,-0.4119873046875,4.669189453125
1.1299999,-10.366893768310547,-0.8307880163192749,-0.06703764945268631,-5.3863525390625,3.265380859375,3.7384033203125
1.1499999,-10.278307914733887,-0.7948749661445618,-0.009576806798577309,0.4119873046875,12.1002197265625,8.026123046875
1.1699998999999999,-10.11550235748291,-0.6775590777397156,0.12689268589019775,3.5858154296875,3.936767578125,13.3514404296875
1.1899998999999999,-9.911994934082031,-0.4644751250743866,0.29209262132644653,4.8675537109375,-10.406494140625,19.683837890625
1.2099999,-10.606313705444336,-0.26815059781074524,0.4620809257030487,4.2572021484375,-11.0931396484375,18.707275390625
1.2299999,-10.790667533874512,-0.05027823522686958,0.5889736413955688,3.509521484375,-6.2713623046875,-14.6026611328125
1.2499999,-11.523292541503906,0.026336219161748886,0.7374141216278076,2.3040771484375,-4.8065185546875,4.4403076171875
1.2699999,-11.389217376708984,0.11971008777618408,0.8331822156906128,0.91552734375,-5.8135986328125,5.218505859375
1.2899999,-11.03248119354248,0.08140286058187485,0.8930372595787048,1.617431640625,-3.96728515625,1.28173828125
1.3099999,-10.412383079528809,0.07182604819536209,0.9361328482627869,2.0294189453125,-7.080078125,-6.3323974609375
1.3299999,-9.983820915222168,0.0454898327589035,0.993593692779541,0.6866455078125,-5.2947998046875,-1.3885498046875
1.3499999,-9.792284965515137,-0.009576806798577309,1.0630255937576294,-3.7384033203125,-2.7008056640625,-0.2288818359375
1.3699999,-9.694122314453125,-0.08619125932455063,1.1348515748977661,-6.5765380859375,0.30517578125,0.244140625
1.3899999,-9.713275909423828,-0.17956513166427612,1.1803414821624756,-5.31005859375,1.5411376953125,1.7547607421875
1.4099999,-9.75637149810791,-0.2537853717803955,1.1827356815338135,-1.5106201171875,0.6561279296875,1.8463134765625
1.4299998999999999,-9.835380554199219,-0.31124621629714966,1.0654197931289673,2.716064453125,0.1678466796875,1.2969970703125
1.4499999,-9.955090522766113,-0.3471592366695404,0.9145850539207458,7.7362060546875,-1.7852783203125,1.3427734375
1.4699999,-9.986215591430664,-0.2537853717803955,0.8834604024887085,9.82666015625,-4.5623779296875,2.7923583984375
1.4899999,-9.99339771270752,-0.17238251864910126,0.9074024558067322,3.1280517578125,-1.373291015625,3.0059814453125
1.5099999,-9.974244117736816,0.033518824726343155,1.0965443849563599,-5.340576171875,4.730224609375,0.579833984375
1.5299999,-9.93593692779541,0.1628057211637497,1.2473790645599365,-11.7950439453125,7.7667236328125,-0.7476806640625
1.5499999,-9.90241813659668,0.2825157940387726,1.2497732639312744,-13.5498046875,5.2947998046875,-1.2359619140625
1.5699999,-9.911994934082031,0.21787235140800476,1.1061211824417114,-7.720947265625,0.946044921875,-3.3111572265625
1.5899999,-9.947908401489258,0.09816227108240128,0.8212111592292786,4.9896240234375,-3.326416015625,-7.50732421875
1.6099999,-9.96945571899414,-0.11252748221158981,0.5889736413955688,18.310546875,-6.65283203125,-7.9498291015625
1.6299999,-10.022128105163574,-0.2346317619085312,0.40701428055763245,24.4293212890625,-8.6822509765625,-4.8828125
1.6499999,-10.017339706420898,-0.3687070608139038,0.40462008118629456,20.843505859375,-9.5672607421875,-3.4942626953125
1.6699999,-10.014945983886719,-0.35913026332855225,0.44532153010368347,12.481689453125,-8.453369140625,-1.7852783203125
1.6899998999999999,-10.012551307678223,-0.33518823981285095,0.6200982332229614,4.1046142578125,-10.1318359375,4.2266845703125
1.7099999,-9.99100399017334,-0.2753331959247589,0.8236053586006165,-2.2125244140625,-13.4124755859375,4.94384765625
1.7299999,-9.940725326538086,-0.2825157940387726,0.9816226959228516,-3.47900390625,-13.641357421875,1.678466796875
1.7499999,-9.892841339111328,-0.272938996553421,1.1827356815338135,1.1444091796875,-10.498046875,0.457763671875
1.7699999,-9.856928825378418,-0.2106897532939911,1.4317326545715332,3.6773681640625,-5.0048828125,3.204345703125
1.7899999,-9.78989028930664,-0.0933738648891449,1.6400281190872192,-2.38037109375,-0.67138671875,3.8604736328125
1.8099999,-9.821015357971191,0.06464344263076782,1.843535304069519,-8.544921875,4.3182373046875,2.8076171875
1.8299999,-9.84256362915039,0.181959331035614,1.8938134908676147,-7.5531005859375,4.4708251953125,4.425048828125
1.8499999,-9.854534149169922,0.19153612852096558,1.843535304069519,-3.2806396484375,1.7547607421875,2.0751953125
1.8699999,-9.86889934539795,0.13407529890537262,1.7094600200653076,-0.335693359375,2.166748046875,-3.23486328125
1.8899999,-9.859322547912598,0.026336219161748886,1.4748282432556152,1.739501953125,7.293701171875,-3.96728515625
1.9099999,-9.859322547912598,-0.019153613597154617,1.235408067703247,3.9825439453125,7.9193115234375,-0.946044921875
1.9299998999999999,-9.864110946655273,-0.016759412363171577,1.0127472877502441,2.8533935546875,2.9296875,-1.2969970703125
1.9499999,-9.964667320251465,-0.05506663769483566,0.8188169598579407,-1.03759765625,1.220703125,-0.1678466796875
1.9699999,-10.017339706420898,-0.026336219161748886,0.7661445140838623,-2.6092529296875,-2.0904541015625,2.105712890625
1.9899999,-10.012551307678223,-0.040701430290937424,0.8164227604866028,-1.2359619140625,-6.3629150390625,-3.2806396484375
2.0099999,-9.955090522766113,-0.028730420395731926,0.9864110946655273,-1.6937255859375,-3.997802734375,-9.9639892578125
2.0299999,-9.904812812805176,-0.0071826050989329815,1.1228805780410767,-2.960205078125,4.0435791015625,-7.476806640625
2.0499999,-9.84256362915039,-0.021547814831137657,1.259350061416626,-2.3651123046875,4.5623779296875,-3.96728515625
2.0699999,-9.823410034179688,-0.0454898327589035,1.3934253454208374,-1.5106201171875,3.35693359375,-4.5013427734375
2.0899999,-9.864110946655273,-0.05746084079146385,1.4987702369689941,-1.8768310546875,4.8065185546875,-1.7242431640625
2.1099999,-9.892841339111328,-0.15083470940589905,1.6112977266311646,-3.387451171875,5.9051513671875,-1.28173828125
2.1299999,-9.885659217834473,-0.26575639843940735,1.6615760326385498,-5.706787109375,7.38525390625,-6.4849853515625
2.1499999,-9.871294021606445,-0.38067805767059326,1.625662922859192,-7.5531005859375,13.031005859375,-6.7596435546875
2.1699999,-9.8784761428833,-0.5410895943641663,1.3886369466781616,-5.035400390625,16.1285400390625,0.8087158203125
2.1899999,-9.880870819091797,-0.5746083855628967,1.0773907899856567,-0.4730224609375,11.505126953125,3.448486328125
2.2099999,-9.986215591430664,-0.5291185975074768,0.6775590777397156,3.2958984375,6.53076171875,3.5552978515625
2.2299999,-10.091560363769531,-0.4213795065879822,0.3758896589279175,6.4697265625,-2.4566650390625,6.7138671875
2.2499999,-10.153809547424316,-0.2992752194404602,0.22505496442317963,6.988525390625,-9.5062255859375,3.0975341796875
2.2699999,-10.11789608001709,-0.20350714027881622,0.18914192914962769,4.7760009765625,-9.3994140625,-5.1422119140625
2.2899999,-10.04846477508545,-0.12210428714752197,0.363918662071228,5.218505859375,-6.40869140625,-4.82177734375
2.3099999,-10.000580787658691,-0.05985504388809204,0.5722141861915588,5.6610107421875,-6.3934326171875,0.457763671875
2.3299999,-9.873687744140625,-0.002394201699644327,0.8667010068893433,1.4495849609375,-5.645751953125,0.5950927734375
2.3499999,-9.86650562286377,0.07661445438861847,1.1348515748977661,-2.99072265625,-2.0294189453125,0.3204345703125
2.3699999,-9.84256362915039,0.1412578970193863,1.434126853942871,-6.7138671875,-2.74658203125,2.0751953125
2.3899999,-9.816226959228516,0.1412578970193863,1.6352397203445435,-12.908935546875,-2.1820068359375,-1.6021728515625
2.4099999,-9.816226959228516,0.06464344263076782,1.6184803247451782,-17.0745849609375,2.74658203125,-8.026123046875
2.4299999,-9.856928825378418,-0.10295066982507706,1.4317326545715332,-11.1236572265625,3.692626953125,-7.049560546875
2.4499999,-9.892841339111328,-0.23942017555236816,1.1085153818130493,-1.922607421875,-2.25830078125,-1.9683837890625
2.4699999,-9.93593692779541,-0.37828385829925537,0.8595184087753296,-1.52587890625,-4.3792724609375,-1.312255859375
2.4899999,-10.02691650390625,-0.47884035110473633,0.7015010714530945,-4.7760009765625,-2.99072265625,2.3956298828125
2.5099999,-10.050858497619629,-0.4908113479614258,0.7805097699165344,-3.9215087890625,-8.8348388671875,4.6844482421875
2.5299999,-10.04846477508545,-0.6344634294509888,0.8762778043746948,0.91552734375,-12.725830078125,3.8909912109375
2.5499999,-10.02691650390625,-0.6775590777397156,1.0079588890075684,6.134033203125,-12.26806640625,0.3814697265625
2.5699999,-9.976638793945312,-0.6631938815116882,1.015141487121582,11.474609375,-9.2010498046875,1.2969970703125
2.5899999,-9.947908401489258,-0.5099649429321289,1.1563993692398071,13.397216796875,-10.6658935546875,5.3863525390625
2.6099999,-9.847352027893066,-0.17238251864910126,1.338358759880066,4.45556640625,-8.026123046875,4.150390625
2.6299999,-9.799467086791992,0.24660277366638184,1.625662922859192,-12.0086669921875,0.3814697265625,1.739501953125
2.6499999,-9.763554573059082,0.5291185975074768,1.9321208000183105,-22.674560546875,3.753662109375,-1.4190673828125
2.6699999,-9.75397777557373,0.5410895943641663,2.03507137298584,-20.7061767578125,3.021240234375,-3.8909912109375
2.6899999,-9.730035781860352,0.24899697303771973,1.9776105880737305,-12.237548828125,3.326416015625,-7.4310302734375
2.7099999,-9.821015357971191,-0.13168109953403473,1.6136919260025024,0.30517578125,4.45556640625,-5.523681640625
2.7299999,-9.864110946655273,-0.5602431893348694,1.338358759880066,10.9405517578125,0.9002685546875,-0.457763671875
2.7499999,-9.919178009033203,-0.646434485912323,1.115697979927063,9.9029541015625,-1.861572265625,2.86865234375
2.7699999,-10.005369186401367,-0.6584054827690125,1.1851298809051514,-2.4261474609375,2.0599365234375,6.34765625
2.7899999,-9.943120002746582,-0.49799394607543945,1.2306196689605713,-13.61083984375,2.777099609375,6.927490234375
2.8099999,-9.988609313964844,-0.4141969084739685,1.3551181554794312,-13.5650634765625,0.48828125,6.0577392578125
2.8299999,-9.93354320526123,-0.3471592366695404,1.235408067703247,-5.5389404296875,-4.1961669921875,1.77001953125
2.8499999,-9.976638793945312,-0.3423708379268646,1.1037269830703735,3.5400390625,-4.058837890625,-0.7781982421875
2.8699999,-9.99100399017334,-0.3208230137825012,0.8738836050033569,11.9171142578125,-3.5247802734375,1.40380859375
2.8899999,-9.986215591430664,-0.2082955539226532,0.849941611289978,15.9149169921875,-8.697509765625,3.11279296875
2.9099999,-9.940725326538086,-0.07661445438861847,0.9768342971801758,9.3536376953125,-8.8653564453125,4.5928955078125
2.9299999,-9.852140426635742,0.12210428714752197,1.2114660739898682,-2.4871826171875,-6.927490234375,4.21142578125
2.9499999,-9.825803756713867,0.24420857429504395,1.6041151285171509,-9.5367431640625,-4.8828125,1.861572265625
2.9699999,-9.742006301879883,0.22744916379451752,1.7932571172714233,-9.246826171875,-4.4097900390625,-1.8157958984375
2.9899999,-9.68933391571045,0.1149216815829277,2.0254945755004883,-5.9967041015625,0.1068115234375,-5.7220458984375
3.0099999,-9.720458984375,-0.031124621629714966,2.0015525817871094,-3.7841796875,8.23974609375,-2.7008056640625
3.0299999,-9.6989107131958,-0.15083470940589905,2.0254945755004883,-3.997802734375,10.894775390625,1.739501953125
3.0499999,-9.744400978088379,-0.11971008777618408,1.8626888990402222,-8.087158203125,10.5133056640625,1.7547607421875
3.0699999,-9.813833236694336,-0.07182604819536209,1.6903064250946045,-10.55908203125,9.3536376953125,1.434326171875
3.0899999,-9.892841339111328,-0.004788403399288654,1.436521053314209,-8.4075927734375,3.7841796875,-0.946044921875
3.1099999,-10.000580787658691,-0.11971008777618408,1.070208191871643,-0.1068115234375,-1.708984375,-2.01416015625
3.1299999,-10.06043529510498,-0.2944868206977844,0.8858546018600464,11.0626220703125,-7.232666015625,-5.55419921875
3.1499999,-10.06043529510498,-0.49799394607543945,0.6344634294509888,17.39501953125,-6.622314453125,-4.730224609375
3.1699999,-10.0580415725708,-0.5770025849342346,0.6991068720817566,16.815185546875,-4.0130615234375,1.4495849609375
3.1899999,-9.976638793945312,-0.5339069962501526,0.8523358106613159,10.2691650390625,-5.950927734375,5.3558349609375
3.2099999,-9.943120002746582,-0.304063618183136,1.1468225717544556,0.9002685546875,-3.8299560546875,6.3934326171875
3.2299999,-9.864110946655273,-0.11013327538967133,1.4676456451416016,-5.79833984375,-4.730224609375,5.7525634765625
3.2499999,-9.888052940368652,0.08858546614646912,1.656787633895874,-8.0718994140625,-5.2032470703125,4.0435791015625
3.2699999,-9.816226959228516,0.12449848651885986,1.8100165128707886,-5.828857421875,-5.3253173828125,-0.6256103515625
3.2899999,-9.77791976928711,0.12449848651885986,1.920149803161621,-2.105712890625,-1.6937255859375,-4.5166015625
3.3099999,-9.775525093078613,0.10534487664699554,1.9345149993896484,-4.0130615234375,6.7138671875,-1.068115234375
3.3299999000000002,-9.770736694335938,0.06703764945268631,1.802833914756775,-11.6729736328125,8.0108642578125,1.983642578125
3.3499999,-9.804255485534668,0.047884032130241394,1.5753847360610962,-8.8653564453125,4.0283203125,2.2125244140625
3.3699999,-9.950302124023438,-0.11013327538967133,1.3287819623947144,-0.8087158203125,-3.4027099609375,1.1444091796875
3.3899999,-10.019734382629395,-0.2585737705230713,1.0749965906143188,9.002685546875,-9.1094970703125,1.1138916015625
3.4099999,-10.074800491333008,-0.47405192255973816,1.0199298858642578,16.9830322265625,-11.6729736328125,-1.2969970703125
3.4299999,-9.99339771270752,-0.5602431893348694,1.0869675874710083,18.4326171875,-6.927490234375,-0.3204345703125
3.4499999,-9.897629737854004,-0.4381389021873474,1.280897855758667,13.18359375,-0.7781982421875,6.0882568359375
3.4699999,-9.77791976928711,-0.16998831927776337,1.5729905366897583,3.0517578125,0.2288818359375,6.3934326171875
3.4899999,-9.732429504394531,0.18914192914962769,1.802833914756775,-8.1787109375,4.1961669921875,4.150390625
3.5099999,-9.708487510681152,0.5195417404174805,1.9800047874450684,-15.6707763671875,3.9520263671875,0.6103515625
3.5299999,-9.770736694335938,0.6344634294509888,2.027888774871826,-15.93017578125,3.8909912109375,-2.6702880859375
3.5499999,-9.737217903137207,0.5386953949928284,1.9584569931030273,-9.0789794921875,2.4871826171875,-7.6446533203125
3.5699999,-9.797073364257812,0.22266076505184174,1.7405846118927002,-0.732421875,3.7078857421875,-9.7503662109375
3.5899999,-9.847352027893066,-0.10295066982507706,1.4939818382263184,5.5389404296875,5.9051513671875,-4.4403076171875
3.6099999,-9.911994934082031,-0.37828385829925537,1.2617442607879639,8.2855224609375,2.3345947265625,2.8228759765625
3.6299999,-9.911994934082031,-0.48602294921875,1.173158884048462,3.47900390625,0.9765625,5.126953125
3.6499999,-9.950302124023438,-0.40701428055763245,1.2042834758758545,-0.2288818359375,1.068115234375,4.669189453125
3.6699999,-9.93593692779541,-0.2537853717803955,1.2976573705673218,-0.1220703125,-2.4566650390625,2.7313232421875
3.6899999,-9.95748519897461,-0.14365209639072418,1.436521053314209,-0.4425048828125,-3.11279296875,0.6256103515625
3.7099999,-9.921571731567383,-0.033518824726343155,1.5107412338256836,1.1749267578125,-2.1820068359375,-4.302978515625
3.7299999,-9.895236015319824,0.026336219161748886,1.5490485429763794,2.3040771484375,2.50244140625,-4.974365234375
3.7499999,-9.861717224121094,0.06703764945268631,1.5466543436050415,-1.7547607421875,6.103515625,0.640869140625
3.7699999,-9.813833236694336,0.13168109953403473,1.5322890281677246,-6.89697265625,4.33349609375,2.6397705078125
3.7899999,-9.832986831665039,0.12689268589019775,1.414973258972168,-8.8348388671875,2.777099609375,2.5787353515625
3.8099999,-9.852140426635742,0.12689268589019775,1.3934253454208374,-4.852294921875,-3.2501220703125,-0.091552734375
3.8299999000000002,-9.84495735168457,0.09816227108240128,1.3982137441635132,-0.396728515625,-6.622314453125,-2.227783203125
3.8499999,-9.792284965515137,0.090979665517807,1.577778935432434,-9.27734375,-3.2196044921875,-3.997802734375
3.8699999,-9.710882186889648,0.17477671802043915,2.013523578643799,-29.022216796875,10.0860595703125,-3.41796875
3.8899999,-9.567230224609375,0.24899697303771973,2.3702597618103027,-56.94580078125,27.83203125,-0.79345703125
3.9099999,-9.610325813293457,0.3016694188117981,2.7126305103302,-77.7587890625,38.0859375,3.5552978515625
3.9299999,-9.560047149658203,0.24899697303771973,2.561795711517334,-81.8634033203125,38.02490234375,6.7291259765625
3.9499999,-9.603142738342285,0.24899697303771973,2.3247697353363037,-76.0040283203125,38.360595703125,7.5225830078125
3.9699999,-9.947908401489258,0.021547814831137657,1.5155296325683594,-70.4193115234375,40.863037109375,-1.434326171875
3.9899999,-10.132261276245117,-0.06464344263076782,0.6224924325942993,-35.7513427734375,28.472900390625,-6.4849853515625
4.0099999,-10.472238540649414,-0.038307227194309235,0.06224924325942993,16.6778564453125,-2.4566650390625,-6.7596435546875
4.029999900000001,-10.407594680786133,-0.17717093229293823,-0.4644751250743866,5.4931640625,0.06103515625,-11.260986328125
4.0499999,-10.177751541137695,-0.13168109953403473,-0.13168109953403473,-14.892578125,11.8408203125,-14.2669677734375
4.069999900000001,-9.301473617553711,-0.2106897532939911,0.6248866319656372,-35.6597900390625,20.965576171875,-4.8065185546875
4.0899999000000005,-9.141061782836914,-0.8068459630012512,0.6655880808830261,-64.453125,41.473388671875,14.2974853515625
4.1099999,-8.26239013671875,-1.4939818382263184,0.2537853717803955,-12.14599609375,8.392333984375,8.7432861328125
4.1299999000000005,-8.094796180725098,-2.3702597618103027,-1.094150185585022,85.1898193359375,-41.3360595703125,19.47021484375
4.1499999,-7.927201747894287,-2.985569477081299,-2.410961151123047,160.6292724609375,-76.690673828125,22.247314453125
4.1699999000000005,-7.8745293617248535,-2.7293899059295654,-2.693476915359497,188.5833740234375,-92.620849609375,20.3399658203125
4.1899999,-8.362946510314941,-1.6855180263519287,-1.5275006294250488,154.2205810546875,-77.57568359375,23.5595703125
4.209999900000001,-9.342175483703613,0.14365209639072418,0.7876923680305481,77.484130859375,-37.322998046875,23.590087890625
4.2299999,-10.548852920532227,2.1715409755706787,3.287238836288452,-14.9688720703125,10.650634765625,11.016845703125
4.249999900000001,-11.628637313842773,3.801992416381836,4.903325080871582,-74.64599609375,46.1883544921875,-4.8980712890625
4.2699999,-12.617443084716797,4.460397720336914,5.216965675354004,-77.08740234375,50.3387451171875,-9.918212890625
4.289999900000001,-12.533645629882812,4.060565948486328,4.07014274597168,-52.7191162109375,31.707763671875,-27.34375
4.3099999,-12.595894813537598,2.7246015071868896,2.231395959854126,-15.9912109375,11.29150390625,-17.51708984375
4.329999900000001,-11.745953559875488,0.8786720037460327,0.36152446269989014,15.960693359375,-12.8326416015625,-25.1007080078125
4.3499999,-11.250353813171387,-0.8092401623725891,-0.9888052940368652,39.1845703125,-24.3377685546875,-12.6800537109375
4.369999900000001,-10.44350814819336,-2.0614075660705566,-1.2976573705673218,51.8341064453125,-40.191650390625,6.103515625
4.3899999,-9.619902610778809,-2.456450939178467,-0.6919242739677429,35.9344482421875,-34.2559814453125,14.6331787109375
4.409999900000001,-9.006986618041992,-2.0470423698425293,0.608127236366272,23.8494873046875,-13.3056640625,14.2822265625
4.4299999,-8.62391471862793,-0.9840168952941895,2.054224967956543,-11.871337890625,12.4969482421875,8.9263916015625
4.449999900000001,-8.597578048706055,0.15083470940589905,3.0095114707946777,-26.214599609375,26.1077880859375,4.364013671875
4.4699999,-8.844181060791016,1.0414776802062988,3.2752678394317627,-26.885986328125,25.146484375,-0.457763671875
4.489999900000001,-9.275136947631836,1.3910311460494995,2.8610711097717285,-19.4549560546875,19.8211669921875,-4.608154296875
4.5099999,-9.718064308166504,1.2234370708465576,2.1140801906585693,0.30517578125,14.0838623046875,-6.4849853515625
4.529999900000001,-10.074800491333008,0.7158663272857666,1.338358759880066,17.425537109375,7.7972412109375,-5.2490234375
4.5499999,-10.268731117248535,0.1364694982767105,0.8092401623725891,16.693115234375,2.1820068359375,-0.7476806640625
4.569999900000001,-10.280701637268066,-0.21308395266532898,0.6416460275650024,4.8828125,2.8839111328125,3.41796875
4.5899999000000005,-10.055646896362305,-0.2585737705230713,0.8020575642585754,-5.8441162109375,11.6119384765625,0.6256103515625
4.609999900000001,-9.761159896850586,-0.13168109953403473,1.1085153818130493,-14.373779296875,18.6767578125,-3.0670166015625
4.6299999000000005,-9.493009567260742,0.07661445438861847,1.316810965538025,-18.829345703125,21.270751953125,-1.1749267578125
4.6499999,-9.35654067993164,0.16519992053508759,1.41257905960083,-28.8238525390625,22.4456787109375,2.044677734375
4.6699999000000005,-9.308655738830566,0.2082955539226532,1.3694833517074585,-14.0228271484375,22.308349609375,-1.0528564453125
4.6899999,-9.30386734008789,0.2106897532939911,1.2545616626739502,9.6588134765625,24.71923828125,-7.87353515625
4.709999900000001,-9.373299598693848,0.14365209639072418,0.9959878921508789,18.035888671875,22.308349609375,-7.659912109375
4.7299999,-9.543288230895996,0,0.569819986820221,16.143798828125,12.420654296875,-2.25830078125
4.749999900000001,-9.931148529052734,-0.12210428714752197,-0.026336219161748886,15.1824951171875,-0.8392333984375,3.2196044921875
4.7699999,-10.3549222946167,-0.14365209639072418,-0.5793967843055725,29.7088623046875,-18.310546875,-3.6468505859375
4.789999900000001,-10.709263801574707,-0.0933738648891449,-0.8068459630012512,35.9039306640625,-29.815673828125,-10.8489990234375
4.8099999,-10.891223907470703,-0.0933738648891449,-0.5770025849342346,26.2298583984375,-27.77099609375,-3.23486328125
4.829999900000001,-10.800244331359863,-0.13407529890537262,0.05746084079146385,16.876220703125,-20.599365234375,4.1351318359375
4.8499999,-10.560823440551758,-0.26815059781074524,0.9241618514060974,1.7242431640625,-11.5509033203125,9.0484619140625
4.869999900000001,-10.247182846069336,-0.28730419278144836,1.6663644313812256,-10.1318359375,-0.396728515625,11.6119384765625
4.8899999,-10.019734382629395,-0.16759411990642548,2.121262788772583,-14.1143798828125,5.706787109375,13.48876953125
4.909999900000001,-9.947908401489258,0.06224924325942993,2.190694570541382,-11.566162109375,8.0413818359375,10.955810546875
4.9299999,-10.036493301391602,0.24899697303771973,2.0254945755004883,-5.126953125,7.843017578125,5.279541015625
4.949999900000001,-10.127472877502441,0.33997663855552673,1.721431016921997,-0.5035400390625,8.4075927734375,2.6092529296875
4.9699999,-10.153809547424316,0.4118026793003082,1.460463047027588,2.86865234375,9.765625,4.913330078125
4.989999900000001,-10.055646896362305,0.44532153010368347,1.3120225667953491,6.2103271484375,10.1165771484375,3.387451171875
5.0099999,-9.797073364257812,0.40940847992897034,1.1851298809051514,3.7384033203125,12.8631591796875,-0.885009765625
5.029999900000001,-9.495404243469238,0.3495534360408783,1.0749965906143188,-6.77490234375,18.1121826171875,1.2054443359375
5.0499999,-9.224859237670898,0.2298433631658554,0.8355764150619507,-11.29150390625,19.195556640625,8.331298828125
5.069999900000001,-8.999804496765137,0.09576806426048279,0.6033388376235962,-3.3111572265625,12.4969482421875,8.8043212890625
5.0899999000000005,-9.006986618041992,0.1628057211637497,0.6009446382522583,0.30517578125,9.4146728515625,5.889892578125
5.109999900000001,-9.29189682006836,0.33758243918418884,0.689530074596405,-17.578125,22.39990234375,4.69970703125
5.1299999000000005,-9.732429504394531,0.5817909836769104,0.9744400978088379,-24.658203125,31.2957763671875,2.4566650390625
5.1499999,-10.56800651550293,0.7254431247711182,0.993593692779541,-21.575927734375,31.707763671875,1.40380859375
5.1699999000000005,-11.109095573425293,0.730231523513794,0.6584054827690125,-8.5906982421875,23.5595703125,-0.457763671875
5.1899999,-11.39161205291748,0.6631938815116882,0.1149216815829277,10.498046875,7.50732421875,-2.5177001953125
5.209999900000001,-11.78904914855957,0.49559974670410156,-0.3926490843296051,19.775390625,-3.6163330078125,-6.072998046875
5.2299999,-11.255142211914062,0.33518823981285095,-0.7086837291717529,17.578125,-12.786865234375,-9.82666015625
5.249999900000001,-10.919954299926758,0.22266076505184174,-0.5746083855628967,16.4642333984375,-5.7373046875,-4.33349609375
5.2699999,-11.305420875549316,0.15083470940589905,-0.24420857429504395,19.4091796875,-0.701904296875,5.8135986328125
5.289999900000001,-10.606313705444336,0.12449848651885986,0.12210428714752197,18.4173583984375,-6.0577392578125,-20.050048828125
5.3099999,-11.738770484924316,0.48602294921875,0.44771572947502136,17.3187255859375,9.2620849609375,-3.3416748046875
5.329999900000001,-11.975796699523926,0.7972691655158997,0.5817909836769104,20.32470703125,3.1280517578125,3.2958984375
5.3499999,-12.301408767700195,1.2186486721038818,0.5817909836769104,17.9901123046875,-16.4642333984375,-22.186279296875
5.369999900000001,-12.148179054260254,1.4508862495422363,0.4620809257030487,21.270751953125,-5.8441162109375,-21.66748046875
5.3899999,-11.348516464233398,1.4245500564575195,0.26336219906806946,29.052734375,7.1868896484375,-13.3056640625
5.409999900000001,-10.170568466186523,1.1516109704971313,0.06464344263076782,32.28759765625,-1.1749267578125,-6.7901611328125
5.4299999,-9.002198219299316,0.7829039692878723,-0.1412578970193863,30.1513671875,-16.815185546875,0.5645751953125
5.449999900000001,-8.022970199584961,0.24181437492370605,-0.2777273952960968,39.5965576171875,-23.2086181640625,6.1187744140625
5.4699999,-7.273584842681885,-0.14604631066322327,-0.24660277366638184,49.6826171875,-22.3236083984375,4.4097900390625
5.489999900000001,-6.746860504150391,-0.4812345504760742,-0.090979665517807,47.4090576171875,-18.0511474609375,0.79345703125
5.5099999,-6.466738700866699,-0.5722141861915588,0.2537853717803955,37.04833984375,-7.0037841796875,1.64794921875
5.529999900000001,-6.481103897094727,-0.4620809257030487,0.689530074596405,21.9879150390625,6.7901611328125,5.523681640625
5.5499999,-6.775590896606445,-0.3232172429561615,1.070208191871643,6.4697265625,16.021728515625,2.8839111328125
5.569999900000001,-7.304709434509277,-0.22026655077934265,1.3096283674240112,-7.2174072265625,13.580322265625,-3.6773681640625
5.5899999000000005,-7.94635534286499,-0.19871874153614044,1.3455413579940796,-16.3421630859375,5.096435546875,-6.8359375
5.609999900000001,-8.53293514251709,-0.3064578175544739,1.2042834758758545,-18.2952880859375,-0.42724609375,-6.683349609375
5.6299999000000005,-9.047688484191895,-0.47405192255973816,0.9409212470054626,-15.44189453125,-2.9144287109375,-4.241943359375
5.6499999,-9.469067573547363,-0.667982280254364,0.6703764796257019,-13.1072998046875,-10.406494140625,0.1220703125
5.6699999000000005,-9.873687744140625,-0.7948749661445618,0.4668693244457245,-11.199951171875,-18.73779296875,4.7760009765625
5.6899999,-10.249577522277832,-0.8020575642585754,0.35913026332855225,-7.904052734375,-17.1661376953125,3.143310546875
5.709999900000001,-10.529699325561523,-0.6727706789970398,0.3256114423274994,-2.105712890625,-10.5743408203125,-4.1046142578125
5.7299999,-10.675745010375977,-0.40462008118629456,0.3519476354122162,2.685546875,-7.965087890625,-7.9498291015625
5.749999900000001,-10.6709566116333,-0.07661445438861847,0.3758896589279175,4.5928955078125,-1.40380859375,-5.5084228515625
5.7699999,-10.553641319274902,0.24899697303771973,0.40940847992897034,5.5389404296875,5.279541015625,1.220703125
5.789999900000001,-10.41956615447998,0.5195417404174805,0.47405192255973816,5.6915283203125,9.09423828125,10.0555419921875
5.8099999,-10.362105369567871,0.7206547260284424,0.545877993106842,4.8980712890625,13.275146484375,15.3045654296875
5.829999900000001,-10.374075889587402,0.8451532125473022,0.629675030708313,4.6844482421875,11.16943359375,12.3748779296875
5.8499999,-10.383652687072754,0.8810662031173706,0.6847416758537292,6.256103515625,5.1116943359375,2.9296875
5.869999900000001,-10.304644584655762,0.8092401623725891,0.7350199222564697,9.0179443359375,-0.213623046875,-2.3345947265625
5.8899999,-10.194510459899902,0.6488286852836609,0.7613561153411865,9.5367431640625,0.4119873046875,1.8310546875
5.909999900000001,-10.04846477508545,0.42856210470199585,0.8020575642585754,8.1634521484375,-4.425048828125,5.6304931640625
5.9299999,-10.32858657836914,0.18914192914962769,0.8762778043746948,5.096435546875,-17.1051025390625,3.0517578125
5.949999900000001,-10.453084945678711,0.07900865375995636,0.9169792532920837,1.678466796875,-17.6544189453125,-19.8974609375
5.9699999,-11.006145477294922,0.043095629662275314,0.933738648891449,0.79345703125,-11.4593505859375,-15.289306640625
5.989999900000001,-11.077971458435059,0.11971008777618408,0.849941611289978,0.732421875,-16.937255859375,-4.82177734375
6.0099999,-11.12106704711914,0.2346317619085312,0.7661445140838623,1.0986328125,-20.172119140625,-6.866455078125
6.029999900000001,-10.81460952758789,0.31124621629714966,0.6967126727104187,1.4190673828125,-21.97265625,-9.613037109375
6.0499999,-10.433931350708008,0.26815059781074524,0.7924807667732239,2.166748046875,-21.759033203125,-10.1318359375
6.069999900000001,-10.041281700134277,0.07661445438861847,1.0606313943862915,2.01416015625,-16.2353515625,-11.199951171875
6.0899999000000005,-9.782708168029785,-0.20350714027881622,1.436521053314209,-1.434326171875,-5.9814453125,-8.9111328125
6.109999900000001,-9.746794700622559,-0.5027823448181152,1.802833914756775,-4.791259765625,1.0986328125,-8.758544921875
6.1299999000000005,-9.813833236694336,-0.7589619159698486,2.0231003761291504,-5.2337646484375,-0.7476806640625,-18.00537109375
6.149999900000001,-9.797073364257812,-0.9193734526634216,2.0470423698425293,-3.8909912109375,-8.6212158203125,-21.636962890625
6.1699999000000005,-9.5624418258667,-1.0007762908935547,1.9105730056762695,-1.4190673828125,-13.4429931640625,-9.5977783203125
6.1899999,-9.10993766784668,-0.950498104095459,1.702277421951294,1.4190673828125,-10.1165771484375,6.591796875
6.209999900000001,-8.635885238647461,-0.7350199222564697,1.5466543436050415,1.52587890625,-0.732421875,12.054443359375
6.2299999,-8.71728801727295,-0.3064578175544739,1.4748282432556152,-3.23486328125,9.490966796875,10.2081298828125
6.249999900000001,-9.222464561462402,0.2082955539226532,1.4484920501708984,-9.9334716796875,9.94873046875,6.195068359375
6.2699999,-10.02452278137207,0.6368576288223267,1.403002142906189,-15.594482421875,10.009765625,6.6070556640625
6.289999900000001,-10.656591415405273,0.8140285611152649,1.3048399686813354,-18.7225341796875,7.3089599609375,5.67626953125
6.3099999,-10.721235275268555,0.7110779285430908,1.137245774269104,-19.3023681640625,5.615234375,3.326416015625
6.329999900000001,-10.417171478271484,0.36152446269989014,0.9409212470054626,-15.625,3.72314453125,2.9144287109375
6.3499999,-10.031704902648926,-0.07661445438861847,0.7493851184844971,-8.5296630859375,-0.8544921875,4.69970703125
6.369999900000001,-9.840168952941895,-0.43335050344467163,0.586579442024231,-2.1820068359375,-6.683349609375,7.6904296875
6.3899999,-9.90241813659668,-0.5841852426528931,0.4668693244457245,0.8392333984375,-10.7574462890625,9.979248046875
6.409999900000001,-9.995792388916016,-0.5123591423034668,0.3926490843296051,3.6163330078125,-14.7552490234375,8.270263671875
6.4299999,-10.031704902648926,-0.24660277366638184,0.43335050344467163,9.2620849609375,-20.1568603515625,5.218505859375
6.449999900000001,-9.96945571899414,0.10534487664699554,0.6512228846549988,11.9171142578125,-23.3154296875,1.434326171875
6.4699999,-9.84495735168457,0.44771572947502136,1.01753568649292,5.828857421875,-19.4549560546875,-1.556396484375
6.489999900000001,-9.78989028930664,0.6847416758537292,1.4748282432556152,-2.2430419921875,-13.9923095703125,-3.84521484375
6.5099999,-9.75397777557373,0.7469909191131592,1.9560627937316895,-8.3770751953125,-10.2996826171875,-5.0811767578125
6.529999900000001,-9.737217903137207,0.6536170840263367,2.3798365592956543,-16.204833984375,-4.3487548828125,-4.058837890625
6.5499999,-9.68933391571045,0.45010992884635925,2.734178304672241,-26.4434814453125,5.43212890625,-1.4190673828125
6.569999900000001,-9.617507934570312,0.17238251864910126,2.937685489654541,-37.9791259765625,15.228271484375,0.213623046875
6.5899999000000005,-9.569623947143555,-0.15083470940589905,2.999934673309326,-43.2281494140625,20.3399658203125,3.2501220703125
6.609999900000001,-9.59835433959961,-0.40940847992897034,2.7916390895843506,-40.924072265625,24.5819091796875,8.209228515625
6.6299999000000005,-9.730035781860352,-0.6655880808830261,2.279279947280884,-31.92138671875,26.4434814453125,10.8489990234375
6.649999900000001,-9.959878921508789,-0.7469909191131592,1.5945383310317993,-14.9078369140625,19.7601318359375,11.260986328125
6.6699999000000005,-10.15141487121582,-0.6248866319656372,0.8044517636299133,1.9073486328125,8.6517333984375,11.199951171875
6.6899999,-10.335768699645996,-0.2825157940387726,0.08619125932455063,13.4124755859375,-1.373291015625,10.43701171875
6.709999900000001,-10.38604736328125,0.17717093229293823,-0.40222588181495667,22.4151611328125,-16.143798828125,3.692626953125
6.7299999,-10.357316970825195,0.608127236366272,-0.5219359993934631,26.1077880859375,-26.0467529296875,-6.9427490234375
6.749999900000001,-10.230423927307129,0.8523358106613159,-0.2968810200691223,23.9410400390625,-27.7862548828125,-12.8021240234375
6.7699999,-10.067618370056152,0.8403648138046265,0.26815059781074524,20.0653076171875,-24.7344970703125,-12.2833251953125
6.789999900000001,-9.876082420349121,0.6057330369949341,0.9983820915222168,14.251708984375,-18.5546875,-9.8876953125
6.8099999,-9.734824180603027,0.24181437492370605,1.6687586307525635,8.026123046875,-13.427734375,-5.2490234375
6.829999900000001,-9.648633003234863,0.002394201699644327,2.1739351749420166,5.950927734375,-11.4898681640625,-0.5035400390625
6.8499999,-9.66299819946289,-0.18914192914962769,2.4636335372924805,5.5389404296875,-13.1988525390625,1.8768310546875
6.869999900000001,-9.696516990661621,-0.2082955539226532,2.559401512145996,0.4730224609375,-11.627197265625,-0.67138671875
6.8899999,-9.72285270690918,-0.15801730751991272,2.537853717803955,-4.8828125,-6.16455078125,-3.143310546875
6.909999900000001,-9.694122314453125,-0.1149216815829277,2.432508945465088,-5.950927734375,-1.5869140625,-3.1280517578125
6.9299999,-9.655815124511719,-0.06464344263076782,2.27209734916687,-6.1187744140625,1.6021728515625,-1.861572265625
6.949999900000001,-9.622296333312988,-0.0454898327589035,2.0614075660705566,-6.011962890625,1.3427734375,-0.152587890625
6.9699999,-9.730035781860352,-0.009576806798577309,1.8076223134994507,-3.23486328125,-0.2593994140625,2.1514892578125
6.989999900000001,-9.840168952941895,0.06224924325942993,1.6352397203445435,1.03759765625,-7.9345703125,1.9378662109375
7.0099999,-9.950302124023438,0.1149216815829277,1.5155296325683594,3.0517578125,-11.6729736328125,-4.0435791015625
7.029999900000001,-9.955090522766113,0.09576806426048279,1.4915876388549805,4.6844482421875,-8.819580078125,-8.11767578125
7.0499999,-9.885659217834473,0.07900865375995636,1.5538369417190552,9.5672607421875,-7.2784423828125,-6.866455078125
7.069999900000001,-9.763554573059082,0.026336219161748886,1.7501614093780518,11.688232421875,-7.7056884765625,-5.035400390625
7.0899999000000005,-9.691728591918945,0.016759412363171577,1.9393033981323242,3.3111572265625,-4.8828125,-2.349853515625
7.109999900000001,-9.718064308166504,0.07182604819536209,2.212242364883423,-8.6669921875,0.701904296875,0.8087158203125
7.1299999000000005,-9.710882186889648,0.08858546614646912,2.410961151123047,-16.265869140625,-0.518798828125,0.3204345703125
7.149999900000001,-9.6989107131958,0.05746084079146385,2.537853717803955,-18.310546875,0.8544921875,-4.058837890625
7.1699999000000005,-9.653421401977539,-0.09816227108240128,2.454056739807129,-16.5863037109375,6.8511962890625,-4.1656494140625
7.1899999,-9.679757118225098,-0.3878606855869293,1.9800047874450684,-1.8768310546875,2.288818359375,2.166748046875
7.209999900000001,-9.804255485534668,-0.38307225704193115,1.7094600200653076,2.9296875,-1.64794921875,3.23486328125
7.2299999,-9.931148529052734,-0.23942017555236816,1.6065093278884888,3.6468505859375,-4.9591064453125,4.119873046875
7.249999900000001,-9.955090522766113,-0.009576806798577309,1.6831238269805908,0.244140625,-8.697509765625,-2.716064453125
7.2699999,-9.852140426635742,0.16998831927776337,1.886630892753601,-5.0048828125,-3.2958984375,-9.9029541015625
7.289999900000001,-9.703699111938477,0.2992752194404602,2.142810583114624,-7.9498291015625,5.2642822265625,-9.918212890625
7.3099999,-9.57201862335205,0.3280056416988373,2.387019157409668,-8.9111328125,10.43701171875,-8.8348388671875
7.329999900000001,-9.502586364746094,0.2753331959247589,2.451662540435791,-8.514404296875,11.1236572265625,-10.2996826171875
7.3499999,-9.610325813293457,0.16759411990642548,2.43011474609375,-4.913330078125,12.6800537109375,-9.2315673828125
7.369999900000001,-9.775525093078613,-0.05027823522686958,2.2577321529388428,1.708984375,5.5999755859375,-6.2713623046875
7.3899999,-9.861717224121094,-0.3711012601852417,2.078166961669922,3.753662109375,1.2054443359375,-9.735107421875
7.409999900000001,-9.9000244140625,-0.727837324142456,1.9249382019042969,3.4637451171875,6.805419921875,-9.7198486328125
7.4299999,-9.806650161743164,-1.0342950820922852,1.8267759084701538,5.5999755859375,10.0860595703125,-3.23486328125
7.449999900000001,-9.730035781860352,-1.1204863786697388,1.8339585065841675,6.3934326171875,10.3912353515625,1.800537109375
7.4699999,-9.730035781860352,-1.0247182846069336,1.7310078144073486,3.570556640625,9.46044921875,3.6773681640625
7.489999900000001,-9.86889934539795,-0.7613561153411865,1.659181833267212,3.692626953125,9.033203125,5.79833984375
7.5099999,-9.988609313964844,-0.3974374830722809,1.5610195398330688,5.859375,-0.213623046875,5.3253173828125
7.529999900000001,-10.010157585144043,-0.22505496442317963,1.4508862495422363,3.2196044921875,-2.1209716796875,-2.3193359375
7.5499999,-9.950302124023438,-0.15562310814857483,1.3934253454208374,2.8228759765625,0.5035400390625,-4.791259765625
7.569999900000001,-9.801861763000488,-0.181959331035614,1.3479355573654175,7.568359375,-0.244140625,-1.0528564453125
7.5899999000000005,-9.758766174316406,-0.33039984107017517,1.403002142906189,7.598876953125,-2.3040771484375,1.7547607421875
7.609999900000001,-9.727641105651855,-0.2944868206977844,1.5203180313110352,-0.2593994140625,-0.3204345703125,3.7384033203125
7.6299999000000005,-9.849745750427246,-0.24899697303771973,1.7310078144073486,-6.2408447265625,2.0294189453125,6.8359375
7.649999900000001,-9.876082420349121,-0.15562310814857483,1.9033904075622559,-8.8958740234375,-0.9613037109375,5.79833984375
7.6699999000000005,-9.919178009033203,-0.1388636976480484,2.0159177780151367,-9.8724365234375,-1.6632080078125,-1.4495849609375
7.6899999,-9.837775230407715,-0.12689268589019775,1.98958158493042,-7.110595703125,1.068115234375,-4.1961669921875
7.709999900000001,-9.792284965515137,-0.24181437492370605,1.9129672050476074,-2.5787353515625,2.6702880859375,-0.1220703125
7.7299999,-9.782708168029785,-0.28969839215278625,1.778891921043396,-3.173828125,3.2501220703125,2.777099609375
7.749999900000001,-9.770736694335938,-0.3016694188117981,1.6687586307525635,-7.2479248046875,1.3580322265625,3.7078857421875
7.7699999,-9.861717224121094,-0.2825157940387726,1.6831238269805908,-8.1329345703125,-0.396728515625,4.69970703125
7.789999900000001,-9.890447616577148,-0.26575639843940735,1.6831238269805908,-7.415771484375,-2.3040771484375,3.9215087890625
7.8099999,-9.895236015319824,-0.2849099934101105,1.7908629179000854,-3.90625,-1.8157958984375,-0.8697509765625
7.829999900000001,-9.852140426635742,-0.3447650372982025,1.8626888990402222,3.326416015625,-0.4119873046875,-3.84521484375
7.8499999,-9.797073364257812,-0.26815059781074524,1.9823989868164062,8.056640625,2.5177001953125,-0.213623046875
7.869999900000001,-9.737217903137207,-0.17956513166427612,2.0901381969451904,3.2806396484375,9.002685546875,-0.48828125
7.8899999,-9.679757118225098,0.06703764945268631,2.1787235736846924,-6.53076171875,13.0462646484375,-1.5716552734375
7.909999900000001,-9.679757118225098,0.15322890877723694,2.1571757793426514,-12.542724609375,12.542724609375,-2.8076171875
7.9299999,-9.761159896850586,0.16998831927776337,1.9273324012756348,-13.1683349609375,8.209228515625,-1.77001953125
7.949999900000001,-9.876082420349121,-0.10773907601833344,1.5969325304031372,-6.866455078125,2.2430419921875,-4.5166015625
7.9699999,-9.967061996459961,-0.43095630407333374,1.2042834758758545,5.5389404296875,-1.7852783203125,-6.5155029296875
7.989999900000001,-10.010157585144043,-0.8044517636299133,0.950498104095459,16.510009765625,-5.126953125,-1.2664794921875
8.0099999,-9.962273597717285,-0.9241618514060974,0.8236053586006165,19.744873046875,-6.0882568359375,2.716064453125
8.0299999,-9.914389610290527,-0.8427590131759644,0.9840168952941895,13.763427734375,-7.293701171875,5.3558349609375
8.049999900000001,-9.876082420349121,-0.5027823448181152,1.2497732639312744,3.021240234375,-5.67626953125,3.4637451171875
8.069999900000001,-9.856928825378418,-0.07900865375995636,1.6759412288665771,-6.16455078125,-4.8675537109375,3.0364990234375
8.0899999,-9.84495735168457,0.19153612852096558,1.9919757843017578,-12.3443603515625,-3.875732421875,-0.3204345703125
8.1099999,-9.746794700622559,0.2537853717803955,2.2026655673980713,-11.1846923828125,-0.6866455078125,-7.5531005859375
8.129999900000001,-9.691728591918945,0.15801730751991272,2.2649147510528564,-6.4697265625,3.5858154296875,-6.683349609375
8.149999900000001,-9.63187313079834,-0.07661445438861847,2.1930887699127197,-4.7760009765625,6.9122314453125,-2.8533935546875
8.1699999,-9.706093788146973,-0.2777273952960968,2.073378562927246,-8.6822509765625,8.23974609375,1.5716552734375
8.1899999,-9.799467086791992,-0.43095630407333374,1.8986018896102905,-12.7716064453125,8.087158203125,2.471923828125
8.2099999,-9.916783332824707,-0.507570743560791,1.6687586307525635,-8.36181640625,3.4332275390625,2.6702880859375
8.229999900000001,-9.986215591430664,-0.5267243981361389,1.436521053314209,1.0986328125,-5.157470703125,2.2125244140625
8.2499999,-9.998186111450195,-0.6105214357376099,1.1875240802764893,12.87841796875,-10.19287109375,-3.8299560546875
8.2699999,-9.947908401489258,-0.5578489899635315,1.0319008827209473,23.5443115234375,-12.1002197265625,-5.6915283203125
8.2899999,-9.95748519897461,-0.6129156351089478,1.05105459690094,26.4129638671875,-11.322021484375,-1.5869140625
8.309999900000001,-9.8784761428833,-0.40940847992897034,1.2737152576446533,19.2108154296875,-8.85009765625,2.0599365234375
8.3299999,-9.837775230407715,-0.3064578175544739,1.6424223184585571,5.06591796875,-5.67626953125,3.5247802734375
8.3499999,-9.713275909423828,-0.05267243832349777,2.049436569213867,-6.16455078125,-1.6326904296875,2.197265625
8.3699999,-9.646238327026367,0.047884032130241394,2.3942017555236816,-11.77978515625,-0.6256103515625,2.25830078125
8.389999900000001,-9.600749015808105,0.07900865375995636,2.5330653190612793,-12.75634765625,1.2969970703125,-1.434326171875
8.4099999,-9.605537414550781,-0.05267243832349777,2.4684219360351562,-8.758544921875,4.6234130859375,-6.256103515625
8.4299999,-9.655815124511719,-0.22266076505184174,2.2912509441375732,-3.0975341796875,7.1563720703125,-3.7384033203125
8.4499999,-9.713275909423828,-0.33997663855552673,1.9967641830444336,-0.5035400390625,7.26318359375,0.2899169921875
8.469999900000001,-9.794678688049316,-0.4405331015586853,1.7717092037200928,-3.3416748046875,5.6304931640625,2.99072265625
8.4899999,-9.916783332824707,-0.42856210470199585,1.534683346748352,-4.9591064453125,3.5400390625,2.716064453125
8.5099999,-9.976638793945312,-0.3734954595565796,1.4293384552001953,0,-3.0670166015625,2.5482177734375
8.5299999,-10.02691650390625,-0.3734954595565796,1.359906554222107,5.1116943359375,-8.514404296875,0.885009765625
8.549999900000001,-9.945513725280762,-0.3734954595565796,1.3886369466781616,8.85009765625,-8.0718994140625,-4.8980712890625
8.569999900000001,-9.84495735168457,-0.3734954595565796,1.5442601442337036,10.528564453125,-4.5013427734375,-6.4239501953125
8.5899999,-9.737217903137207,-0.31124621629714966,1.7334020137786865,6.5765380859375,0.1220703125,-1.373291015625
8.6099999,-9.701305389404297,-0.21547815203666687,2.032677173614502,-4.5318603515625,4.9285888671875,2.471923828125
8.629999900000001,-9.68694019317627,-0.08140286058187485,2.183511972427368,-16.204833984375,8.331298828125,2.9296875
8.649999900000001,-9.746794700622559,-0.0454898327589035,2.2864625453948975,-18.4478759765625,7.26318359375,1.8310546875
8.6699999,-9.794678688049316,-0.07661445438861847,2.1284453868865967,-12.908935546875,1.1138916015625,1.495361328125
8.6899999,-9.852140426635742,-0.24420857429504395,1.9345149993896484,-4.5318603515625,-2.2125244140625,-1.9683837890625
8.709999900000001,-9.849745750427246,-0.4357447028160095,1.6663644313812256,2.25830078125,-1.5716552734375,-4.69970703125
8.729999900000001,-9.864110946655273,-0.5554547905921936,1.4532804489135742,6.3323974609375,-0.244140625,-1.5869140625
8.7499999,-9.840168952941895,-0.5626373887062073,1.4532804489135742,8.1024169921875,-0.823974609375,3.265380859375
8.7699999,-9.84256362915039,-0.42616790533065796,1.4484920501708984,2.62451171875,-2.5634765625,4.364013671875
8.7899999,-9.799467086791992,-0.2106897532939911,1.6304513216018677,-3.1890869140625,-1.5716552734375,1.1444091796875
8.809999900000001,-9.823410034179688,-0.040701430290937424,1.802833914756775,-4.5318603515625,-3.814697265625,-0.42724609375
8.8299999,-9.780313491821289,0.040701430290937424,2.0470423698425293,-6.0577392578125,-3.6163330078125,-2.777099609375
8.8499999,-9.785101890563965,-0.07422025501728058,2.183511972427368,-7.568359375,1.6021728515625,-7.14111328125
8.8699999,-9.737217903137207,-0.17238251864910126,2.2601263523101807,-7.50732421875,7.7362060546875,-5.6304931640625
8.889999900000001,-9.737217903137207,-0.40222588181495667,2.207453966140747,-5.9967041015625,9.6282958984375,0.7171630859375
8.9099999,-9.706093788146973,-0.45489832758903503,2.0254945755004883,-6.622314453125,6.927490234375,4.364013671875
8.9299999,-9.775525093078613,-0.569819986820221,1.7693150043487549,-8.36181640625,5.3558349609375,4.7760009765625
8.9499999,-9.864110946655273,-0.5219359993934631,1.5514427423477173,-3.7384033203125,-0.8087158203125,4.4403076171875
8.969999900000001,-9.983820915222168,-0.5147533416748047,1.359906554222107,3.997802734375,-8.5296630859375,3.204345703125
8.9899999,-9.952696800231934,-0.4644751250743866,1.3072341680526733,10.5743408203125,-11.077880859375,-2.38037109375
9.0099999,-9.926360130310059,-0.395043283700943,1.3646949529647827,11.962890625,-7.7667236328125,-5.126953125
9.0299999,-9.780313491821289,-0.2753331959247589,1.6112977266311646,4.0740966796875,-0.91552734375,-0.9002685546875
9.049999900000001,-9.679757118225098,-0.08379705995321274,1.946485996246338,-10.5133056640625,5.3253173828125,2.5787353515625
9.069999900000001,-9.603142738342285,0.11971008777618408,2.3271639347076416,-27.7557373046875,10.101318359375,3.509521484375
9.0899999,-9.588777542114258,0.19393034279346466,2.5665841102600098,-41.0003662109375,17.608642578125,1.495361328125
9.1099999,-9.543288230895996,0.21308395266532898,2.765302896499634,-40.58837890625,15.19775390625,0.1678466796875
9.129999900000001,-9.519346237182617,0.07661445438861847,2.7892448902130127,-46.112060546875,19.866943359375,-1.2664794921875
9.149999900000001,-8.999804496765137,-0.1364694982767105,2.652775526046753,-65.7196044921875,35.0494384765625,1.8310546875
9.1699999,-8.288725852966309,-0.751779317855835,2.099714994430542,-60.8673095703125,39.9017333984375,13.9923095703125
9.1899999,-7.592013359069824,-1.3886369466781616,1.158793568611145,-1.068115234375,17.4560546875,16.1895751953125
9.209999900000001,-7.6782050132751465,-2.0853497982025146,0.028730420395731926,72.4945068359375,-12.725830078125,13.885498046875
9.229999900000001,-8.638279914855957,-2.231395959854126,-0.5363011956214905,115.66162109375,-35.4461669921875,15.19775390625
9.2499999,-10.096348762512207,-1.3742717504501343,-0.011971008032560349,88.6383056640625,-32.5775146484375,16.6778564453125
9.2699999,-11.389217376708984,-0.011971008032560349,1.5634137392044067,2.655029296875,9.8114013671875,15.899658203125
9.2899999,-11.628637313842773,1.9369091987609863,3.9887399673461914,-95.184326171875,65.2618408203125,7.6446533203125
9.309999900000001,-11.293449401855469,3.380612850189209,5.604825973510742,-204.803466796875,121.307373046875,9.613037109375
9.3299999,-10.498574256896973,4.019864559173584,5.767632007598877,-270.20263671875,138.0157470703125,18.1884765625
9.3499999,-10.194510459899902,3.4380736351013184,3.663128614425659,-227.60009765625,107.8948974609375,18.06640625
9.3699999,-10.24000072479248,1.968033790588379,0.29209262132644653,-108.2611083984375,43.365478515625,9.7503662109375
9.389999900000001,-10.666168212890625,0.023942016065120697,-3.4835634231567383,-11.3372802734375,-17.2576904296875,4.669189453125
9.4099999,-11.003750801086426,-1.4628572463989258,-5.803544998168945,58.380126953125,-50.8270263671875,-0.274658203125
9.4299999,-10.975020408630371,-2.0398597717285156,-5.983109951019287,80.2459716796875,-63.0950927734375,1.2359619140625
9.4499999,-10.553641319274902,-1.7717092037200928,-4.309563159942627,40.83251953125,-41.9769287109375,2.7923583984375
9.469999900000001,-9.926360130310059,-1.0342950820922852,-1.6376339197158813,-8.0718994140625,-10.0555419921875,2.62451171875
9.4899999,-9.32541561126709,-0.2346317619085312,0.8379706144332886,-20.99609375,6.317138671875,4.94384765625
9.5099999,-8.93037223815918,0.24660277366638184,2.3295583724975586,-9.5672607421875,12.39013671875,4.150390625
9.5299999,-8.736441612243652,0.4596867263317108,2.806004285812378,0.518798828125,12.786865234375,1.5106201171875
9.549999900000001,-8.803479194641113,0.4668693244457245,2.5977089405059814,-12.7410888671875,12.14599609375,3.7841796875
9.569999900000001,-9.016563415527344,0.33997663855552673,2.070984363555908,-14.6026611328125,17.333984375,5.218505859375
9.5899999,-9.44991397857666,0.19871874153614044,1.3718775510787964,4.0130615234375,19.6990966796875,6.28662109375
9.6099999,-10.010157585144043,0.19871874153614044,0.6009446382522583,10.711669921875,10.894775390625,4.302978515625
9.629999900000001,-10.608707427978516,0.3734954595565796,-0.16998831927776337,12.8326416015625,-1.6021728515625,-5.1422119140625
9.649999900000001,-11.08994197845459,0.5746083855628967,-0.7493851184844971,1.3427734375,-10.0860595703125,-14.007568359375
9.6699999,-11.310209274291992,0.6177040338516235,-1.0893617868423462,-6.0272216796875,-15.350341796875,-15.045166015625
9.6899999,-11.216835021972656,0.4357447028160095,-0.9481038451194763,-3.2806396484375,-22.6898193359375,-9.2926025390625
9.709999900000001,-10.807426452636719,0.031124621629714966,-0.45489832758903503,2.5177001953125,-22.4456787109375,-4.9896240234375
9.729999900000001,-10.268731117248535,-0.40940847992897034,0.2753331959247589,-0.6866455078125,-11.199951171875,0.1220703125
9.7499999,-9.765948295593262,-0.6919242739677429,0.9744400978088379,-10.894775390625,-0.1678466796875,9.185791015625
9.7699999,-9.385271072387695,-0.5913678407669067,1.721431016921997,-16.0675048828125,3.3721923828125,14.2364501953125
9.7899999,-9.05487060546875,-0.06703764945268631,2.451662540435791,-48.4771728515625,20.6451416015625,10.772705078125
9.809999900000001,-8.954314231872559,0.6967126727104187,2.956839084625244,-120.0103759765625,63.5986328125,8.9111328125
9.8299999,-8.951920509338379,1.1252747774124146,2.6360161304473877,-160.3851318359375,87.1734619140625,10.4827880859375
9.8499999,-9.442731857299805,0.9193734526634216,1.4053963422775269,-116.4703369140625,63.5528564453125,11.9781494140625
9.8699999,-10.144232749938965,0.33758243918418884,-0.23942017555236816,-26.5350341796875,5.462646484375,12.786865234375
9.889999900000001,-10.867281913757324,-0.3663128614425659,-1.678335428237915,8.9263916015625,-28.3966064453125,11.65771484375
9.9099999,-11.343728065490723,-0.6919242739677429,-2.0685901641845703,-1.800537109375,-16.78466796875,12.75634765625
9.9299999,-11.171344757080078,0.043095629662275314,-0.7852981686592102,-12.176513671875,3.326416015625,8.1329345703125
9.9499999,-10.747570991516113,0.5602431893348694,0.49799394607543945,-89.90478515625,29.022216796875,4.150390625
9.969999900000001,-10.213664054870605,1.2832920551300049,1.6663644313812256,-139.6636962890625,80.4901123046875,-3.265380859375
9.9899999,-9.988609313964844,1.1540051698684692,1.3263877630233765,-112.945556640625,79.2999267578125,0.8392333984375
10.0099999,-9.880870819091797,0.2968810200691223,-0.4812345504760742,-31.6009521484375,23.406982421875,4.5013427734375
10.0299999,-10.110713958740234,-0.6177040338516235,-2.873042106628418,68.4356689453125,-36.0107421875,13.4429931640625
10.049999900000001,-10.034099578857422,-1.1659762859344482,-4.580107688903809,123.59619140625,-82.977294921875,6.805419921875
10.069999900000001,-9.813833236694336,-0.9169792532920837,-4.8051629066467285,116.1651611328125,-85.6781005859375,1.861572265625
10.0899999,-9.184157371520996,-0.043095629662275314,-3.442862033843994,76.47705078125,-59.4482421875,0.4425048828125
10.1099999,-8.609549522399902,0.9313444495201111,-1.2425906658172607,37.811279296875,-20.4010009765625,-1.861572265625
10.129999900000001,-8.315062522888184,1.4939818382263184,0.7781155705451965,15.44189453125,11.5966796875,-6.7901611328125
10.149999900000001,-8.492233276367188,1.6160861253738403,2.1284453868865967,15.8538818359375,18.2952880859375,-9.1705322265625
10.1699999,-9.205705642700195,1.2737152576446533,2.5522189140319824,15.411376953125,9.0789794921875,-3.5858154296875
10.1899999,-9.995792388916016,0.7230489253997803,2.3319525718688965,8.60595703125,1.2969970703125,1.0528564453125
10.209999900000001,-10.548852920532227,0.13407529890537262,1.821987509727478,7.8277587890625,4.0130615234375,5.6915283203125
10.229999900000001,-10.6925048828125,-0.3232172429561615,1.1420341730117798,18.73779296875,6.89697265625,12.786865234375
10.2499999,-10.484209060668945,-0.5363011956214905,0.43335050344467163,33.9202880859375,2.166748046875,16.6473388671875
10.2699999,-10.201693534851074,-0.4620809257030487,-0.3016694188117981,44.9066162109375,-7.38525390625,13.61083984375
10.2899999,-10.010157585144043,-0.11252748221158981,-0.8475474119186401,54.595947265625,-18.5546875,8.1329345703125
10.309999900000001,-9.940725326538086,0.363918662071228,-1.01753568649292,61.126708984375,-24.1851806640625,3.6163330078125
10.3299999,-9.981427192687988,0.7493851184844971,-0.7709329724311829,59.02099609375,-20.477294921875,0.2593994140625
10.3499999,-10.093954086303711,1.0103530883789062,-0.2801215946674347,48.6907958984375,-12.939453125,0.091552734375
10.3699999,-10.196905136108398,1.1228805780410767,0.2944868206977844,35.0799560546875,-8.7738037109375,1.28173828125
10.389999900000001,-10.309432983398438,1.0678139925003052,0.7254431247711182,21.8658447265625,-4.21142578125,1.03759765625
10.4099999,-10.383652687072754,0.8906430602073669,0.9481038451194763,12.51220703125,1.8768310546875,2.62451171875
10.4299999,-10.400412559509277,0.6703764796257019,0.9481038451194763,10.833740234375,4.69970703125,6.805419921875
10.4499999,-10.359710693359375,0.4357447028160095,0.7852981686592102,17.5628662109375,1.068115234375,9.1552734375
10.469999900000001,-10.20887565612793,0.24899697303771973,0.5291185975074768,23.8037109375,-2.960205078125,9.58251953125
10.4899999,-9.955090522766113,0.21787235140800476,0.2968810200691223,23.8494873046875,-2.7618408203125,12.4969482421875
10.5099999,-9.607931137084961,0.4884171485900879,0.2059013396501541,21.3470458984375,-0.457763671875,13.763427734375
10.5299999,-9.148244857788086,1.015141487121582,0.26815059781074524,14.3280029296875,3.3721923828125,4.7149658203125
10.549999900000001,-8.820239067077637,1.5969325304031372,0.3758896589279175,0.6256103515625,10.955810546875,-8.3465576171875
10.569999900000001,-8.506598472595215,1.9632453918457031,0.5602431893348694,-10.894775390625,14.373779296875,-15.2587890625
10.5899999,-8.585607528686523,1.8746598958969116,0.5650315880775452,-22.705078125,17.9901123046875,-7.6141357421875
10.6099999,-8.875306129455566,1.2689268589019775,0.3016694188117981,-19.744873046875,16.9525146484375,0.6561279296875
10.629999900000001,-9.502586364746094,0.5099649429321289,-0.18914192914962769,6.011962890625,3.4942626953125,5.859375
10.649999900000001,-10.280701637268066,-0.035913024097681046,-0.7852981686592102,30.426025390625,-13.3514404296875,8.23974609375
10.6699999,-11.401188850402832,-0.11971008777618408,-1.2497732639312744,46.8597412109375,-26.2298583984375,6.0577392578125
10.6899999,-11.75792407989502,0.2322375625371933,-1.5275006294250488,61.21826171875,-22.15576171875,-0.457763671875
10.709999900000001,-13.833697319030762,1.0869675874710083,-1.4101848602294922,72.998046875,-18.096923828125,7.659912109375
10.729999900000001,-14.441824913024902,1.6639702320098877,-1.1276689767837524,80.1239013671875,-59.7381591796875,-51.4984130859375
10.7499999,-15.205574989318848,2.097320795059204,-0.5506663918495178,79.2388916015625,-46.4935302734375,-86.761474609375
10.7699999,-14.623784065246582,1.9943699836730957,0.07182604819536209,76.5380859375,5.4931640625,-71.10595703125
10.7899999,-12.746729850769043,1.601720929145813,0.6703764796257019,63.29345703125,11.9781494140625,-36.2701416015625
10.809999900000001,-10.429142951965332,1.1204863786697388,1.0342950820922852,44.1436767578125,-4.6539306640625,-6.4239501953125
10.8299999,-8.49941635131836,0.689530074596405,1.2258312702178955,28.6712646484375,-0.67138671875,10.4522705078125
10.8499999,-7.247248649597168,0.43335050344467163,1.2306196689605713,19.8211669921875,12.8021240234375,10.345458984375
10.8699999,-6.7492547035217285,0.21547815203666687,0.9864110946655273,17.51708984375,25.5279541015625,-4.3792724609375
10.889999900000001,-6.830657482147217,0.0694318488240242,0.667982280254364,31.3873291015625,26.0162353515625,-15.411376953125
10.9099999,-7.2113356590271,-0.07182604819536209,0.26575639843940735,43.8690185546875,14.434814453125,-11.077880859375
10.9299999,-7.623138427734375,-0.16998831927776337,-0.009576806798577309,44.403076171875,2.99072265625,-3.570556640625
10.9499999,-7.91283655166626,-0.17956513166427612,-0.033518824726343155,40.1763916015625,-1.1749267578125,0.3509521484375
10.969999900000001,-8.125920295715332,-0.10055647045373917,0.1173158809542656,32.989501953125,2.62451171875,5.2642822265625
10.9899999,-8.303091049194336,0.038307227194309235,0.33997663855552673,25.604248046875,4.791259765625,11.41357421875
11.0099999,-8.51138687133789,0.17717093229293823,0.5195417404174805,21.7742919921875,3.875732421875,9.765625
11.0299999,-8.746018409729004,0.27054479718208313,0.6057330369949341,21.1334228515625,0.79345703125,4.0130615234375
11.049999900000001,-8.99740982055664,0.07900865375995636,0.6200982332229614,10.3912353515625,-8.97216796875,2.716064453125
11.069999900000001,-8.920795440673828,-0.24660277366638184,0.6177040338516235,4.1656494140625,-7.2174072265625,-0.06103515625
11.0899999,-8.793902397155762,-0.6847416758537292,0.629675030708313,-0.518798828125,-4.119873046875,-1.953125
11.1099999,-8.734047889709473,-1.1013327836990356,0.6655880808830261,-6.7291259765625,-5.462646484375,-0.5035400390625
11.129999900000001,-8.80587387084961,-1.4460978507995605,0.7206547260284424,-13.427734375,-9.613037109375,-1.7852783203125
11.149999900000001,-9.004592895507812,-1.6352397203445435,0.8092401623725891,-18.2342529296875,-9.1552734375,-6.744384765625
11.1699999,-9.318233489990234,-1.6903064250946045,0.8858546018600464,-20.904541015625,-2.4871826171875,-10.9710693359375
11.1899999,-9.679757118225098,-1.5921441316604614,0.9289502501487732,-22.4456787109375,-2.1820068359375,-12.3443603515625
11.209999900000001,-10.029311180114746,-1.4077905416488647,0.9074024558067322,-22.15576171875,-6.1798095703125,-16.4947509765625
11.229999900000001,-10.299856185913086,-1.1659762859344482,0.8307880163192749,-18.98193359375,-6.77490234375,-22.5372314453125
11.2499999,-10.47942066192627,-0.8882488012313843,0.727837324142456,-14.6484375,-4.8980712890625,-23.2391357421875
11.2699999,-10.565611839294434,-0.629675030708313,0.6392518281936646,-10.55908203125,-5.645751953125,-18.3868408203125
11.2899999,-10.60391902923584,-0.3878606855869293,0.6033388376235962,-8.7738037109375,-13.336181640625,-12.054443359375
11.309999900000001,-10.620678901672363,-0.1628057211637497,0.6416460275650024,-11.2457275390625,-20.4620361328125,-7.8277587890625
11.3299999,-10.611102104187012,0.09576806426048279,0.7326257228851318,-14.5111083984375,-16.998291015625,-5.79833984375
11.3499999,-10.508151054382324,0.3663128614425659,0.8355764150619507,-16.9830322265625,-7.171630859375,-6.65283203125
11.3699999,-10.359710693359375,0.6320692300796509,0.9265560507774353,-17.76123046875,-2.9144287109375,-3.8299560546875
11.389999900000001,-10.24000072479248,0.8523358106613159,0.9888052940368652,-18.06640625,-8.8653564453125,7.32421875
11.4099999,-10.180145263671875,1.0007762908935547,1.0414776802062988,-19.1802978515625,-17.0135498046875,15.5792236328125
11.4299999,-10.182539939880371,1.0534487962722778,1.0869675874710083,-21.1334228515625,-13.61083984375,10.345458984375
11.4499999,-10.228029251098633,1.0103530883789062,1.1180921792984009,-21.1334228515625,-2.532958984375,3.3416748046875
11.469999900000001,-10.342951774597168,0.8690952062606812,1.0893617868423462,-19.1650390625,1.129150390625,5.3558349609375
11.4899999,-10.47702693939209,0.6584054827690125,1.0079588890075684,-16.448974609375,-8.48388671875,7.781982421875
11.5099999,-10.565611839294434,0.3926490843296051,0.912190854549408,-12.4053955078125,-17.852783203125,5.67626953125
11.5299999,-10.589553833007812,0.16519992053508759,0.8188169598579407,-7.9193115234375,-14.129638671875,7.6751708984375
11.549999900000001,-10.496180534362793,0.014365210197865963,0.7781155705451965,-4.7607421875,-9.7198486328125,13.946533203125
11.569999900000001,-10.335768699645996,-0.026336219161748886,0.7661445140838623,-4.0435791015625,-10.7574462890625,16.845703125
11.5899999,-10.14902114868164,0.011971008032560349,0.7924807667732239,-4.5623779296875,-15.7318115234375,16.2353515625
11.6099999,-10.010157585144043,0.10534487664699554,0.8595184087753296,-5.279541015625,-14.70947265625,20.01953125
11.629999900000001,-9.940725326538086,0.21787235140800476,0.9409212470054626,-6.3323974609375,-2.288818359375,22.03369140625
11.649999900000001,-9.931148529052734,0.2944868206977844,1.0055646896362305,-6.866455078125,11.8865966796875,11.444091796875
11.6699999,-9.907206535339355,0.31124621629714966,1.0247182846069336,-7.2784423828125,13.9312744140625,-0.457763671875
11.6899999,-9.832986831665039,0.26815059781074524,0.9648633003234863,-6.8206787109375,8.23974609375,1.3275146484375
11.709999900000001,-9.646238327026367,0.19153612852096558,0.8667010068893433,-4.6539306640625,4.8065185546875,8.5296630859375
11.729999900000001,-9.351752281188965,0.10773907601833344,0.7709329724311829,-0.885009765625,6.805419921875,7.8277587890625
11.7499999,-9.126696586608887,0.0933738648891449,0.7398083209991455,0.5950927734375,8.60595703125,8.209228515625
11.7699999,-9.710882186889648,0.16519992053508759,0.7613561153411865,-3.96728515625,8.453369140625,2.2125244140625
11.7899999,-10.11789608001709,0.26096799969673157,0.8044517636299133,-5.126953125,-19.59228515625,-17.0440673828125
11.809999900000001,-10.934319496154785,0.2968810200691223,0.8978256583213806,-1.7242431640625,-10.2996826171875,6.561279296875
11.8299999,-11.171344757080078,0.31124621629714966,0.9481038451194763,2.0599365234375,-6.6070556640625,10.4217529296875
11.8499999,-10.900800704956055,0.27054479718208313,0.9624691009521484,5.18798828125,-11.9476318359375,2.655029296875
11.8699999,-10.524910926818848,0.20350714027881622,1.0295066833496094,9.9334716796875,-14.7705078125,-0.1678466796875
11.889999900000001,-10.091560363769531,0.17477671802043915,1.1994950771331787,4.4708251953125,-11.322021484375,2.25830078125
11.9099999,-9.847352027893066,0.181959331035614,1.4508862495422363,-9.2010498046875,-4.39453125,7.38525390625
11.9299999,-9.701305389404297,0.22505496442317963,1.7262194156646729,-19.0582275390625,2.960205078125,9.09423828125
11.9499999,-9.612719535827637,0.3208230137825012,1.944091796875,-24.1851806640625,6.1798095703125,7.781982421875
11.969999900000001,-9.607931137084961,0.4692635238170624,2.013523578643799,-26.7486572265625,8.0718994140625,7.5531005859375
11.9899999,-9.66539192199707,0.629675030708313,1.9105730056762695,-27.5726318359375,11.077880859375,5.5999755859375
12.0099999,-9.775525093078613,0.7398083209991455,1.6687586307525635,-21.8353271484375,11.322021484375,1.708984375
12.0299999,-9.861717224121094,0.7637503147125244,1.3431471586227417,-12.26806640625,7.2174072265625,-1.312255859375
12.049999900000001,-9.928754806518555,0.7206547260284424,1.036689281463623,-6.195068359375,2.716064453125,-3.082275390625
12.069999900000001,-9.947908401489258,0.6823474764823914,0.950498104095459,-5.584716796875,1.7242431640625,-3.1585693359375
12.0899999,-9.909601211547852,0.6009446382522583,1.048660397529602,-17.547607421875,7.4615478515625,-2.7008056640625
12.1099999,-9.880870819091797,0.4836287498474121,1.2952631711959839,-31.8145751953125,14.7247314453125,-1.4190673828125
12.129999900000001,-9.840168952941895,0.31603461503982544,1.4867992401123047,-42.3736572265625,20.01953125,2.13623046875
12.149999900000001,-9.897629737854004,0.07661445438861847,1.3551181554794312,-39.398193359375,20.1568603515625,5.5999755859375
12.1699999,-10.072406768798828,-0.1843535304069519,0.9528923034667969,-17.76123046875,10.3759765625,10.0250244140625
12.1899999,-10.153809547424316,-0.2561795711517334,0.35434186458587646,8.7432861328125,-8.453369140625,9.613037109375
12.209999900000001,-10.285490036010742,-0.30885201692581177,-0.24660277366638184,31.3568115234375,-22.003173828125,1.03759765625
12.229999900000001,-10.266336441040039,-0.031124621629714966,-0.5578489899635315,45.9442138671875,-27.679443359375,-2.44140625
12.2499999,-10.182539939880371,0.1364694982767105,-0.4836287498474121,45.4559326171875,-27.740478515625,-0.8697509765625
12.2699999,-10.019734382629395,0.6751648783683777,0.023942016065120697,32.5927734375,-26.3824462890625,-0.335693359375
12.289999900000002,-9.919178009033203,0.9481038451194763,0.7852981686592102,17.1661376953125,-25.482177734375,-1.312255859375
12.309999900000001,-9.72285270690918,1.1252747774124146,1.6112977266311646,3.9215087890625,-18.0511474609375,-8.514404296875
12.3299999,-9.576807022094727,1.1180921792984009,2.3295583724975586,-2.2735595703125,-5.1727294921875,-10.92529296875
12.3499999,-9.516951560974121,0.9074024558067322,2.892195701599121,-3.997802734375,4.9591064453125,-5.8746337890625
12.3699999,-9.457097053527832,0.6440402865409851,3.1699230670928955,-9.6282958984375,15.1519775390625,-1.46484375
12.389999900000001,-9.53849983215332,0.49559974670410156,3.2297780513763428,-14.4195556640625,23.2696533203125,1.434326171875
12.4099999,-9.588777542114258,0.3208230137825012,2.9544448852539062,-15.7470703125,22.552490234375,-2.655029296875
12.4299999,-9.72285270690918,0.1867477297782898,2.4205379486083984,-14.1754150390625,25.6195068359375,-5.9661865234375
12.4499999,-9.818621635437012,0.019153613597154617,1.7046716213226318,-10.650634765625,26.2603759765625,0.3509521484375
12.469999900000001,-9.907206535339355,0.0071826050989329815,0.9864110946655273,-9.5977783203125,22.125244140625,3.2501220703125
12.4899999,-10.144232749938965,-0.043095629662275314,0.33039984107017517,-5.340576171875,14.70947265625,7.50732421875
12.5099999,-10.180145263671875,0.033518824726343155,-0.15562310814857483,3.387451171875,-2.2430419921875,3.570556640625
12.5299999,-10.218452453613281,0.12689268589019775,-0.4381389021873474,11.7340087890625,-8.1329345703125,-7.1868896484375
12.549999900000001,-10.254365921020508,0.21547815203666687,-0.5339069962501526,18.768310546875,-8.7890625,-3.6468505859375
12.569999900000001,-10.146626472473145,0.2561795711517334,-0.3280056416988373,21.6522216796875,-13.702392578125,-1.556396484375
12.5899999,-10.072406768798828,0.42856210470199585,0.1149216815829277,17.2271728515625,-15.7470703125,2.166748046875
12.6099999,-10.002974510192871,0.4381389021873474,0.751779317855835,6.0577392578125,-17.4713134765625,2.9449462890625
12.629999900000001,-9.828198432922363,0.45250412821769714,1.3455413579940796,-3.0670166015625,-9.9029541015625,-5.9661865234375
12.649999900000001,-9.696516990661621,0.44771572947502136,1.8962076902389526,-5.9814453125,1.7547607421875,-3.3721923828125
12.6699999,-9.653421401977539,0.40222588181495667,2.1954829692840576,-9.7503662109375,6.0272216796875,1.5716552734375
12.6899999,-9.619902610778809,0.4381389021873474,2.2673089504241943,-13.916015625,10.8489990234375,3.72314453125
12.709999900000001,-9.794678688049316,0.45010992884635925,2.1499931812286377,-13.4124755859375,9.1705322265625,6.2255859375
12.729999900000001,-9.81143856048584,0.4836287498474121,1.8363527059555054,-11.6119384765625,5.8135986328125,-4.058837890625
12.7499999,-9.914389610290527,0.4644751250743866,1.3982137441635132,-7.75146484375,8.72802734375,-7.9803466796875
12.7699999,-9.981427192687988,0.42377370595932007,0.9959878921508789,-2.2430419921875,7.3089599609375,-3.326416015625
12.789999900000002,-9.99339771270752,0.3280056416988373,0.5985504388809204,0.48828125,3.021240234375,-3.9215087890625
12.809999900000001,-10.089165687561035,0.26096799969673157,0.38067805767059326,4.2266845703125,-2.410888671875,0.5035400390625
12.8299999,-10.079588890075684,0.1867477297782898,0.2513911724090576,9.58251953125,-14.129638671875,-0.457763671875
12.8499999,-10.074800491333008,0.05267243832349777,0.31603461503982544,14.2059326171875,-17.27294921875,-8.1024169921875
12.8699999,-9.967061996459961,0.07661445438861847,0.5482721924781799,15.716552734375,-11.5966796875,-7.0343017578125
12.889999900000001,-9.904812812805176,0.040701430290937424,1.039083480834961,10.894775390625,-6.6375732421875,-1.434326171875
12.9099999,-9.770736694335938,0.19632454216480255,1.6639702320098877,-5.157470703125,2.471923828125,1.953125
12.9299999,-9.68933391571045,0.4213795065879822,2.2409727573394775,-24.932861328125,13.9007568359375,3.5858154296875
12.9499999,-9.715670585632324,0.47165772318840027,2.5115175247192383,-32.989501953125,17.9901123046875,3.997802734375
12.969999900000001,-9.742006301879883,0.44771572947502136,2.343923568725586,-25.2532958984375,15.1824951171875,-0.518798828125
12.9899999,-9.830592155456543,0.20111294090747833,1.7094600200653076,-8.331298828125,10.6201171875,-2.6397705078125
13.0099999,-9.964667320251465,0.009576806798577309,1.0055646896362305,5.6915283203125,5.615234375,2.0294189453125
13.0299999,-10.007762908935547,-0.09816227108240128,0.3878606855869293,9.521484375,2.0294189453125,3.5400390625
13.049999900000001,-10.086771965026855,0.028730420395731926,0.11252748221158981,4.1351318359375,-2.74658203125,4.638671875
13.069999900000001,-10.134655952453613,0.17477671802043915,0.10295066982507706,-2.197265625,-8.3160400390625,4.94384765625
13.0899999,-10.086771965026855,0.33279404044151306,0.28969839215278625,-2.8076171875,-13.0157470703125,1.7547607421875
13.1099999,-10.031704902648926,0.35913026332855225,0.5602431893348694,2.685546875,-11.1236572265625,-3.7841796875
13.129999900000001,-9.909601211547852,0.33997663855552673,0.8643068075180054,9.2620849609375,-7.1868896484375,-2.716064453125
13.149999900000001,-9.873687744140625,0.36152446269989014,1.1827356815338135,9.552001953125,-4.0283203125,0.2899169921875
13.1699999,-9.773131370544434,0.4141969084739685,1.41257905960083,3.5247802734375,-2.7923583984375,0.1220703125
13.1899999,-9.785101890563965,0.5722141861915588,1.623268723487854,-3.8299560546875,-1.6326904296875,-1.9989013671875
13.209999900000001,-9.801861763000488,0.608127236366272,1.7190368175506592,-7.87353515625,-3.4027099609375,-1.922607421875
13.229999900000001,-9.816226959228516,0.507570743560791,1.7262194156646729,-8.2855224609375,-2.349853515625,-5.462646484375
13.2499999,-9.885659217834473,0.21547815203666687,1.5921441316604614,-4.638671875,2.6702880859375,-6.500244140625
13.2699999,-9.888052940368652,0.004788403399288654,1.3886369466781616,2.3040771484375,3.6468505859375,0.213623046875
13.289999900000002,-9.943120002746582,-0.15083470940589905,1.192312479019165,4.2572021484375,1.1138916015625,5.706787109375
13.309999900000001,-9.907206535339355,-0.15562310814857483,1.0630255937576294,0.1373291015625,-0.3662109375,6.3323974609375
13.3299999,-9.983820915222168,-0.009576806798577309,1.0462661981582642,-1.983642578125,-2.7923583984375,5.3253173828125
13.3499999,-9.950302124023438,0.14844051003456116,1.091755986213684,1.4801025390625,-6.4239501953125,2.0599365234375
13.3699999,-9.909601211547852,0.363918662071228,1.1827356815338135,6.77490234375,-4.82177734375,-5.55419921875
13.389999900000001,-9.888052940368652,0.5386953949928284,1.2521674633026123,6.2255859375,0.579833984375,-5.1727294921875
13.4099999,-9.816226959228516,0.7015010714530945,1.3407529592514038,2.1514892578125,4.0740966796875,-2.044677734375
13.4299999,-9.825803756713867,0.6871358752250671,1.359906554222107,-2.410888671875,2.74658203125,-2.2430419921875
13.4499999,-9.880870819091797,0.6105214357376099,1.3958195447921753,-3.387451171875,-0.0152587890625,-3.1280517578125
13.469999900000001,-9.926360130310059,0.42377370595932007,1.3503297567367554,-1.28173828125,-4.8980712890625,-2.838134765625
13.4899999,-9.940725326538086,0.1364694982767105,1.2425906658172607,4.5318603515625,-5.767822265625,-5.2490234375
13.5099999,-9.974244117736816,-0.1173158809542656,1.1563993692398071,12.8326416015625,-4.69970703125,-7.2479248046875
13.5299999,-9.90241813659668,-0.2322375625371933,1.0845733880996704,16.41845703125,-4.9285888671875,-0.7781982421875
13.549999900000001,-9.921571731567383,-0.17956513166427612,1.1779472827911377,9.70458984375,-3.72314453125,4.57763671875
13.569999900000001,-9.840168952941895,-0.004788403399288654,1.3024457693099976,0.762939453125,0.06103515625,3.875732421875
13.5899999,-9.86650562286377,0.2825157940387726,1.5203180313110352,0.2593994140625,-1.922607421875,2.0599365234375
13.6099999,-9.837775230407715,0.4357447028160095,1.659181833267212,0.885009765625,-5.0048828125,0.1220703125
13.629999900000001,-9.86889934539795,0.4572925269603729,1.6759412288665771,2.3193359375,-1.4190673828125,-5.950927734375
13.649999900000001,-9.880870819091797,0.4668693244457245,1.623268723487854,4.39453125,4.1351318359375,-7.049560546875
13.6699999,-9.914389610290527,0.4836287498474121,1.534683346748352,2.4566650390625,4.9591064453125,-3.1585693359375
13.6899999,-9.840168952941895,0.4908113479614258,1.4772224426269531,-4.8828125,2.7008056640625,-2.44140625
13.709999900000001,-9.840168952941895,0.5770025849342346,1.4652514457702637,-13.00048828125,6.1492919921875,-3.8299560546875
13.729999900000001,-9.840168952941895,0.47165772318840027,1.4484920501708984,-10.009765625,3.47900390625,-5.2947998046875
13.7499999,-9.864110946655273,0.24899697303771973,1.3742717504501343,0.1983642578125,-2.3193359375,-6.8817138671875
13.7699999,-9.93593692779541,-0.019153613597154617,1.2330138683319092,10.2996826171875,-3.6468505859375,-10.07080078125
13.789999900000002,-9.974244117736816,-0.21308395266532898,1.1061211824417114,14.3585205078125,-1.3427734375,-7.0343017578125
13.809999900000001,-9.971850395202637,-0.24420857429504395,1.0749965906143188,10.8184814453125,-1.0223388671875,-0.1678466796875
13.8299999,-9.914389610290527,-0.11971008777618408,1.137245774269104,0.244140625,-1.7852783203125,1.4190673828125
13.8499999,-9.897629737854004,0.07661445438861847,1.237802267074585,-4.39453125,-2.410888671875,-0.213623046875
13.8699999,-9.916783332824707,0.18914192914962769,1.3335703611373901,-2.349853515625,-8.0413818359375,-3.204345703125
13.889999900000001,-9.888052940368652,0.17238251864910126,1.4389152526855469,0.6561279296875,-7.9193115234375,-6.0882568359375
13.9099999,-9.90241813659668,0.10295066982507706,1.580173134803772,3.0670166015625,-2.6092529296875,-6.866455078125
13.9299999,-9.744400978088379,0.17956513166427612,1.8507179021835327,-7.3394775390625,5.18798828125,-1.77001953125
13.9499999,-9.497797966003418,0.3711012601852417,2.456450939178467,-31.097412109375,14.7552490234375,3.448486328125
13.969999900000001,-8.180987358093262,0.5985504388809204,2.779668092727661,-75.439453125,39.337158203125,8.9569091796875
13.9899999,-6.84981107711792,0.16519992053508759,2.628833532333374,-68.8934326171875,55.938720703125,19.622802734375
14.0099999,-6.2847795486450195,-0.4908113479614258,1.845929503440857,-3.1585693359375,19.073486328125,2.9754638671875
14.0299999,-6.6127848625183105,-1.3239935636520386,0.5650315880775452,48.4619140625,2.4871826171875,11.3067626953125
14.049999900000001,-8.69095230102539,-1.6041151285171509,-0.19871874153614044,69.6563720703125,-11.138916015625,18.9361572265625
14.069999900000001,-10.412383079528809,-0.9528923034667969,0.21787235140800476,36.1328125,-5.4779052734375,17.4560546875
14.0899999,-12.598289489746094,0.22744916379451752,1.2282254695892334,-44.525146484375,47.210693359375,30.57861328125
14.1099999,-13.153743743896484,1.6927006244659424,2.7964274883270264,-99.761962890625,75.1495361328125,2.8076171875
14.129999900000001,-13.685256958007812,2.537853717803955,3.1699230670928955,-135.8184814453125,97.4884033203125,10.3759765625
14.149999900000001,-13.012486457824707,2.8371291160583496,2.7772738933563232,-106.048583984375,78.6895751953125,-1.8463134765625
14.1699999,-11.750741958618164,2.4205379486083984,1.1994950771331787,-69.0155029296875,55.3131103515625,-4.5013427734375
14.1899999,-10.225635528564453,1.2832920551300049,-1.0319008827209473,-29.7393798828125,31.0821533203125,3.753662109375
14.209999900000001,-8.755595207214355,0.29209262132644653,-2.695871114730835,33.905029296875,-20.172119140625,-4.791259765625
14.229999900000001,-7.994239330291748,-0.5530605912208557,-3.60566782951355,46.478271484375,-48.2025146484375,-1.983642578125
14.2499999,-7.812280178070068,-0.8906430602073669,-3.28963303565979,4.9591064453125,-34.759521484375,14.373779296875
14.2699999,-8.094796180725098,-0.6799532771110535,-1.9536685943603516,-29.876708984375,-8.3465576171875,11.5509033203125
14.289999900000002,-8.793902397155762,-0.28730419278144836,-0.4812345504760742,-19.4244384765625,0.06103515625,3.9215087890625
14.309999900000001,-9.677363395690918,0.19393034279346466,0.6200982332229614,-0.518798828125,-2.0904541015625,0.885009765625
14.3299999,-10.450690269470215,0.5985504388809204,1.278503656387329,4.638671875,-4.364013671875,-1.861572265625
14.3499999,-10.994174003601074,0.8667010068893433,1.5705963373184204,-0.1983642578125,2.5634765625,-6.6375732421875
14.3699999,-11.250353813171387,0.8667010068893433,1.5394717454910278,-10.406494140625,16.815185546875,-8.392333984375
14.389999900000001,-11.286267280578613,0.730231523513794,1.256955862045288,-11.3983154296875,19.9737548828125,-1.007080078125
14.4099999,-11.109095573425293,0.4429273009300232,0.6129156351089478,0.9613037109375,7.8277587890625,3.7384033203125
14.4299999,-10.809821128845215,0.24660277366638184,-0.09816227108240128,10.80322265625,-8.2550048828125,1.64794921875
14.4499999,-10.488997459411621,0.2346317619085312,-0.5722141861915588,6.134033203125,-14.068603515625,-1.6937255859375
14.469999900000001,-10.08198356628418,0.2801215946674347,-0.6368576288223267,0.3509521484375,-9.70458984375,-4.5013427734375
14.4899999,-9.734824180603027,0.2992752194404602,-0.363918662071228,-5.279541015625,-2.288818359375,-0.91552734375
14.5099999,-9.442731857299805,0.16759411990642548,0.033518824726343155,-5.4473876953125,-0.0152587890625,5.1422119140625
14.5299999,-9.301473617553711,0.009576806798577309,0.3423708379268646,4.1656494140625,-1.7852783203125,10.009765625
14.549999900000001,-9.346963882446289,-0.014365210197865963,0.5027823448181152,14.22119140625,-2.0751953125,11.7340087890625
14.569999900000001,-9.5624418258667,0.17956513166427612,0.5386953949928284,5.2947998046875,1.40380859375,9.58251953125
14.5899999,-9.883264541625977,0.5291185975074768,0.47884035110473633,2.593994140625,1.220703125,0.823974609375
14.6099999,-10.220847129821777,0.9481038451194763,0.36152446269989014,2.3345947265625,-0.1068115234375,-6.622314453125
14.629999900000001,-10.541669845581055,1.213860273361206,0.28730419278144836,2.288818359375,-1.7547607421875,-10.19287109375
14.649999900000001,-10.618284225463867,1.5275006294250488,0.9074024558067322,-8.514404296875,-1.190185546875,-13.18359375
14.6699999,-10.702081680297852,1.5658079385757446,1.4460978507995605,-74.03564453125,29.0985107421875,-9.4146728515625
14.6899999,-10.563218116760254,1.6065093278884888,1.9249382019042969,-127.2735595703125,71.77734375,-0.1068115234375
14.709999900000001,-10.639832496643066,1.2306196689605713,1.7621324062347412,-115.020751953125,69.9005126953125,-1.190185546875
14.729999900000001,-10.678139686584473,0.5937620401382446,0.5099649429321289,-70.556640625,44.097900390625,-3.509521484375
14.7499999,-10.833763122558594,-0.31124621629714966,-1.2066776752471924,-9.552001953125,10.4522705078125,-0.0762939453125
14.7699999,-10.896012306213379,-1.0630255937576294,-2.896984100341797,53.741455078125,-30.5633544921875,3.4332275390625
14.789999900000002,-10.666168212890625,-1.359906554222107,-3.6296098232269287,92.987060546875,-60.85205078125,5.615234375
14.809999900000001,-10.170568466186523,-1.0079588890075684,-3.069366693496704,75.3021240234375,-57.8765869140625,3.997802734375
14.8299999,-9.490615844726562,-0.16759411990642548,-1.3646949529647827,12.9852294921875,-16.571044921875,3.60107421875
14.8499999,-8.93037223815918,0.7038952708244324,0.6177040338516235,-44.37255859375,24.7039794921875,7.049560546875
14.8699999,-8.573636054992676,1.2042834758758545,1.9177556037902832,-53.3905029296875,39.1845703125,7.7667236328125
14.889999900000001,-9.133879661560059,0.9457096457481384,1.259350061416626,4.1046142578125,4.8828125,4.241943359375
14.9099999,-9.77791976928711,0.5315127968788147,0.26096799969673157,22.003173828125,-4.5166015625,1.6937255859375
14.9299999,-10.340557098388672,0.21308395266532898,-0.5410895943641663,18.890380859375,-4.2572021484375,5.859375
14.9499999,-10.757147789001465,0.090979665517807,-1.0103530883789062,12.6190185546875,-4.7760009765625,7.2021484375
14.969999900000001,-10.639832496643066,0.10295066982507706,-1.0558429956436157,21.453857421875,-13.9312744140625,3.662109375
14.9899999,-10.307038307189941,0.2801215946674347,-0.9217676520347595,23.92578125,-12.237548828125,6.16455078125
15.0099999,-9.672574996948242,0.5817909836769104,-0.5530605912208557,16.4337158203125,-10.25390625,7.6141357421875
15.0299999,-9.14585018157959,0.8164227604866028,-0.13407529890537262,4.82177734375,-3.1890869140625,1.007080078125
15.049999900000001,-8.9064302444458,0.9074024558067322,0.2106897532939911,4.82177734375,4.0130615234375,-0.4119873046875
15.069999900000001,-8.731653213500977,0.8044517636299133,0.33039984107017517,16.9219970703125,-1.373291015625,0.67138671875
15.0899999,-8.633491516113281,0.5386953949928284,0.12449848651885986,26.6876220703125,-4.9591064453125,8.4075927734375
15.1099999,-8.71728801727295,0.2513911724090576,-0.3016694188117981,36.651611328125,-10.9100341796875,12.4969482421875
15.129999900000001,-8.315062522888184,-0.0071826050989329815,-0.8619126081466675,52.24609375,-28.3050537109375,4.4403076171875
15.149999900000001,-8.858546257019043,0.272938996553421,-1.1037269830703735,61.70654296875,-26.8096923828125,22.94921875
15.1699999,-8.769960403442383,0.5554547905921936,-1.1204863786697388,53.3447265625,-15.7623291015625,6.3323974609375
15.1899999,-9.832986831665039,1.2042834758758545,-0.5650315880775452,33.6761474609375,2.716064453125,-14.83154296875
15.209999900000001,-10.103530883789062,1.6352397203445435,0.18914192914962769,11.2762451171875,4.0130615234375,-24.1851806640625
15.229999900000001,-10.740388870239258,1.764526605606079,0.9241618514060974,-4.8828125,11.1236572265625,-2.1514892578125
15.2499999,-10.912771224975586,1.5849615335464478,1.338358759880066,-3.5247802734375,10.040283203125,0.6561279296875
15.2699999,-11.03248119354248,1.1635819673538208,1.359906554222107,4.57763671875,6.3629150390625,-6.805419921875
15.289999900000002,-11.240777015686035,0.727837324142456,0.9720458984375,16.5252685546875,0.8087158203125,-4.669189453125
15.309999900000001,-11.504138946533203,0.4620809257030487,0.40940847992897034,24.3682861328125,-17.5933837890625,-5.2490234375
15.3299999,-11.595118522644043,0.33039984107017517,-0.0694318488240242,28.961181640625,-30.5023193359375,-10.833740234375
15.3499999,-11.496956825256348,0.38067805767059326,-0.2513911724090576,30.426025390625,-38.7725830078125,-18.096923828125
15.3699999,-11.185709953308105,0.4596867263317108,-0.09576806426048279,26.4739990234375,-36.6973876953125,-16.1285400390625
15.389999900000001,-10.524910926818848,0.5386953949928284,0.363918662071228,14.83154296875,-22.5372314453125,-5.0048828125
15.4099999,-10.065223693847656,0.5937620401382446,0.9265560507774353,2.044677734375,-8.7890625,9.490966796875
15.4299999,-9.567230224609375,0.6655880808830261,1.3910311460494995,-8.9111328125,4.2572021484375,2.9754638671875
15.4499999,-8.925583839416504,0.7206547260284424,1.5610195398330688,-14.2059326171875,21.66748046875,5.828857421875
15.469999900000001,-8.973467826843262,0.9313444495201111,1.381454348564148,-16.1590576171875,51.1627197265625,19.2108154296875
15.4899999,-8.59997272491455,0.912190854549408,0.9361328482627869,-15.228271484375,34.271240234375,3.387451171875
15.5099999,-8.959102630615234,0.8858546018600464,0.40222588181495667,-13.0767822265625,19.95849609375,-1.2969970703125
15.5299999,-9.284713745117188,0.6200982332229614,-0.06224924325942993,-7.7362060546875,17.303466796875,6.0272216796875
15.549999900000001,-9.751583099365234,0.3519476354122162,-0.3471592366695404,-1.6632080078125,5.9051513671875,15.6402587890625
15.569999900000001,-10.101137161254883,0.22026655077934265,-0.40701428055763245,5.8441162109375,-7.0037841796875,12.969970703125
15.5899999,-10.33098030090332,0.26575639843940735,-0.3016694188117981,7.965087890625,-3.5247802734375,4.6539306640625
15.6099999,-10.407594680786133,0.5506663918495178,-0.043095629662275314,2.44140625,6.3629150390625,2.25830078125
15.629999900000001,-10.299856185913086,0.8810662031173706,0.31364041566848755,-6.7901611328125,11.138916015625,0.1220703125
15.649999900000001,-10.249577522277832,1.139639973640442,0.5722141861915588,-16.4642333984375,15.3350830078125,-3.5400390625
15.6699999,-10.613495826721191,1.2186486721038818,0.5578489899635315,-13.092041015625,19.0887451171875,-5.9051513671875
15.6899999,-11.520898818969727,1.1659762859344482,0.15562310814857483,6.3323974609375,9.674072265625,-8.270263671875
15.709999900000001,-11.954249382019043,1.039083480834961,-0.524330198764801,33.599853515625,-8.2855224609375,-16.17431640625
15.729999900000001,-13.046005249023438,1.0606313943862915,-1.091755986213684,52.032470703125,-18.6614990234375,5.0506591796875
15.7499999,-11.868058204650879,1.0414776802062988,-1.436521053314209,53.8177490234375,-33.26416015625,-35.125732421875
15.7699999,-11.549629211425781,1.113303780555725,-1.1540051698684692,43.0145263671875,-20.6451416015625,-6.134033203125
15.789999900000002,-10.089165687561035,1.1252747774124146,-0.5554547905921936,24.0478515625,-13.458251953125,3.8604736328125
15.809999900000001,-9.81143856048584,0.8858546018600464,0.19871874153614044,6.8817138671875,-14.0838623046875,-22.6287841796875
15.8299999,-9.593565940856934,0.6344634294509888,0.811634361743927,-2.25830078125,-16.2506103515625,-28.80859375
15.8499999,-9.904812812805176,0.31603461503982544,1.0893617868423462,-4.7607421875,1.8157958984375,-12.6495361328125
15.869999900000002,-10.053253173828125,0.023942016065120697,0.9744400978088379,1.52587890625,12.4053955078125,-11.16943359375
15.889999900000001,-10.034099578857422,-0.19632454216480255,0.5051765441894531,9.3231201171875,7.9345703125,-15.3961181640625
15.9099999,-9.907206535339355,-0.24660277366638184,-0.0454898327589035,22.6593017578125,-3.9825439453125,-15.0146484375
15.9299999,-9.59835433959961,-0.2992752194404602,-0.5195417404174805,29.6173095703125,-12.0697021484375,-14.801025390625
15.9499999,-9.141061782836914,-0.31842881441116333,-0.7206547260284424,25.848388671875,-11.6729736328125,-16.082763671875
15.969999900000001,-8.561665534973145,-0.3232172429561615,-0.6129156351089478,17.852783203125,-5.2337646484375,-13.1988525390625
15.9899999,-7.9846625328063965,-0.35673606395721436,-0.3232172429561615,7.965087890625,1.5869140625,-9.4451904296875
16.0099999,-7.532158374786377,-0.3878606855869293,-0.0071826050989329815,-2.1514892578125,5.096435546875,-11.9476318359375
16.0299999,-7.304709434509277,-0.4118026793003082,0.22266076505184174,-7.3089599609375,6.6680908203125,-17.2882080078125
16.0499999,-7.364564418792725,-0.3902548849582672,0.35434186458587646,-9.7198486328125,8.1634521484375,-15.7623291015625
16.0699999,-7.661445617675781,-0.33039984107017517,0.40222588181495667,-10.284423828125,7.0648193359375,-7.2479248046875
16.089999900000002,-8.092401504516602,-0.2561795711517334,0.4405331015586853,-8.9263916015625,-4.94384765625,1.6937255859375
16.109999900000002,-8.60236644744873,-0.15801730751991272,0.507570743560791,-7.9803466796875,-19.8516845703125,9.002685546875
16.1299999,-9.114726066589355,-0.043095629662275314,0.6248866319656372,-8.056640625,-25.5889892578125,14.495849609375
16.1499999,-9.600749015808105,0.07900865375995636,0.8068459630012512,-7.659912109375,-24.7955322265625,14.1448974609375
16.1699999,-10.038887977600098,0.20111294090747833,1.0103530883789062,-6.561279296875,-19.59228515625,7.6751708984375
16.1899999,-10.409989356994629,0.2968810200691223,1.2090718746185303,-7.659912109375,-17.4560546875,2.1820068359375
16.2099999,-10.666168212890625,0.3711012601852417,1.338358759880066,-11.3067626953125,-15.9454345703125,1.068115234375
16.2299999,-10.745177268981934,0.3878606855869293,1.3886369466781616,-11.9476318359375,-13.580322265625,2.8533935546875
16.249999900000002,-10.6925048828125,0.38546648621559143,1.3742717504501343,-10.5438232421875,-10.6048583984375,8.087158203125
16.269999900000002,-11.15697956085205,0.35673606395721436,1.2737152576446533,-12.481689453125,-6.89697265625,6.8817138671875
16.2899999,-11.202469825744629,0.272938996553421,1.1659762859344482,-12.6495361328125,-15.3045654296875,-15.9759521484375
16.3099999,-11.434707641601562,0.19871874153614044,1.0031704902648926,-9.6282958984375,-19.195556640625,-9.918212890625
16.3299999,-11.240777015686035,0.13407529890537262,0.8571242094039917,-1.556396484375,-7.5836181640625,2.655029296875
16.3499999,-10.735600471496582,0.07661445438861847,0.706289529800415,2.593994140625,-1.15966796875,7.2174072265625
16.3699999,-10.256759643554688,-0.009576806798577309,0.6224924325942993,2.1209716796875,-5.5694580078125,7.415771484375
16.3899999,-9.983820915222168,-0.17477671802043915,0.5722141861915588,0.7781982421875,-9.1094970703125,12.6953125
16.4099999,-9.818621635437012,-0.3471592366695404,0.6129156351089478,0.030517578125,-6.561279296875,17.0745849609375
16.429999900000002,-9.787496566772461,-0.5027823448181152,0.7206547260284424,-1.861572265625,-5.37109375,22.705078125
16.4499999,-9.849745750427246,-0.545877993106842,0.8571242094039917,-5.6610107421875,-6.0272216796875,26.4892578125
16.4699999,-9.852140426635742,-0.47644615173339844,0.9528923034667969,-6.622314453125,-8.1024169921875,28.3050537109375
16.4899999,-9.897629737854004,-0.2944868206977844,1.1180921792984009,-5.1727294921875,-4.4708251953125,30.548095703125
16.5099999,-9.871294021606445,-0.0694318488240242,1.2856862545013428,-9.9639892578125,-4.82177734375,30.5328369140625
16.5299999,-9.813833236694336,0.20350714027881622,1.414973258972168,-18.3258056640625,-5.1727294921875,30.2886962890625
16.5499999,-9.80904483795166,0.44771572947502136,1.5729905366897583,-18.9208984375,0.1678466796875,33.63037109375
16.5699999,-9.742006301879883,0.8547300100326538,1.7477672100067139,-19.0277099609375,3.0975341796875,33.416748046875
16.589999900000002,-9.68933391571045,1.237802267074585,1.8267759084701538,-24.3682861328125,8.331298828125,26.8402099609375
16.609999900000002,-9.653421401977539,1.6831238269805908,1.802833914756775,-24.1241455078125,13.153076171875,18.4173583984375
16.6299999,-9.62947940826416,2.027888774871826,1.6903064250946045,-16.0064697265625,10.6658935546875,12.8021240234375
16.6499999,-9.655815124511719,2.2457611560821533,1.455674648284912,-11.0931396484375,7.8277587890625,8.7127685546875
16.6699999,-9.734824180603027,2.212242364883423,1.1779472827911377,-9.307861328125,7.598876953125,1.1749267578125
16.6899999,-9.801861763000488,2.032677173614502,0.9768342971801758,-5.767822265625,7.6751708984375,-2.1514892578125
16.7099999,-9.856928825378418,1.7501614093780518,0.9265560507774353,-3.0975341796875,5.8746337890625,-1.068115234375
16.7299999,-9.892841339111328,1.37906014919281,0.9409212470054626,-4.913330078125,6.2255859375,0.1678466796875
16.749999900000002,-9.904812812805176,1.0127472877502441,1.0079588890075684,-7.2784423828125,9.613037109375,1.52587890625
16.769999900000002,-9.876082420349121,0.7038952708244324,1.1420341730117798,-8.2855224609375,10.467529296875,6.5155029296875
16.7899999,-9.797073364257812,0.6200982332229614,1.280897855758667,-18.1732177734375,12.5885009765625,12.3291015625
16.8099999,-9.780313491821289,0.6488286852836609,1.2689268589019775,-26.1688232421875,15.625,13.641357421875
16.8299999,-9.806650161743164,0.7781155705451965,0.9959878921508789,-18.646240234375,12.5732421875,11.4898681640625
16.8499999,-9.888052940368652,1.015141487121582,0.5506663918495178,0.0457763671875,0.4730224609375,7.1563720703125
16.8699999,-10.017339706420898,1.2497732639312744,0.05027823522686958,13.916015625,-10.772705078125,2.9296875
16.8899999,-10.08437728881836,1.4724340438842773,-0.3280056416988373,18.341064453125,-14.9078369140625,-1.7242431640625
16.9099999,-10.08198356628418,1.6759412288665771,-0.4357447028160095,20.2789306640625,-15.93017578125,-3.11279296875
16.929999900000002,-10.000580787658691,1.9129672050476074,-0.06224924325942993,18.890380859375,-20.81298828125,-5.18798828125
16.9499999,-9.859322547912598,2.075772762298584,0.6224924325942993,5.3558349609375,-16.021728515625,-6.8206787109375
16.9699999,-9.708487510681152,2.22660756111145,1.4867992401123047,-10.040283203125,-3.41796875,-11.04736328125
16.9899999,-9.550470352172852,2.183511972427368,2.2433669567108154,-8.941650390625,6.9732666015625,-20.2484130859375
17.0099999,-9.47146224975586,1.9800047874450684,2.8155810832977295,-0.2288818359375,14.4195556640625,-22.5830078125
17.0299999,-9.399636268615723,1.50355863571167,2.9712042808532715,-5.92041015625,24.6124267578125,-15.289306640625
17.0499999,-9.466673851013184,0.9050082564353943,2.7892448902130127,-16.1895751953125,36.407470703125,-7.598876953125
17.0699999,-9.603142738342285,0.3423708379268646,2.2864625453948975,-13.275146484375,39.154052734375,-0.9765625
17.089999900000002,-9.816226959228516,-0.014365210197865963,1.6041151285171509,-5.37109375,29.510498046875,7.568359375
17.109999900000002,-9.983820915222168,-0.1843535304069519,0.8236053586006165,-7.5531005859375,20.20263671875,10.3759765625
17.1299999,-10.041281700134277,-0.019153613597154617,0.12449848651885986,-12.542724609375,21.0723876953125,5.43212890625
17.1499999,-10.065223693847656,0.33518823981285095,-0.363918662071228,-7.87353515625,20.477294921875,5.950927734375
17.1699999,-10.06043529510498,0.8858546018600464,-0.5841852426528931,-0.396728515625,12.0697021484375,6.8817138671875
17.1899999,-10.04846477508545,1.4317326545715332,-0.6057330369949341,-3.4332275390625,7.1258544921875,-0.091552734375
17.2099999,-10.144232749938965,1.8746598958969116,-0.43095630407333374,-10.31494140625,10.07080078125,-3.7384033203125
17.2299999,-10.077195167541504,2.030282974243164,-0.28730419278144836,-11.23046875,5.218505859375,-3.6773681640625
17.249999900000002,-10.043676376342773,1.8076223134994507,-0.26096799969673157,-4.638671875,-4.6539306640625,-11.4288330078125
17.269999900000002,-10.046070098876953,1.335964560508728,-0.363918662071228,5.2642822265625,-10.101318359375,-9.9029541015625
17.2899999,-9.99339771270752,0.7374141216278076,-0.44532153010368347,14.6026611328125,-11.6119384765625,-0.48828125
17.3099999,-10.031704902648926,0.21308395266532898,-0.3974374830722809,24.1241455078125,-14.2364501953125,5.218505859375
17.3299999,-10.017339706420898,0.05267243832349777,0.011971008032560349,25.6195068359375,-16.1895751953125,9.1705322265625
17.3499999,-9.952696800231934,0.26815059781074524,0.5506663918495178,12.2222900390625,-12.8631591796875,12.1612548828125
17.3699999,-9.840168952941895,0.7829039692878723,1.1779472827911377,-7.5531005859375,-2.4261474609375,5.9661865234375
17.3899999,-9.715670585632324,1.3766659498214722,1.6879122257232666,-19.3939208984375,9.2620849609375,-4.8675537109375
17.409999900000003,-9.63187313079834,1.7956513166427612,1.802833914756775,-21.392822265625,15.411376953125,-5.1422119140625
17.429999900000002,-9.634267807006836,1.8794482946395874,1.6280571222305298,-18.310546875,16.0064697265625,-1.739501953125
17.4499999,-9.720458984375,1.6735470294952393,1.137245774269104,-12.3291015625,16.54052734375,-2.3193359375
17.4699999,-9.856928825378418,1.3838485479354858,0.6057330369949341,-2.899169921875,10.80322265625,-1.28173828125
17.4899999,-9.986215591430664,1.039083480834961,0.08858546614646912,3.9520263671875,-1.2664794921875,1.434326171875
17.5099999,-10.08437728881836,0.7637503147125244,-0.304063618183136,7.9345703125,-8.36181640625,-1.800537109375
17.5299999,-10.137049674987793,0.5267243981361389,-0.4836287498474121,12.420654296875,-7.87353515625,-3.143310546875
17.5499999,-10.122684478759766,0.47644615173339844,-0.4381389021873474,15.3045654296875,-8.7127685546875,1.9683837890625
17.5699999,-10.038887977600098,0.6033388376235962,-0.12210428714752197,12.2222900390625,-6.622314453125,3.96728515625
17.589999900000002,-9.931148529052734,0.9385270476341248,0.3064578175544739,4.0130615234375,-4.45556640625,3.35693359375
17.609999900000002,-9.86889934539795,1.290474772453308,0.7015010714530945,-3.3721923828125,1.9073486328125,1.8768310546875
17.6299999,-9.806650161743164,1.5849615335464478,0.9552865028381348,-2.13623046875,-1.373291015625,1.190185546875
17.6499999,-9.78989028930664,1.5825673341751099,0.9959878921508789,1.6937255859375,-4.4708251953125,-4.119873046875
17.6699999,-9.80904483795166,1.4293384552001953,0.9193734526634216,1.9073486328125,0.152587890625,-6.7291259765625
17.6899999,-9.782708168029785,1.213860273361206,0.8140285611152649,-2.9449462890625,6.28662109375,-2.0904541015625
17.7099999,-9.828198432922363,0.9840168952941895,0.7541735172271729,-9.33837890625,10.3607177734375,1.953125
17.7299999,-9.804255485534668,0.9696516990661621,0.706289529800415,-12.1002197265625,6.1492919921875,3.814697265625
17.749999900000002,-9.911994934082031,0.9385270476341248,0.6272808313369751,-11.9171142578125,5.7830810546875,3.4942626953125
17.769999900000002,-9.983820915222168,0.9457096457481384,0.5219359993934631,-4.4403076171875,2.044677734375,4.638671875
17.7899999,-9.998186111450195,0.8978256583213806,0.33279404044151306,6.40869140625,-3.4942626953125,-0.30517578125
17.8099999,-10.043676376342773,0.8978256583213806,0.1628057211637497,11.871337890625,-4.5166015625,-3.4332275390625
17.8299999,-9.976638793945312,0.9648633003234863,0.08619125932455063,9.246826171875,-1.0986328125,-1.617431640625
17.8499999,-9.943120002746582,1.1635819673538208,0.08858546614646912,0.9918212890625,1.3580322265625,1.40380859375
17.8699999,-9.888052940368652,1.3479355573654175,0.22026655077934265,-7.476806640625,-1.434326171875,1.2054443359375
17.8899999,-9.928754806518555,1.403002142906189,0.33518823981285095,-9.246826171875,-4.3487548828125,0.5340576171875
17.909999900000003,-9.952696800231934,1.3431471586227417,0.3734954595565796,-5.0201416015625,-7.9498291015625,1.708984375
17.929999900000002,-9.971850395202637,1.0606313943862915,0.3878606855869293,3.23486328125,-10.5743408203125,-1.7852783203125
17.9499999,-9.99339771270752,0.8379706144332886,0.4213795065879822,11.0931396484375,-10.31494140625,-2.25830078125
17.9699999,-9.885659217834473,0.7134721279144287,0.6248866319656372,8.6822509765625,-5.6915283203125,3.0364990234375
17.9899999,-9.792284965515137,0.811634361743927,0.9481038451194763,-6.4239501953125,4.45556640625,7.7972412109375
18.0099999,-9.725247383117676,1.0749965906143188,1.1971008777618408,-19.6380615234375,11.23046875,5.9051513671875
18.0299999,-9.710882186889648,1.3958195447921753,1.256955862045288,-16.1895751953125,9.9945068359375,3.021240234375
18.0499999,-9.794678688049316,1.53707754611969,1.0462661981582642,-6.2103271484375,2.5634765625,2.044677734375
18.0699999,-9.876082420349121,1.5514427423477173,0.6224924325942993,3.0517578125,-3.7078857421875,-4.638671875
18.089999900000002,-9.962273597717285,1.3623007535934448,0.22266076505184174,10.31494140625,-4.5928955078125,-8.97216796875
18.109999900000002,-10.000580787658691,1.1276689767837524,-0.10295066982507706,16.3726806640625,-6.16455078125,-5.8441162109375
18.1299999,-10.041281700134277,0.9744400978088379,-0.2082955539226532,17.9901123046875,-10.162353515625,-0.1678466796875
18.1499999,-10.022128105163574,0.8738836050033569,-0.10534487664699554,10.162353515625,-12.359619140625,3.7994384765625
18.1699999,-9.96945571899414,0.933738648891449,0.14604631066322327,1.9989013671875,-9.429931640625,2.74658203125
18.1899999,-9.923966407775879,1.072602391242981,0.5746083855628967,1.3427734375,-8.7890625,2.44140625
18.2099999,-9.854534149169922,1.2090718746185303,0.9983820915222168,-2.0904541015625,-8.2855224609375,1.4801025390625
18.2299999,-9.792284965515137,1.2689268589019775,1.3072341680526733,-5.9967041015625,-2.593994140625,-3.60107421875
18.249999900000002,-9.763554573059082,1.3072341680526733,1.5322890281677246,-7.0037841796875,5.523681640625,-4.638671875
18.269999900000002,-9.68933391571045,1.2617442607879639,1.5538369417190552,-8.48388671875,9.796142578125,0.30517578125
18.2899999,-9.684545516967773,1.3527239561080933,1.6041151285171509,-15.2587890625,14.068603515625,2.7008056640625
18.3099999,-9.646238327026367,1.4628572463989258,1.5729905366897583,-26.3671875,20.2484130859375,0.9613037109375
18.3299999,-9.710882186889648,1.599326729774475,1.4748282432556152,-29.5257568359375,26.824951171875,-3.2196044921875
18.3499999,-9.785101890563965,1.5873557329177856,1.1492167711257935,-19.4091796875,21.0113525390625,-5.279541015625
18.3699999,-9.911994934082031,1.381454348564148,0.5674257874488831,-2.25830078125,8.7432861328125,-7.843017578125
18.3899999,-10.050858497619629,0.9624691009521484,-0.16998831927776337,13.427734375,-0.9307861328125,-9.1705322265625
18.409999900000003,-10.168174743652344,0.5770025849342346,-0.7876923680305481,22.7203369140625,-7.1258544921875,-5.4168701171875
18.429999900000002,-10.244789123535156,0.304063618183136,-1.1516109704971313,27.862548828125,-13.8702392578125,-0.701904296875
18.4499999,-10.254365921020508,0.2849099934101105,-1.091755986213684,26.947021484375,-18.768310546875,5.31005859375
18.4699999,-10.170568466186523,0.5099649429321289,-0.6847416758537292,14.9383544921875,-19.83642578125,7.843017578125
18.4899999,-10.067618370056152,0.8930372595787048,-0.07182604819536209,5.462646484375,-16.54052734375,4.21142578125
18.5099999,-9.914389610290527,1.256955862045288,0.6368576288223267,2.2430419921875,-16.3726806640625,2.777099609375
18.5299999,-9.770736694335938,1.5203180313110352,1.2761094570159912,-1.9073486328125,-12.1307373046875,0.457763671875
18.5499999,-9.653421401977539,1.5969325304031372,1.7310078144073486,-6.561279296875,-1.739501953125,-5.0048828125
18.5699999,-9.59596061706543,1.4939818382263184,1.9728221893310547,-8.819580078125,8.7890625,-5.0811767578125
18.589999900000002,-9.600749015808105,1.3503297567367554,1.9919757843017578,-8.6669921875,13.73291015625,1.0986328125
18.609999900000002,-9.658209800720215,1.2090718746185303,1.723825216293335,-9.490966796875,15.6707763671875,4.425048828125
18.6299999,-9.746794700622559,1.0821791887283325,1.2018892765045166,-3.936767578125,10.955810546875,2.3651123046875
18.6499999,-9.926360130310059,1.0462661981582642,0.6177040338516235,11.7645263671875,1.0528564453125,-1.0528564453125
18.6699999,-10.029311180114746,1.0247182846069336,0.040701430290937424,24.383544921875,-10.8489990234375,-2.288818359375
18.6899999,-10.089165687561035,1.0630255937576294,-0.21787235140800476,25.4669189453125,-15.838623046875,-7.659912109375
18.7099999,-10.096348762512207,1.1037269830703735,-0.2082955539226532,18.585205078125,-12.2833251953125,-12.4969482421875
18.7299999,-9.971850395202637,1.1180921792984009,0.15083470940589905,9.4451904296875,-5.06591796875,-8.36181640625
18.749999900000002,-9.823410034179688,1.1444283723831177,0.6847416758537292,-1.3580322265625,0.5340576171875,0.1220703125
18.769999900000002,-9.773131370544434,1.0869675874710083,1.139639973640442,-14.556884765625,5.2032470703125,3.7841796875
18.7899999,-9.75397777557373,1.072602391242981,1.3958195447921753,-16.9525146484375,9.735107421875,2.25830078125
18.8099999,-9.911994934082031,0.9217676520347595,1.1252747774124146,3.11279296875,-3.1890869140625,1.953125
18.8299999,-9.955090522766113,0.8355764150619507,0.7709329724311829,8.026123046875,-6.7138671875,-2.9754638671875
18.8499999,-9.952696800231934,0.8236053586006165,0.5171475410461426,7.8125,-3.96728515625,-3.84521484375
18.8699999,-9.84256362915039,0.9050082564353943,0.4429273009300232,1.068115234375,-0.6561279296875,1.15966796875
18.8899999,-9.78989028930664,1.1204863786697388,0.6727706789970398,-13.0767822265625,3.692626953125,3.9215087890625
18.909999900000003,-9.742006301879883,1.3000515699386597,0.9481038451194763,-26.9622802734375,9.1552734375,2.8839111328125
18.929999900000002,-9.739612579345703,1.4628572463989258,1.3287819623947144,-28.80859375,15.5792236328125,1.3580322265625
18.9499999,-9.730035781860352,1.5466543436050415,1.556231141090393,-27.374267578125,14.4500732421875,0.091552734375
18.9699999,-9.548076629638672,1.6879122257232666,1.824381709098816,-38.3148193359375,18.1884765625,-2.105712890625
18.9899999,-8.580819129943848,1.4939818382263184,1.723825216293335,-62.6220703125,38.75732421875,4.241943359375
19.0099999,-7.620744228363037,1.0654197931289673,1.3742717504501343,-48.9654541015625,51.2542724609375,11.6729736328125
19.0299999,-7.441178798675537,0.19153612852096558,0.4812345504760742,6.561279296875,18.61572265625,-3.631591796875
19.0499999,-7.6351094245910645,-0.5051765441894531,-0.5099649429321289,59.02099609375,-0.4119873046875,14.0228271484375
19.0699999,-8.724471092224121,-0.6033388376235962,-0.8738836050033569,66.2384033203125,-12.8173828125,23.193359375
19.089999900000002,-9.914389610290527,0.16759411990642548,-0.5650315880775452,13.916015625,10.5438232421875,28.289794921875
19.109999900000002,-10.347740173339844,1.3311761617660522,0.47405192255973816,-42.90771484375,43.182373046875,13.0462646484375
19.1299999,-10.807426452636719,2.499546527862549,1.41257905960083,-72.2198486328125,59.38720703125,6.011962890625
19.1499999,-11.21204662322998,3.114856481552124,1.778891921043396,-76.6754150390625,59.2041015625,-0.1068115234375
19.1699999,-11.777078628540039,3.1962592601776123,1.0247182846069336,-75.592041015625,59.173583984375,-2.685546875
19.1899999,-12.100295066833496,2.719813108444214,-0.507570743560791,-42.449951171875,34.088134765625,-4.3487548828125
19.2099999,-12.196063041687012,2.0470423698425293,-2.252943754196167,15.2587890625,-13.3209228515625,-1.190185546875
19.2299999,-11.645397186279297,1.3623007535934448,-3.3854012489318848,44.86083984375,-47.6226806640625,-9.3994140625
19.249999900000002,-10.714052200317383,0.9457096457481384,-3.272873640060425,26.0162353515625,-42.083740234375,-10.6048583984375
19.269999900000002,-9.708487510681152,0.8259995579719543,-2.094926595687866,-13.7939453125,-14.5111083984375,-4.9896240234375
19.2899999,-9.040505409240723,0.8547300100326538,-0.5817909836769104,-36.2091064453125,2.5634765625,-1.861572265625
19.3099999,-8.947132110595703,0.811634361743927,0.49799394607543945,-25.482177734375,0.701904296875,0.48828125
19.3299999,-9.32541561126709,0.7589619159698486,0.8834604024887085,2.532958984375,-7.75146484375,4.94384765625
19.3499999,-9.797073364257812,0.8164227604866028,0.8379706144332886,17.059326171875,-13.00048828125,6.134033203125
19.3699999,-10.046070098876953,1.048660397529602,0.7134721279144287,12.4053955078125,-9.8114013671875,0.42724609375
19.3899999,-10.000580787658691,1.3910311460494995,0.730231523513794,-7.5531005859375,4.6234130859375,-4.6234130859375
19.409999900000003,-9.864110946655273,1.6831238269805908,0.8020575642585754,-16.8304443359375,17.5018310546875,-5.5694580078125
19.429999900000002,-9.797073364257812,1.6903064250946045,0.6919242739677429,-10.5133056640625,14.7705078125,-4.8828125
19.4499999,-9.873687744140625,1.4915876388549805,0.31603461503982544,0.213623046875,4.6234130859375,-2.2125244140625
19.4699999,-10.02691650390625,1.2401964664459229,-0.24181437492370605,7.049560546875,-4.6234130859375,2.3651123046875
19.4899999,-10.144232749938965,1.0989385843276978,-0.7445967197418213,6.744384765625,-12.054443359375,0.7476806640625
19.5099999,-10.144232749938965,1.0869675874710083,-0.9385270476341248,-0.244140625,-15.7318115234375,-3.5552978515625
19.5299999,-10.070012092590332,1.1109095811843872,-0.7781155705451965,-6.0882568359375,-13.671875,-2.471923828125
19.5499999,-9.96945571899414,1.0845733880996704,-0.3471592366695404,-5.31005859375,-9.3994140625,3.204345703125
19.5699999,-9.86650562286377,0.9983820915222168,0.14365209639072418,-5.5389404296875,-6.0882568359375,7.537841796875
19.589999900000002,-9.847352027893066,1.015141487121582,0.5267243981361389,-4.2724609375,-3.1585693359375,6.65283203125
19.609999900000002,-9.873687744140625,1.1276689767837524,0.6751648783683777,-0.6866455078125,0.1373291015625,3.7078857421875
19.6299999,-9.962273597717285,1.3048399686813354,0.6440402865409851,-1.2969970703125,0.6103515625,1.434326171875
19.6499999,-10.034099578857422,1.4269442558288574,0.5267243981361389,-2.6092529296875,-2.960205078125,1.2664794921875
19.6699999,-10.034099578857422,1.436521053314209,0.4165911078453064,-0.1983642578125,-3.3721923828125,2.1209716796875
19.6899999,-9.96945571899414,1.434126853942871,0.4118026793003082,2.777099609375,0.42724609375,2.349853515625
19.7099999,-9.86889934539795,1.5155296325683594,0.5482721924781799,2.5634765625,4.8980712890625,-0.030517578125
19.7299999,-9.672574996948242,1.8148049116134644,1.1540051698684692,-7.8125,11.9781494140625,-6.591796875
19.749999900000002,-9.387664794921875,2.3295583724975586,1.98958158493042,-61.309814453125,42.724609375,-7.2784423828125
19.769999900000002,-9.107542991638184,2.650381326675415,2.6001031398773193,-132.537841796875,89.53857421875,7.904052734375
19.7899999,-8.865729331970215,2.7030537128448486,2.631227731704712,-147.2625732421875,100.40283203125,24.6124267578125
19.8099999,-8.935160636901855,2.1954829692840576,1.5131354331970215,-116.1346435546875,78.9794921875,34.423828125
19.8299999,-9.366117477416992,1.45806884765625,-0.4812345504760742,-62.347412109375,44.5709228515625,32.5469970703125
19.8499999,-10.012551307678223,0.727837324142456,-2.7748796939849854,3.662109375,8.819580078125,17.3187255859375
19.8699999,-10.520122528076172,0.42377370595932007,-4.501099109649658,65.3076171875,-27.8472900390625,-0.8087158203125
19.8899999,-10.63504409790039,0.6344634294509888,-4.970362663269043,88.897705078125,-51.9866943359375,-10.0250244140625
19.909999900000003,-10.431536674499512,1.070208191871643,-4.0964789390563965,57.586669921875,-42.0684814453125,-10.7574462890625
19.929999900000002,-10.180145263671875,1.556231141090393,-2.52109432220459,11.77978515625,-14.1448974609375,-9.613037109375
19.9499999,-10.3549222946167,1.8626888990402222,-0.9026140570640564,10.3759765625,-9.1552734375,-5.6915283203125
19.9699999,-10.316615104675293,1.6903064250946045,-0.09576806426048279,38.75732421875,-21.240234375,-3.96728515625
19.9899999,-11.66455078125,1.644816517829895,-0.035913024097681046,61.248779296875,-31.9366455078125,-6.1492919921875
20.0099999,-12.401965141296387,1.434126853942871,-0.44771572947502136,69.366455078125,-51.055908203125,-27.7099609375
