# Time (seconds),Accel_X,Accel_Y,Accel_Z,Gyro_X,Gyro_Y,Gyro_Z
0.0099999,-10.280701637268066,-0.9361328482627869,0.19393034279346466,-7.965087890625,-3.3111572265625,-9.552001953125
0.029999900000000003,-10.153809547424316,-1.0630255937576294,0.19632454216480255,-7.8887939453125,-5.4473876953125,-9.918212890625
0.0499999,-9.986215591430664,-1.2066776752471924,0.21787235140800476,-8.056640625,-7.14111328125,-7.537841796875
0.0699999,-9.804255485534668,-1.335964560508728,0.26815059781074524,-8.0108642578125,-10.772705078125,-6.591796875
0.08999990000000001,-9.643844604492188,-1.434126853942871,0.3447650372982025,-7.5836181640625,-13.36669921875,-5.9661865234375
0.10999990000000001,-9.552865028381348,-1.4652514457702637,0.43335050344467163,-7.965087890625,-10.6964111328125,-2.5787353515625
0.1299999,-9.548076629638672,-1.4173674583435059,0.5123591423034668,-9.09423828125,-6.6680908203125,0
0.14999990000000002,-9.622296333312988,-1.3096283674240112,0.5554547905921936,-9.8419189453125,-5.3863525390625,-0.946044921875
0.1699999,-9.763554573059082,-1.1348515748977661,0.5434837937355042,-10.406494140625,-6.8359375,-1.6632080078125
0.1899999,-9.892841339111328,-0.9457096457481384,0.4812345504760742,-10.9100341796875,-6.65283203125,-0.244140625
0.20999990000000002,-9.952696800231934,-0.768538773059845,0.3902548849582672,-11.0931396484375,-3.753662109375,2.3651123046875
0.2299999,-9.943120002746582,-0.6224924325942993,0.2777273952960968,-10.2691650390625,0.244140625,5.0048828125
0.2499999,-9.880870819091797,-0.5291185975074768,0.17238251864910126,-8.2855224609375,3.173828125,7.568359375
0.2699999,-9.86650562286377,-0.4668693244457245,0.06703764945268631,-5.79833984375,5.1727294921875,9.8876953125
0.28999990000000003,-9.979032516479492,-0.4213795065879822,-0.05506663769483566,-2.5177001953125,1.28173828125,4.9896240234375
0.3099999,-10.072406768798828,-0.42856210470199585,-0.05267243832349777,-2.0294189453125,1.4190673828125,2.655029296875
0.3299999,-10.168174743652344,-0.45489832758903503,-0.019153613597154617,-1.617431640625,3.2501220703125,2.0751953125
0.34999990000000003,-10.237606048583984,-0.5051765441894531,0.031124621629714966,-0.3814697265625,0.335693359375,1.556396484375
0.3699999,-10.273519515991211,-0.5554547905921936,0.08619125932455063,1.52587890625,-6.89697265625,1.6021728515625
0.3899999,-10.256759643554688,-0.5793967843055725,0.15801730751991272,1.6632080078125,-10.1776123046875,3.875732421875
0.40999990000000003,-10.158597946166992,-0.5674257874488831,0.24660277366638184,-0.5645751953125,-5.7220458984375,6.500244140625
0.4299999,-9.99100399017334,-0.5027823448181152,0.35434186458587646,-3.8604736328125,0.1678466796875,8.056640625
0.4499999,-9.813833236694336,-0.42616790533065796,0.43335050344467163,-7.537841796875,5.0811767578125,9.3841552734375
0.4699999,-9.904812812805176,-0.3208230137825012,0.4596867263317108,-11.3983154296875,8.4686279296875,11.4593505859375
0.4899999,-10.050858497619629,-0.3016694188117981,0.43095630407333374,-13.8092041015625,8.941650390625,5.43212890625
0.5099999,-10.326191902160645,-0.30885201692581177,0.33518823981285095,-15.07568359375,9.7198486328125,1.8463134765625
0.5299999,-10.484209060668945,-0.38067805767059326,0.21547815203666687,-14.7552490234375,8.6669921875,2.3193359375
0.5499999,-10.407594680786133,-0.4908113479614258,0.11252748221158981,-13.5650634765625,6.988525390625,4.119873046875
0.5699999,-10.20887565612793,-0.5746083855628967,0.043095629662275314,-13.336181640625,6.927490234375,7.4462890625
0.5899998999999999,-10.005369186401367,-0.6512228846549988,0.021547814831137657,-12.8326416015625,6.8206787109375,9.09423828125
0.6099998999999999,-9.907206535339355,-0.7086837291717529,0.038307227194309235,-11.749267578125,6.103515625,10.009765625
0.6299999,-9.888052940368652,-0.7350199222564697,0.05267243832349777,-10.8642578125,6.53076171875,12.5579833984375
0.6499999,-9.923966407775879,-0.6847416758537292,0.06224924325942993,-10.009765625,7.14111328125,14.8162841796875
0.6699999,-9.952696800231934,-0.5770025849342346,0.05746084079146385,-8.11767578125,6.3323974609375,14.617919921875
0.6899999,-9.950302124023438,-0.4165911078453064,0.06464344263076782,-6.04248046875,6.0577392578125,13.397216796875
0.7099999,-9.943120002746582,-0.22505496442317963,0.07422025501728058,-6.65283203125,7.568359375,13.397216796875
0.7299998999999999,-9.945513725280762,-0.06464344263076782,0.08619125932455063,-8.9569091796875,8.8653564453125,12.603759765625
0.7499998999999999,-9.950302124023438,0.06224924325942993,0.09576806426048279,-9.796142578125,8.7738037109375,10.68115234375
0.7699999,-9.947908401489258,0.1604115068912506,0.12449848651885986,-10.772705078125,9.6893310546875,10.0555419921875
0.7899999,-9.923966407775879,0.2753331959247589,0.1867477297782898,-15.594482421875,12.4664306640625,9.5672607421875
0.8099999,-9.888052940368652,0.3734954595565796,0.2106897532939911,-22.2625732421875,15.5181884765625,6.927490234375
0.8299999,-9.806650161743164,0.35434186458587646,0.24181437492370605,-24.444580078125,16.6473388671875,4.2724609375
0.8499998999999999,-9.794678688049316,0.40701428055763245,0.035913024097681046,-22.430419921875,15.9759521484375,4.2266845703125
0.8699998999999999,-9.885659217834473,0.28730419278144836,-0.19393034279346466,-17.5628662109375,13.7176513671875,0.42724609375
0.8899999,-10.005369186401367,0.20111294090747833,-0.6248866319656372,-8.0108642578125,11.77978515625,0.579833984375
0.9099999,-10.1753568649292,0.021547814831137657,-1.0271124839782715,4.45556640625,5.9967041015625,1.03759765625
0.9299999,-10.26394271850586,-0.2059013396501541,-1.3718775510787964,13.458251953125,-1.2359619140625,2.86865234375
0.9499999,-10.266336441040039,-0.3663128614425659,-1.5466543436050415,17.08984375,-5.55419921875,6.53076171875
0.9699998999999999,-10.216058731079102,-0.4812345504760742,-1.5179238319396973,17.3187255859375,-8.5601806640625,7.537841796875
0.9899998999999999,-10.146626472473145,-0.47405192255973816,-1.3527239561080933,14.16015625,-10.406494140625,8.270263671875
1.0099999,-10.072406768798828,-0.3711012601852417,-1.1324573755264282,11.138916015625,-12.26806640625,11.29150390625
1.0299999,-10.022128105163574,-0.19632454216480255,-0.8667010068893433,12.4053955078125,-14.495849609375,11.9476318359375
1.0499999,-9.981427192687988,0.05746084079146385,-0.5770025849342346,15.5792236328125,-15.045166015625,8.85009765625
1.0699999,-9.93593692779541,0.3232172429561615,-0.26575639843940735,18.73779296875,-12.664794921875,5.8135986328125
1.0899999,-9.9000244140625,0.5817909836769104,0.10295066982507706,20.1263427734375,-9.552001953125,4.547119140625
1.1099999,-9.856928825378418,0.7541735172271729,0.47884035110473633,13.092041015625,-5.4473876953125,3.936767578125
1.1299999,-9.804255485534668,0.8212111592292786,0.7924807667732239,-2.7618408203125,1.373291015625,3.0975341796875
1.1499999,-9.77791976928711,0.7852981686592102,1.036689281463623,-19.256591796875,8.4075927734375,3.3111572265625
1.1699998999999999,-9.773131370544434,0.6488286852836609,1.0989385843276978,-30.242919921875,13.9617919921875,5.706787109375
1.1899998999999999,-9.799467086791992,0.4165911078453064,0.9026140570640564,-31.707763671875,16.876220703125,7.7362060546875
1.2099999,-9.864110946655273,0.1388636976480484,0.42616790533065796,-21.6827392578125,15.4876708984375,8.5601806640625
1.2299999,-9.962273597717285,-0.11252748221158981,-0.19871874153614044,-3.3721923828125,9.5062255859375,9.521484375
1.2499999,-10.053253173828125,-0.2585737705230713,-0.8475474119186401,13.1378173828125,2.38037109375,11.7340087890625
1.2699999,-10.134655952453613,-0.26575639843940735,-1.3551181554794312,23.4222412109375,-3.7689208984375,12.1612548828125
1.2899999,-10.168174743652344,-0.12928688526153564,-1.6136919260025024,29.0679931640625,-8.697509765625,10.772705078125
1.3099999,-10.156203269958496,0.14844051003456116,-1.599326729774475,27.069091796875,-12.451171875,10.7269287109375
1.3299999,-10.122684478759766,0.4812345504760742,-1.4077905416488647,18.1884765625,-14.6484375,10.711669921875
1.3499999,-10.065223693847656,0.7996633648872375,-1.091755986213684,11.5814208984375,-15.899658203125,8.697509765625
1.3699999,-9.99339771270752,1.0103530883789062,-0.727837324142456,9.3994140625,-17.0135498046875,6.5460205078125
1.3899999,-9.952696800231934,1.1348515748977661,-0.33039984107017517,7.4920654296875,-16.2506103515625,5.035400390625
1.4099999,-9.9000244140625,1.115697979927063,0.031124621629714966,6.195068359375,-13.6566162109375,4.9896240234375
1.4299998999999999,-9.8784761428833,1.0271124839782715,0.3471592366695404,6.77490234375,-11.1083984375,4.0435791015625
1.4499999,-9.830592155456543,0.9313444495201111,0.6153098344802856,4.3487548828125,-8.6517333984375,3.875732421875
1.4699999,-9.780313491821289,0.993593692779541,0.8786720037460327,-7.9803466796875,-2.960205078125,4.241943359375
1.4899999,-9.730035781860352,1.161187767982483,1.0630255937576294,-22.0184326171875,4.974365234375,1.1444091796875
1.5099999,-9.732429504394531,1.3311761617660522,1.1516109704971313,-26.4892578125,11.1541748046875,-3.7689208984375
1.5299999,-9.799467086791992,1.3742717504501343,1.048660397529602,-21.484375,12.237548828125,-4.4097900390625
1.5499999,-9.854534149169922,1.2641384601593018,0.8643068075180054,-16.9525146484375,10.5743408203125,-3.0670166015625
1.5699999,-9.909601211547852,1.0031704902648926,0.6129156351089478,-14.6331787109375,10.009765625,-5.0506591796875
1.5899999,-9.871294021606445,0.6368576288223267,0.3711012601852417,-8.6212158203125,13.12255859375,-6.34765625
1.6099999,-9.799467086791992,0.4213795065879822,0.15562310814857483,-3.387451171875,14.6942138671875,-6.2408447265625
1.6299999,-9.780313491821289,0.2346317619085312,-0.12449848651885986,-9.4757080078125,15.3656005859375,0.1373291015625
1.6499999,-9.830592155456543,0.33279404044151306,-0.35913026332855225,-21.3470458984375,16.41845703125,3.5858154296875
1.6699999,-9.986215591430664,0.45489832758903503,-0.7398083209991455,-23.6053466796875,12.0849609375,4.7760009765625
1.6899998999999999,-10.096348762512207,0.4620809257030487,-1.256955862045288,-5.828857421875,-4.3792724609375,4.8980712890625
1.7099999,-10.24239444732666,0.3711012601852417,-1.656787633895874,23.651123046875,-19.1497802734375,-1.5869140625
1.7299999,-10.18493366241455,0.31842881441116333,-1.7405846118927002,32.89794921875,-22.552490234375,-6.1187744140625
1.7499999,-10.105925559997559,0.3878606855869293,-1.4293384552001953,10.43701171875,-12.5732421875,2.0904541015625
1.7699999,-10.072406768798828,0.5363011956214905,-0.7781155705451965,-11.4593505859375,-7.598876953125,5.126953125
1.7899999,-9.99339771270752,0.7565677165985107,0.0933738648891449,-12.2833251953125,-10.80322265625,7.080078125
1.8099999,-9.871294021606445,0.8403648138046265,0.6799532771110535,-16.7999267578125,-9.368896484375,1.8463134765625
1.8299999,-9.813833236694336,0.8595184087753296,1.1013327836990356,-14.7705078125,3.021240234375,-6.2255859375
1.8499999,-9.737217903137207,1.0821791887283325,1.2952631711959839,-11.23046875,14.16015625,-3.7078857421875
1.8699999,-9.677363395690918,1.1516109704971313,1.194706678390503,-28.1829833984375,18.890380859375,-2.1820068359375
1.8899999,-9.919178009033203,1.335964560508728,0.9409212470054626,-31.5093994140625,11.474609375,-6.4239501953125
1.9099999,-9.883264541625977,1.2497732639312744,0.48602294921875,-16.7999267578125,12.908935546875,-7.6751708984375
1.9299998999999999,-9.995792388916016,0.9552865028381348,-0.10055647045373917,-2.410888671875,10.6201171875,-16.9677734375
1.9499999,-9.988609313964844,0.7422025203704834,-0.5195417404174805,10.7879638671875,1.6632080078125,-15.3350830078125
1.9699999,-9.888052940368652,0.3495534360408783,-0.993593692779541,2.5482177734375,6.683349609375,-3.3416748046875
1.9899999,-10.105925559997559,0.17238251864910126,-1.115697979927063,0.946044921875,7.568359375,-0.8544921875
2.0099999,-10.086771965026855,0.05746084079146385,-1.0319008827209473,8.6517333984375,-9.0789794921875,-6.89697265625
2.0299999,-10.08437728881836,0.023942016065120697,-0.9385270476341248,4.3182373046875,-11.016845703125,-5.4931640625
2.0499999,-10.091560363769531,0.05746084079146385,-0.6416460275650024,5.9661865234375,-0.732421875,-4.974365234375
2.0699999,-9.998186111450195,0.21308395266532898,-0.3016694188117981,1.1138916015625,2.9449462890625,-1.678466796875
2.0899999,-9.888052940368652,0.35673606395721436,-0.14604631066322327,-13.6566162109375,0.30517578125,1.1749267578125
2.1099999,-9.967061996459961,0.47165772318840027,-0.014365210197865963,-5.9661865234375,-3.082275390625,2.166748046875
2.1299999,-9.907206535339355,0.5267243981361389,0.004788403399288654,7.1258544921875,-11.8408203125,-4.425048828125
2.1499999,-9.861717224121094,0.5937620401382446,0.11971008777618408,8.2244873046875,-5.126953125,-11.0015869140625
2.1699999,-9.909601211547852,0.6344634294509888,0.13407529890537262,-4.9896240234375,5.67626953125,-2.4261474609375
2.1899999,-9.75637149810791,0.7829039692878723,0.3280056416988373,-16.3421630859375,8.758544921875,-1.556396484375
2.2099999,-9.911994934082031,1.0606313943862915,0.5267243981361389,-26.702880859375,2.9144287109375,-4.6539306640625
2.2299999,-9.782708168029785,1.1659762859344482,0.7182605266571045,-52.8564453125,7.110595703125,-8.331298828125
2.2499999,-9.84495735168457,1.2761094570159912,0.8882488012313843,-63.934326171875,22.491455078125,-18.4326171875
2.2699999,-9.950302124023438,0.9241618514060974,0.7541735172271729,-54.229736328125,28.656005859375,-19.59228515625
2.2899999,-9.955090522766113,0.28969839215278625,0.10295066982507706,-29.11376953125,26.7333984375,-10.5743408203125
2.3099999,-10.101137161254883,-0.5554547905921936,-0.8786720037460327,12.5579833984375,7.720947265625,-9.124755859375
2.3299999,-10.232817649841309,-1.314416766166687,-1.821987509727478,60.6842041015625,-15.3045654296875,1.8157958984375
2.3499999,-10.20648193359375,-1.6089035272598267,-2.4636335372924805,77.94189453125,-22.491455078125,1.6632080078125
2.3699999,-10.158597946166992,-1.3048399686813354,-2.118868589401245,68.115234375,-24.505615234375,-0.9613037109375
2.3899999,-10.031704902648926,-0.4836287498474121,-1.256955862045288,19.1802978515625,-6.591796875,4.9896240234375
2.4099999,-9.892841339111328,0.38067805767059326,-0.2968810200691223,-30.6243896484375,7.4310302734375,1.861572265625
2.4299999,-9.914389610290527,0.9911994934082031,0.47884035110473633,-27.2369384765625,-1.0528564453125,-3.2501220703125
2.4499999,-9.880870819091797,1.0414776802062988,0.4357447028160095,-4.3487548828125,-6.3323974609375,-4.364013671875
2.4699999,-9.96945571899414,0.7709329724311829,0.1364694982767105,16.4031982421875,-7.904052734375,-9.27734375
2.4899999,-10.012551307678223,0.5674257874488831,-0.043095629662275314,21.240234375,-5.096435546875,-5.37109375
2.5099999,-9.983820915222168,0.21308395266532898,-0.26336219906806946,-0.579833984375,-0.640869140625,1.5716552734375
2.5299999,-10.146626472473145,0.12689268589019775,-0.21787235140800476,-1.8310546875,-5.2032470703125,-1.28173828125
2.5499999,-10.029311180114746,-0.16759411990642548,-0.2825157940387726,16.3726806640625,-14.1143798828125,-0.1373291015625
2.5699999,-10.046070098876953,-0.26575639843940735,-0.2992752194404602,30.6854248046875,-14.2822265625,-3.6773681640625
2.5899999,-9.926360130310059,-0.14365209639072418,-0.038307227194309235,30.487060546875,-7.0343017578125,-5.2032470703125
2.6099999,-9.797073364257812,0.12689268589019775,0.3208230137825012,1.28173828125,3.936767578125,1.7547607421875
2.6299999,-9.950302124023438,0.5123591423034668,0.5674257874488831,-16.937255859375,7.14111328125,-3.84521484375
2.6499999,-9.861717224121094,0.5937620401382446,0.5770025849342346,-2.62451171875,0.9918212890625,-7.2174072265625
2.6699999,-9.986215591430664,0.49799394607543945,0.26575639843940735,16.7236328125,-4.1961669921875,-10.955810546875
2.6899999,-9.952696800231934,0.42856210470199585,0.15562310814857483,20.6146240234375,-2.471923828125,-14.2974853515625
2.7099999,-9.9000244140625,0.33758243918418884,0.22266076505184174,-7.1258544921875,10.2691650390625,-6.927490234375
2.7299999,-9.971850395202637,0.37828385829925537,0.33518823981285095,-33.1878662109375,14.1448974609375,-8.758544921875
2.7499999,-9.947908401489258,0.1364694982767105,0.3495534360408783,-25.4364013671875,8.3770751953125,-9.918212890625
2.7699999,-9.99339771270752,-0.26096799969673157,0.016759412363171577,-1.2969970703125,1.3427734375,-7.568359375
2.7899999,-9.99339771270752,-0.7661445140838623,-0.44771572947502136,21.5911865234375,-0.946044921875,-8.636474609375
2.8099999,-10.053253173828125,-1.0869675874710083,-0.7493851184844971,27.130126953125,0.640869140625,-0.030517578125
2.8299999,-10.050858497619629,-1.0773907899856567,-0.950498104095459,21.2249755859375,-2.50244140625,6.1187744140625
2.8499999,-10.165780067443848,-0.871489405632019,-0.9241618514060974,26.9775390625,-12.4969482421875,5.0048828125
2.8699999,-10.110713958740234,-0.5841852426528931,-0.8451532125473022,33.4930419921875,-18.1121826171875,1.007080078125
2.8899999,-10.074800491333008,-0.17238251864910126,-0.6177040338516235,33.7982177734375,-15.4266357421875,-6.28662109375
2.9099999,-10.012551307678223,0.1604115068912506,-0.2825157940387726,18.829345703125,-8.392333984375,-4.150390625
2.9299999,-9.93593692779541,0.4189853072166443,0.047884032130241394,-1.922607421875,-1.77001953125,3.2958984375
2.9499999,-9.931148529052734,0.49320554733276367,0.3256114423274994,-4.364013671875,-4.5928955078125,4.150390625
2.9699999,-9.945513725280762,0.3280056416988373,0.3902548849582672,3.4942626953125,-8.8348388671875,2.62451171875
2.9899999,-9.919178009033203,0.090979665517807,0.42616790533065796,12.02392578125,-7.720947265625,-0.48828125
3.0099999,-9.945513725280762,-0.13407529890537262,0.3758896589279175,8.2550048828125,-0.7171630859375,2.593994140625
3.0299999,-9.916783332824707,-0.24660277366638184,0.31842881441116333,-3.387451171875,4.119873046875,8.7738037109375
3.0499999,-9.971850395202637,-0.3687070608139038,0.26096799969673157,-2.38037109375,-4.5928955078125,9.3994140625
3.0699999,-9.998186111450195,-0.47644615173339844,0.1604115068912506,5.2032470703125,-13.458251953125,7.2784423828125
3.0899999,-10.007762908935547,-0.524330198764801,0.2346317619085312,11.1541748046875,-11.627197265625,4.364013671875
3.1099999,-9.888052940368652,-0.4572925269603729,0.5195417404174805,4.9285888671875,-2.960205078125,2.5787353515625
3.1299999,-9.883264541625977,-0.2513911724090576,0.8667010068893433,-10.8184814453125,9.063720703125,6.439208984375
3.1499999,-9.847352027893066,0.08619125932455063,1.1468225717544556,-17.2271728515625,9.5977783203125,6.8817138671875
3.1699999,-9.876082420349121,0.38307225704193115,1.1875240802764893,-15.0909423828125,3.7689208984375,3.814697265625
3.1899999,-9.876082420349121,0.5937620401382446,1.0342950820922852,-11.9476318359375,7.01904296875,-4.5623779296875
3.2099999,-9.895236015319824,0.8044517636299133,0.8355764150619507,-14.801025390625,13.824462890625,-12.0391845703125
3.2299999,-9.876082420349121,0.8092401623725891,0.5770025849342346,-26.275634765625,20.263671875,-7.0648193359375
3.2499999,-9.921571731567383,0.5793967843055725,0.31364041566848755,-32.89794921875,17.8070068359375,-4.4403076171875
3.2699999,-10.010157585144043,0.15562310814857483,-0.1149216815829277,-21.6522216796875,7.5531005859375,-3.4942626953125
3.2899999,-10.113107681274414,-0.5123591423034668,-0.5937620401382446,1.861572265625,0.4730224609375,-2.0751953125
3.3099999,-10.108319282531738,-1.1228805780410767,-0.9720458984375,22.003173828125,-3.7078857421875,-0.3509521484375
3.3299999000000002,-10.15141487121582,-1.3742717504501343,-1.192312479019165,24.2462158203125,-2.838134765625,10.6048583984375
3.3499999,-10.137049674987793,-1.3072341680526733,-1.213860273361206,18.6614990234375,-7.080078125,15.0146484375
3.3699999,-10.105925559997559,-0.950498104095459,-1.0606313943862915,22.2015380859375,-18.4173583984375,13.153076171875
3.3899999,-10.053253173828125,-0.28730419278144836,-0.8667010068893433,25.3143310546875,-24.7802734375,10.0250244140625
3.4099999,-10.005369186401367,0.4189853072166443,-0.272938996553421,17.88330078125,-21.1334228515625,0.4425048828125
3.4299999,-9.856928825378418,1.115697979927063,0.4620809257030487,-11.8865966796875,-5.340576171875,-3.7689208984375
3.4499999,-9.835380554199219,1.4939818382263184,1.158793568611145,-40.9088134765625,9.429931640625,-2.532958984375
3.4699999,-9.864110946655273,1.3934253454208374,1.7046716213226318,-37.7960205078125,8.636474609375,-2.685546875
3.4899999,-9.813833236694336,0.871489405632019,1.5849615335464478,-19.3023681640625,4.3487548828125,-0.8697509765625
3.5099999,-9.888052940368652,0.0933738648891449,1.2425906658172607,-0.54931640625,5.4779052734375,-3.23486328125
3.5299999,-9.909601211547852,-0.38307225704193115,0.768538773059845,6.500244140625,10.8642578125,-0.6103515625
3.5499999,-9.84495735168457,-0.6272808313369751,0.3878606855869293,-6.7291259765625,13.427734375,9.9334716796875
3.5699999,-10.002974510192871,-0.4812345504760742,0.11252748221158981,-19.866943359375,9.674072265625,7.7056884765625
3.5899999,-10.005369186401367,-0.20350714027881622,-0.2059013396501541,-22.552490234375,2.197265625,5.035400390625
3.6099999,-10.038887977600098,0.009576806798577309,-0.5171475410461426,-18.5089111328125,-2.2430419921875,-0.4730224609375
3.6299999,-10.072406768798828,0.1867477297782898,-0.6248866319656372,-7.476806640625,-4.2266845703125,-3.90625
3.6499999,-9.979032516479492,0.2298433631658554,-0.6392518281936646,-10.1318359375,0.6103515625,1.861572265625
3.6699999,-9.988609313964844,0.26815059781074524,-0.31124621629714966,-6.8206787109375,-3.0364990234375,4.2877197265625
3.6899999,-9.926360130310059,0.45489832758903503,0.2537853717803955,-16.2506103515625,-5.218505859375,4.5623779296875
3.7099999,-9.782708168029785,0.7230489253997803,0.7757213711738586,-61.309814453125,6.1187744140625,4.4708251953125
3.7299999,-9.619902610778809,1.0797849893569946,1.4963760375976562,-93.7957763671875,17.822265625,-6.6986083984375
3.7499999,-9.646238327026367,0.9457096457481384,1.6639702320098877,-100.89111328125,31.097412109375,-8.7432861328125
3.7699999,-9.718064308166504,0.40940847992897034,1.170764684677124,-75.5157470703125,37.2161865234375,1.6937255859375
3.7899999,-10.019734382629395,-0.6248866319656372,-0.026336219161748886,0.0762939453125,14.2974853515625,7.3394775390625
3.8099999,-10.467450141906738,-1.4053963422775269,-1.5298948287963867,80.6732177734375,-16.9525146484375,10.9710693359375
3.8299999000000002,-10.450690269470215,-1.647210717201233,-2.779668092727661,99.4110107421875,-29.8004150390625,7.598876953125
3.8499999,-10.517727851867676,-0.9409212470054626,-2.8131868839263916,83.5418701171875,-31.707763671875,-1.8157958984375
3.8699999,-10.237606048583984,0.24899697303771973,-1.6903064250946045,33.8592529296875,-22.4609375,-3.4027099609375
3.8899999,-9.885659217834473,1.2042834758758545,-0.21308395266532898,-30.70068359375,1.4801025390625,-2.685546875
3.9099999,-9.749189376831055,1.745373010635376,1.2641384601593018,-36.376953125,9.0179443359375,-7.0343017578125
3.9299999,-9.627084732055664,1.501164436340332,1.7717092037200928,-8.209228515625,3.936767578125,-10.009765625
3.9499999,-9.749189376831055,0.3280056416988373,1.139639973640442,24.810791015625,3.5858154296875,-9.82666015625
3.9699999,-9.775525093078613,-0.1604115068912506,0.6847416758537292,-7.0343017578125,11.7034912109375,-0.5645751953125
3.9899999,-9.916783332824707,-0.47644615173339844,0.3734954595565796,-26.702880859375,11.0626220703125,5.0811767578125
4.0099999,-9.981427192687988,-0.7182605266571045,0.07422025501728058,-13.5498046875,3.0517578125,8.0108642578125
4.029999900000001,-10.110713958740234,-0.7038952708244324,-0.3758896589279175,1.03759765625,-2.3651123046875,6.866455078125
4.0499999,-10.122684478759766,-0.5027823448181152,-0.45250412821769714,5.67626953125,-2.899169921875,1.9073486328125
4.069999900000001,-10.105925559997559,-0.13407529890537262,-0.40940847992897034,-15.167236328125,4.241943359375,2.9754638671875
4.0899999000000005,-10.08198356628418,0.0694318488240242,-0.2944868206977844,-30.1055908203125,9.3536376953125,5.767822265625
4.1099999,-10.096348762512207,0.10773907601833344,-0.3471592366695404,-7.3699951171875,-1.6021728515625,8.270263671875
4.1299999000000005,-10.101137161254883,-0.11971008777618408,-0.6344634294509888,22.1099853515625,-14.6636962890625,8.026123046875
4.1499999,-10.096348762512207,0.09576806426048279,-0.5554547905921936,32.2418212890625,-16.2811279296875,3.7841796875
4.1699999000000005,-9.921571731567383,0.4213795065879822,-0.06464344263076782,-0.1068115234375,-3.997802734375,0.3662109375
4.1899999,-9.909601211547852,0.849941611289978,0.569819986820221,-45.34912109375,14.984130859375,-3.23486328125
4.209999900000001,-9.792284965515137,0.9074024558067322,1.0558429956436157,-43.1365966796875,14.312744140625,0.3204345703125
4.2299999,-9.938331604003906,0.6224924325942993,0.7948749661445618,-11.7950439453125,1.9378662109375,0.6561279296875
4.249999900000001,-10.000580787658691,0.12210428714752197,0.24660277366638184,19.2718505859375,-4.730224609375,-2.50244140625
4.2699999,-10.012551307678223,-0.10534487664699554,-0.1412578970193863,26.55029296875,-4.4403076171875,-1.03759765625
4.289999900000001,-9.979032516479492,-0.0933738648891449,-0.2777273952960968,2.471923828125,3.23486328125,-2.166748046875
4.3099999,-10.06043529510498,0.1628057211637497,-0.026336219161748886,-10.4827880859375,7.62939453125,-0.4730224609375
4.329999900000001,-9.976638793945312,0.2992752194404602,0.023942016065120697,-11.9476318359375,2.13623046875,0.6561279296875
4.3499999,-10.067618370056152,0.31603461503982544,-0.033518824726343155,-3.509521484375,-3.60107421875,-3.3111572265625
4.369999900000001,-10.005369186401367,0.3280056416988373,-0.09576806426048279,13.0462646484375,-3.4027099609375,-6.7291259765625
4.3899999,-9.919178009033203,0.15562310814857483,-0.17956513166427612,10.55908203125,0.0457763671875,-0.7781982421875
4.409999900000001,-9.859322547912598,0.29209262132644653,0.19153612852096558,0.06103515625,1.739501953125,2.044677734375
4.4299999,-9.885659217834473,0.3471592366695404,0.48602294921875,-26.702880859375,6.0882568359375,5.0506591796875
4.449999900000001,-9.876082420349121,0.5841852426528931,0.6799532771110535,-59.7686767578125,13.1683349609375,0.6256103515625
4.4699999,-9.823410034179688,0.7805097699165344,0.7781155705451965,-60.0128173828125,12.4359130859375,-9.3994140625
4.489999900000001,-9.976638793945312,0.5434837937355042,0.42377370595932007,-46.69189453125,15.2587890625,-10.2386474609375
4.5099999,-9.943120002746582,0.011971008032560349,-0.1388636976480484,-17.6239013671875,15.2740478515625,1.190185546875
4.529999900000001,-10.228029251098633,-0.5913678407669067,-0.7422025203704834,20.6451416015625,-1.5716552734375,7.293701171875
4.5499999,-10.194510459899902,-1.05105459690094,-1.2617442607879639,39.520263671875,-14.312744140625,9.82666015625
4.569999900000001,-10.196905136108398,-0.8020575642585754,-1.4389152526855469,32.1044921875,-12.939453125,7.2784423828125
4.5899999000000005,-10.002974510192871,-0.16519992053508759,-0.8906430602073669,18.9666748046875,-11.4898681640625,-3.2958984375
4.609999900000001,-9.837775230407715,0.667982280254364,-0.06224924325942993,-13.73291015625,-0.42724609375,-7.8582763671875
4.6299999000000005,-9.823410034179688,0.8954314589500427,0.4357447028160095,-41.168212890625,16.4794921875,-4.8675537109375
4.6499999,-9.916783332824707,0.8212111592292786,0.667982280254364,-6.988525390625,5.767822265625,0.1373291015625
4.6699999000000005,-10.096348762512207,0.3471592366695404,0.12449848651885986,33.935546875,-11.566162109375,1.40380859375
4.6899999,-10.101137161254883,-0.05027823522686958,-0.3232172429561615,47.882080078125,-13.214111328125,-5.3558349609375
4.709999900000001,-10.086771965026855,0.05506663769483566,-0.2849099934101105,34.0576171875,-8.697509765625,-6.103515625
4.7299999,-9.919178009033203,0.12928688526153564,0.0694318488240242,-16.8914794921875,7.8887939453125,-4.0435791015625
4.749999900000001,-9.909601211547852,0.2059013396501541,0.363918662071228,-31.8603515625,14.22119140625,1.6021728515625
4.7699999,-9.883264541625977,0.12689268589019775,0.3280056416988373,-2.3040771484375,-2.0751953125,3.8909912109375
4.789999900000001,-9.974244117736816,-0.15801730751991272,-0.20111294090747833,24.139404296875,-12.7105712890625,-0.732421875
4.8099999,-10.038887977600098,-0.06464344263076782,-0.35434186458587646,33.69140625,-12.3138427734375,-4.791259765625
4.829999900000001,-9.93593692779541,0.07182604819536209,-0.16998831927776337,1.7852783203125,-2.3040771484375,-1.953125
4.8499999,-10.074800491333008,0.1843535304069519,0.11013327538967133,-28.3660888671875,12.3748779296875,0.701904296875
4.869999900000001,-9.950302124023438,0.15801730751991272,0.40222588181495667,-16.143798828125,4.57763671875,5.1116943359375
4.8899999,-10.031704902648926,-0.0694318488240242,0.10773907601833344,5.5694580078125,-7.720947265625,3.8909912109375
4.909999900000001,-9.974244117736816,-0.08140286058187485,-0.026336219161748886,21.484375,-10.711669921875,-2.655029296875
4.9299999,-9.909601211547852,0.05027823522686958,0,8.7890625,-1.7242431640625,-3.3721923828125
4.949999900000001,-9.909601211547852,0.26815059781074524,0.17956513166427612,-13.275146484375,6.9580078125,-2.62451171875
4.9699999,-9.911994934082031,0.2825157940387726,0.40222588181495667,-6.683349609375,3.6773681640625,2.3193359375
4.989999900000001,-9.976638793945312,0.17956513166427612,0.19632454216480255,7.14111328125,-5.92041015625,1.1749267578125
5.0099999,-9.986215591430664,0.10773907601833344,0.20111294090747833,19.012451171875,-9.9029541015625,-1.8463134765625
5.029999900000001,-9.979032516479492,0.11252748221158981,0.07661445438861847,4.150390625,0.1220703125,-5.950927734375
5.0499999,-9.890447616577148,0.17717093229293823,0.26815059781074524,-10.3912353515625,7.2021484375,-4.4708251953125
5.069999900000001,-9.921571731567383,0.3734954595565796,0.667982280254364,-12.451171875,5.706787109375,3.692626953125
5.0899999000000005,-9.885659217834473,0.3471592366695404,0.6560112833976746,-42.9840087890625,11.6119384765625,4.3487548828125
5.109999900000001,-9.885659217834473,0.28969839215278625,0.7565677165985107,-53.619384765625,11.8255615234375,-2.1514892578125
5.1299999000000005,-9.959878921508789,0.30885201692581177,0.6248866319656372,-41.7022705078125,11.9476318359375,-2.685546875
5.1499999,-9.967061996459961,0.08619125932455063,0.304063618183136,-29.6630859375,19.1802978515625,1.9378662109375
5.1699999000000005,-10.074800491333008,-0.26575639843940735,-0.19153612852096558,-8.85009765625,13.5040283203125,5.1727294921875
5.1899999,-10.287884712219238,-0.5554547905921936,-0.7733271718025208,28.9764404296875,-1.3427734375,5.4931640625
5.209999900000001,-10.280701637268066,-0.7445967197418213,-1.3072341680526733,50.96435546875,-11.993408203125,6.6375732421875
5.2299999,-10.429142951965332,-0.7206547260284424,-1.7501614093780518,55.7403564453125,-18.7225341796875,2.1209716796875
5.249999900000001,-10.287884712219238,-0.3663128614425659,-1.4293384552001953,67.44384765625,-21.453857421875,-1.1138916015625
5.2699999,-10.141838073730469,0.1388636976480484,-0.727837324142456,49.4842529296875,-15.7928466796875,1.0986328125
5.289999900000001,-9.93354320526123,0.6153098344802856,0.33039984107017517,2.4566650390625,1.7852783203125,3.3721923828125
5.3099999,-9.806650161743164,0.9409212470054626,1.2641384601593018,-33.14208984375,18.49365234375,5.6915283203125
5.329999900000001,-9.679757118225098,1.0821791887283325,1.6927006244659424,-40.0543212890625,18.218994140625,3.0517578125
5.3499999,-9.816226959228516,0.9576807022094727,1.4987702369689941,-28.9154052734375,14.2822265625,-0.457763671875
5.369999900000001,-10.1753568649292,0.6536170840263367,0.871489405632019,-15.289306640625,13.0157470703125,-2.8839111328125
5.3899999,-10.63743782043457,0.2801215946674347,0.11971008777618408,-3.9520263671875,10.2386474609375,-8.2550048828125
5.409999900000001,-11.353304862976074,-0.026336219161748886,-0.5578489899635315,7.110595703125,4.150390625,-7.5836181640625
5.4299999,-11.899182319641113,-0.2585737705230713,-1.0654197931289673,16.4031982421875,-5.3863525390625,-6.4239501953125
5.449999900000001,-12.102689743041992,-0.2513911724090576,-1.3263877630233765,22.2015380859375,-11.138916015625,-13.8397216796875
5.4699999,-12.0021333694458,-0.09816227108240128,-1.357512354850769,25.2685546875,-12.02392578125,-16.4794921875
5.489999900000001,-11.461043357849121,0.18914192914962769,-1.1468225717544556,25.2838134765625,-9.9334716796875,-19.83642578125
5.5099999,-10.735600471496582,0.4836287498474121,-0.7924807667732239,21.30126953125,-2.3040771484375,-23.956298828125
5.529999900000001,-9.988609313964844,0.7086837291717529,-0.40462008118629456,14.4805908203125,11.688232421875,-21.6217041015625
5.5499999,-9.327810287475586,0.8379706144332886,-0.09816227108240128,7.110595703125,15.228271484375,-13.0615234375
5.569999900000001,-8.815450668334961,0.8523358106613159,0.014365210197865963,2.7618408203125,9.3841552734375,-4.7607421875
5.5899999000000005,-8.47547435760498,0.7972691655158997,-0.05985504388809204,4.4097900390625,6.5765380859375,0.3662109375
5.609999900000001,-8.281543731689453,0.6823474764823914,-0.26815059781074524,10.19287109375,10.040283203125,2.838134765625
5.6299999000000005,-8.224082946777344,0.5339069962501526,-0.49320554733276367,16.571044921875,10.3302001953125,6.8359375
5.6499999,-8.312667846679688,0.3902548849582672,-0.6607996821403503,20.8587646484375,7.0037841796875,12.1002197265625
5.6699999000000005,-8.504204750061035,0.24181437492370605,-0.7086837291717529,22.27783203125,7.4310302734375,13.336181640625
5.6899999,-8.779537200927734,0.09576806426048279,-0.6224924325942993,20.44677734375,9.6893310546875,13.7786865234375
5.709999900000001,-9.062053680419922,-0.05267243832349777,-0.45250412821769714,16.845703125,10.4827880859375,15.8233642578125
5.7299999,-9.306262016296387,-0.21787235140800476,-0.2298433631658554,13.946533203125,9.3994140625,16.9677734375
5.749999900000001,-9.526528358459473,-0.3734954595565796,-0.035913024097681046,11.749267578125,9.58251953125,16.29638671875
5.7699999,-9.691728591918945,-0.49799394607543945,0.11252748221158981,10.6353759765625,10.68115234375,12.237548828125
5.789999900000001,-9.77791976928711,-0.5913678407669067,0.2106897532939911,10.101318359375,10.19287109375,7.1868896484375
5.8099999,-9.830592155456543,-0.6272808313369751,0.24899697303771973,8.5906982421875,10.0250244140625,4.82177734375
5.829999900000001,-9.830592155456543,-0.629675030708313,0.2346317619085312,7.476806640625,9.7808837890625,2.01416015625
5.8499999,-9.792284965515137,-0.6200982332229614,0.17717093229293823,8.209228515625,7.0037841796875,-1.129150390625
5.869999900000001,-9.744400978088379,-0.5889736413955688,0.10534487664699554,9.2010498046875,1.2054443359375,0.8697509765625
5.8899999,-9.720458984375,-0.5363011956214905,0.028730420395731926,9.185791015625,-2.25830078125,4.608154296875
5.909999900000001,-9.708487510681152,-0.4572925269603729,-0.026336219161748886,8.5601806640625,-2.6092529296875,4.0435791015625
5.9299999,-9.72285270690918,-0.33758243918418884,-0.05506663769483566,7.32421875,-3.11279296875,3.1280517578125
5.949999900000001,-9.794678688049316,-0.20111294090747833,-0.08379705995321274,4.94384765625,-1.739501953125,5.1422119140625
5.9699999,-9.921571731567383,-0.07182604819536209,-0.13168109953403473,2.471923828125,-1.495361328125,7.171630859375
5.989999900000001,-10.110713958740234,0.028730420395731926,-0.2082955539226532,1.312255859375,-4.1351318359375,6.0882568359375
6.0099999,-10.319009780883789,0.0933738648891449,-0.28969839215278625,2.044677734375,-6.3018798828125,3.662109375
6.029999900000001,-10.505757331848145,0.1412578970193863,-0.3663128614425659,2.838134765625,-4.5013427734375,3.2806396484375
6.0499999,-10.644620895385742,0.17717093229293823,-0.4357447028160095,2.8228759765625,0.0762939453125,2.6397705078125
6.069999900000001,-10.678139686584473,0.21308395266532898,-0.4908113479614258,3.875732421875,-1.1749267578125,2.0904541015625
6.0899999000000005,-10.630255699157715,0.26815059781074524,-0.545877993106842,5.4931640625,-7.293701171875,3.60107421875
6.109999900000001,-10.474632263183594,0.3280056416988373,-0.5841852426528931,6.805419921875,-8.575439453125,2.99072265625
6.1299999000000005,-10.223240852355957,0.3734954595565796,-0.586579442024231,6.8817138671875,-4.5623779296875,0.5340576171875
6.149999900000001,-9.943120002746582,0.4118026793003082,-0.5602431893348694,5.706787109375,-1.983642578125,2.1820068359375
6.1699999000000005,-9.66299819946289,0.4189853072166443,-0.5099649429321289,4.4097900390625,-3.90625,5.615234375
6.1899999,-9.593565940856934,0.42377370595932007,-0.45250412821769714,3.082275390625,-4.57763671875,7.0648193359375
6.209999900000001,-9.830592155456543,0.3064578175544739,-0.3974374830722809,1.556396484375,-2.0599365234375,-0.5645751953125
6.2299999,-9.959878921508789,0.22266076505184174,-0.3256114423274994,0.640869140625,-6.134033203125,-15.3656005859375
6.249999900000001,-10.32858657836914,0.06224924325942993,-0.2968810200691223,1.28173828125,-2.4566650390625,-2.7008056640625
6.2699999,-10.314221382141113,-0.033518824726343155,-0.2944868206977844,4.1656494140625,-1.190185546875,0.946044921875
6.289999900000001,-10.199298858642578,-0.06464344263076782,-0.33758243918418884,5.1727294921875,-4.150390625,-0.3509521484375
6.3099999,-10.04846477508545,-0.0454898327589035,-0.40462008118629456,6.65283203125,-4.9896240234375,-0.9613037109375
6.329999900000001,-9.940725326538086,0.002394201699644327,-0.43335050344467163,7.4615478515625,-5.9967041015625,-0.091552734375
6.3499999,-9.897629737854004,0.05746084079146385,-0.4381389021873474,5.828857421875,-6.744384765625,1.89208984375
6.369999900000001,-9.919178009033203,0.09816227108240128,-0.4189853072166443,4.0435791015625,-6.3934326171875,2.7923583984375
6.3899999,-9.959878921508789,0.1364694982767105,-0.3687070608139038,4.638671875,-7.568359375,2.62451171875
6.409999900000001,-9.979032516479492,0.17717093229293823,-0.3423708379268646,6.9427490234375,-8.23974609375,2.685546875
6.4299999,-9.995792388916016,0.24660277366638184,-0.2968810200691223,9.94873046875,-8.72802734375,2.5177001953125
6.449999900000001,-9.99100399017334,0.3208230137825012,-0.2059013396501541,12.847900390625,-9.5977783203125,1.3275146484375
6.4699999,-9.964667320251465,0.3974374830722809,-0.05267243832349777,11.8255615234375,-8.48388671875,0.9765625
6.489999900000001,-9.9000244140625,0.4429273009300232,0.090979665517807,6.89697265625,-5.4473876953125,0.823974609375
6.5099999,-9.883264541625977,0.45010992884635925,0.17477671802043915,5.2642822265625,-4.3182373046875,0.06103515625
6.529999900000001,-9.926360130310059,0.4118026793003082,0.2082955539226532,7.293701171875,-5.4779052734375,-0.732421875
6.5499999,-9.952696800231934,0.38067805767059326,0.1843535304069519,7.4920654296875,-4.57763671875,1.373291015625
6.569999900000001,-10.012551307678223,0.30885201692581177,0.15083470940589905,8.97216796875,-3.662109375,1.8157958984375
6.5899999000000005,-9.974244117736816,0.28730419278144836,0.19632454216480255,14.4500732421875,-3.5247802734375,1.6021728515625
6.609999900000001,-9.895236015319824,0.3519476354122162,0.3208230137825012,11.6424560546875,-2.166748046875,0.762939453125
6.6299999000000005,-9.885659217834473,0.5339069962501526,0.48602294921875,-1.89208984375,2.9296875,-1.03759765625
6.649999900000001,-9.871294021606445,0.7924807667732239,0.5841852426528931,-16.204833984375,8.1024169921875,-1.9683837890625
6.6699999000000005,-9.890447616577148,0.8643068075180054,0.5746083855628967,-16.510009765625,7.110595703125,-5.035400390625
6.6899999,-9.93354320526123,0.7829039692878723,0.31842881441116333,-8.636474609375,7.2021484375,-4.7760009765625
6.709999900000001,-9.9000244140625,0.48602294921875,0.009576806798577309,-0.5035400390625,7.0953369140625,-1.8157958984375
6.7299999,-10.041281700134277,0.10534487664699554,-0.28969839215278625,3.11279296875,0.8392333984375,-1.220703125
6.749999900000001,-10.041281700134277,-0.20111294090747833,-0.42377370595932007,2.685546875,-9.002685546875,-2.5634765625
6.7699999,-10.002974510192871,-0.38067805767059326,-0.3998316824436188,-0.1373291015625,-9.0789794921875,-0.9918212890625
6.789999900000001,-9.95748519897461,-0.35673606395721436,-0.2106897532939911,-1.9073486328125,3.265380859375,4.150390625
6.8099999,-9.93593692779541,-0.10295066982507706,-0.07182604819536209,-10.833740234375,8.6822509765625,3.814697265625
6.829999900000001,-9.979032516479492,0.09576806426048279,-0.05985504388809204,-12.7716064453125,3.7384033203125,5.706787109375
6.8499999,-10.074800491333008,0.5027823448181152,-0.033518824726343155,2.655029296875,-6.927490234375,8.026123046875
6.869999900000001,-10.139444351196289,0.5793967843055725,-0.1173158809542656,7.7056884765625,-4.669189453125,-1.9683837890625
6.8899999,-10.077195167541504,0.7469909191131592,-0.05267243832349777,11.322021484375,-2.7618408203125,-11.4593505859375
6.909999900000001,-10.007762908935547,0.751779317855835,0.0694318488240242,9.246826171875,3.1890869140625,-4.39453125
6.9299999,-9.971850395202637,0.7158663272857666,0.19632454216480255,-9.3994140625,11.0015869140625,0.3509521484375
6.949999900000001,-9.962273597717285,0.6943184733390808,0.3016694188117981,-18.6004638671875,2.5177001953125,-2.0599365234375
6.9699999,-9.897629737854004,0.5003881454467773,0.36152446269989014,-16.387939453125,-3.082275390625,-4.9285888671875
6.989999900000001,-9.967061996459961,0.38307225704193115,0.2777273952960968,-3.47900390625,7.659912109375,-9.8724365234375
7.0099999,-9.952696800231934,0.24899697303771973,0.181959331035614,10.2081298828125,10.55908203125,-12.176513671875
7.029999900000001,-9.907206535339355,0.043095629662275314,-0.09576806426048279,5.5694580078125,6.317138671875,-3.60107421875
7.0499999,-10.110713958740234,-0.06703764945268631,-0.40701428055763245,7.3699951171875,2.593994140625,1.8463134765625
7.069999900000001,-10.036493301391602,-0.31124621629714966,-0.5937620401382446,17.5628662109375,-9.368896484375,-3.8909912109375
7.0899999000000005,-10.072406768798828,-0.3998316824436188,-0.730231523513794,19.1802978515625,-12.39013671875,-5.0506591796875
7.109999900000001,-10.034099578857422,-0.37828385829925537,-0.5530605912208557,14.8162841796875,-3.8604736328125,1.800537109375
7.1299999000000005,-9.890447616577148,-0.2082955539226532,-0.21787235140800476,-6.3018798828125,4.6844482421875,4.6539306640625
7.149999900000001,-9.959878921508789,0.07900865375995636,0.0454898327589035,-20.81298828125,1.8463134765625,4.4708251953125
7.1699999000000005,-9.904812812805176,0.2801215946674347,0.3208230137825012,-12.6495361328125,-3.7689208984375,5.2490234375
7.1899999,-9.921571731567383,0.42856210470199585,0.3064578175544739,-3.7994384765625,-2.6702880859375,-1.77001953125
7.209999900000001,-9.861717224121094,0.6057330369949341,0.4668693244457245,-2.9449462890625,0.0152587890625,-8.209228515625
7.2299999,-9.775525093078613,0.7637503147125244,0.6200982332229614,-25.634765625,12.6800537109375,2.2125244140625
7.249999900000001,-9.651026725769043,1.0319008827209473,1.01753568649292,-60.5316162109375,22.308349609375,0.7476806640625
7.2699999,-9.768342971801758,1.3048399686813354,1.3192051649093628,-88.4552001953125,23.0255126953125,-0.6866455078125
7.289999900000001,-9.567230224609375,1.237802267074585,1.2976573705673218,-107.421875,27.8778076171875,-6.011962890625
7.3099999,-9.57441234588623,1.1516109704971313,1.048660397529602,-88.104248046875,35.9649658203125,-15.960693359375
7.329999900000001,-9.75637149810791,0.42616790533065796,0.13407529890537262,-60.5621337890625,34.423828125,-8.3770751953125
7.3499999,-9.876082420349121,-0.47644615173339844,-1.0797849893569946,-19.744873046875,27.7099609375,-0.1373291015625
7.369999900000001,-10.220847129821777,-1.5179238319396973,-2.535459518432617,41.9769287109375,-1.9073486328125,6.3934326171875
7.3899999,-10.620678901672363,-2.1930887699127197,-3.734954595565796,100.1739501953125,-33.6761474609375,11.444091796875
7.409999900000001,-10.582371711730957,-2.2601263523101807,-4.228160381317139,118.743896484375,-41.0614013671875,11.2152099609375
7.4299999,-10.527304649353027,-1.314416766166687,-3.6320040225982666,99.4873046875,-40.22216796875,5.55419921875
7.449999900000001,-10.280701637268066,0.019153613597154617,-2.078166961669922,52.398681640625,-29.998779296875,7.9498291015625
7.4699999,-9.919178009033203,1.400607943534851,-0.35913026332855225,-3.5400390625,-14.2364501953125,0.732421875
7.489999900000001,-9.742006301879883,2.2026655673980713,1.139639973640442,-20.6451416015625,-10.101318359375,-3.7841796875
7.5099999,-9.612719535827637,2.2242133617401123,1.7812861204147339,-17.4407958984375,-9.6435546875,-7.9345703125
7.529999900000001,-9.560047149658203,1.5873557329177856,1.8052281141281128,-6.6070556640625,-3.1280517578125,-11.7950439453125
7.5499999,-9.600749015808105,0.9026140570640564,1.6280571222305298,0.5035400390625,5.2642822265625,-6.04248046875
7.569999900000001,-9.627084732055664,0.08858546614646912,1.1492167711257935,-20.050048828125,7.8277587890625,5.2947998046875
7.5899999000000005,-9.890447616577148,-0.42377370595932007,0.7015010714530945,-27.008056640625,8.514404296875,5.6610107421875
7.609999900000001,-9.964667320251465,-0.7469909191131592,0.14604631066322327,-2.3040771484375,-2.4871826171875,4.7149658203125
7.6299999000000005,-10.103530883789062,-0.8379706144332886,-0.38067805767059326,17.4713134765625,-6.65283203125,2.4566650390625
7.649999900000001,-10.134655952453613,-0.5841852426528931,-0.6607996821403503,22.796630859375,-2.1209716796875,0.1678466796875
7.6699999000000005,-10.002974510192871,-0.031124621629714966,-0.43335050344467163,5.523681640625,1.2054443359375,4.1351318359375
7.6899999,-10.08437728881836,0.6200982332229614,-0.14365209639072418,-19.439697265625,2.655029296875,1.03759765625
7.709999900000001,-9.995792388916016,1.048660397529602,0.24181437492370605,-22.796630859375,2.2735595703125,-7.2021484375
7.7299999,-10.046070098876953,1.1180921792984009,0.272938996553421,-9.21630859375,1.739501953125,-10.6658935546875
7.749999900000001,-9.883264541625977,0.912190854549408,0.3256114423274994,9.429931640625,1.7547607421875,-11.566162109375
7.7699999,-9.816226959228516,0.38067805767059326,0.4141969084739685,-25.57373046875,13.85498046875,-4.791259765625
7.789999900000001,-9.90241813659668,0.21547815203666687,0.4429273009300232,-27.34375,15.0604248046875,-5.462646484375
7.8099999,-9.967061996459961,-0.22266076505184174,0.05027823522686958,-4.2572021484375,2.349853515625,-6.011962890625
7.829999900000001,-9.971850395202637,-0.5434837937355042,-0.3519476354122162,17.4407958984375,-1.1749267578125,-5.5389404296875
7.8499999,-10.11789608001709,-0.689530074596405,-0.7374141216278076,19.59228515625,1.556396484375,-2.960205078125
7.869999900000001,-10.029311180114746,-0.5961562395095825,-0.6655880808830261,-0.3204345703125,2.655029296875,2.0294189453125
7.8899999,-10.251971244812012,-0.40940847992897034,-0.6248866319656372,-12.1002197265625,2.8076171875,5.035400390625
7.909999900000001,-10.08437728881836,-0.21787235140800476,-0.4644751250743866,-0.1678466796875,-4.08935546875,0.9613037109375
7.9299999,-10.113107681274414,-0.12449848651885986,-0.4668693244457245,11.41357421875,-10.1776123046875,-0.30517578125
7.949999900000001,-9.86889934539795,0.08858546614646912,-0.24181437492370605,4.8675537109375,-4.150390625,-1.9683837890625
7.9699999,-9.758766174316406,0.26336219906806946,0.11971008777618408,-21.331787109375,7.3089599609375,0.5645751953125
7.989999900000001,-9.600749015808105,0.3423708379268646,0.40701428055763245,-41.0614013671875,9.58251953125,3.082275390625
8.0099999,-9.84256362915039,0.12689268589019775,0.3232172429561615,-27.7252197265625,7.0648193359375,5.0506591796875
8.0299999,-9.950302124023438,-0.21547815203666687,-0.21547815203666687,9.1552734375,-6.16455078125,4.69970703125
8.049999900000001,-10.24239444732666,-0.4381389021873474,-0.7948749661445618,34.698486328125,-14.7247314453125,2.0599365234375
8.069999900000001,-10.290278434753418,-0.42616790533065796,-1.0127472877502441,32.5927734375,-12.75634765625,1.7242431640625
8.0899999,-10.251971244812012,-0.08858546614646912,-0.8427590131759644,6.2255859375,-5.126953125,2.197265625
8.1099999,-10.189722061157227,0.10773907601833344,-0.31364041566848755,-8.1787109375,-7.3089599609375,2.8076171875
8.129999900000001,-10.046070098876953,0.33279404044151306,0.07661445438861847,-5.1116943359375,-8.331298828125,3.0517578125
8.149999900000001,-9.909601211547852,0.3878606855869293,0.3208230137825012,3.0670166015625,-8.1024169921875,-1.2969970703125
8.1699999,-9.785101890563965,0.4213795065879822,0.6488286852836609,3.11279296875,-3.0975341796875,-5.7525634765625
8.1899999,-9.670180320739746,0.5674257874488831,0.8810662031173706,-19.95849609375,10.4522705078125,-2.0751953125
8.2099999,-9.617507934570312,0.5171475410461426,1.0558429956436157,-40.52734375,16.7388916015625,-0.4425048828125
8.229999900000001,-9.813833236694336,0.38307225704193115,0.9672574996948242,-36.0107421875,10.1165771484375,2.7923583984375
8.2499999,-9.806650161743164,0.0694318488240242,0.48602294921875,-23.0865478515625,6.9732666015625,1.4801025390625
8.2699999,-9.967061996459961,0.038307227194309235,0.1173158809542656,-12.7410888671875,5.8441162109375,-3.1280517578125
8.2899999,-9.983820915222168,-0.033518824726343155,-0.2513911724090576,-23.9715576171875,8.270263671875,-3.6468505859375
8.309999900000001,-9.84256362915039,0.011971008032560349,-0.38067805767059326,-38.0859375,9.70458984375,0.4425048828125
8.3299999,-9.919178009033203,0.047884032130241394,-0.2322375625371933,-31.9366455078125,6.8817138671875,1.0833740234375
8.3499999,-9.976638793945312,-0.21787235140800476,-0.45250412821769714,-37.6434326171875,7.3394775390625,1.708984375
8.3699999,-10.012551307678223,-0.5937620401382446,-0.8164227604866028,-15.2587890625,0.79345703125,0.54931640625
8.389999900000001,-10.237606048583984,-0.8547300100326538,-1.2689268589019775,43.8079833984375,-13.3209228515625,2.5634765625
8.4099999,-10.273519515991211,-1.0414776802062988,-1.5418659448623657,72.998046875,-18.829345703125,5.5084228515625
8.4299999,-10.24239444732666,-0.8858546018600464,-1.577778935432434,64.1326904296875,-18.00537109375,9.3994140625
8.4499999,-10.285490036010742,-0.45010992884635925,-1.072602391242981,58.349609375,-23.0865478515625,10.6048583984375
8.469999900000001,-10.120290756225586,0.21308395266532898,-0.3447650372982025,47.79052734375,-24.4293212890625,5.37109375
8.4899999,-9.897629737854004,1.0462661981582642,0.5793967843055725,20.0042724609375,-13.397216796875,-3.265380859375
8.5099999,-9.68933391571045,1.8722656965255737,1.7621324062347412,-22.0489501953125,6.4544677734375,-9.9945068359375
8.5299999,-9.490615844726562,2.2194249629974365,2.4636335372924805,-74.249267578125,28.167724609375,-13.8092041015625
8.549999900000001,-9.593565940856934,1.9129672050476074,2.3965959548950195,-81.4361572265625,35.858154296875,-11.90185546875
8.569999900000001,-9.667786598205566,0.912190854549408,1.414973258972168,-33.6456298828125,17.120361328125,-5.7525634765625
8.5899999,-9.880870819091797,-0.5027823448181152,-0.2585737705230713,20.4010009765625,-1.9073486328125,-3.2196044921875
8.6099999,-10.06043529510498,-1.436521053314209,-1.558625340461731,60.9588623046875,-9.8114013671875,0.9918212890625
8.629999900000001,-10.077195167541504,-1.7357962131500244,-2.049436569213867,57.7850341796875,-12.725830078125,9.9334716796875
8.649999900000001,-10.017339706420898,-1.1252747774124146,-1.3718775510787964,17.02880859375,-8.758544921875,10.31494140625
8.6699999,-9.890447616577148,0.004788403399288654,-0.1628057211637497,-43.0755615234375,2.8228759765625,6.134033203125
8.6899999,-9.830592155456543,0.9217676520347595,0.8475474119186401,-91.7205810546875,19.500732421875,-6.134033203125
8.709999900000001,-9.787496566772461,1.482010841369629,1.4197616577148438,-75.836181640625,22.308349609375,-10.4217529296875
8.729999900000001,-9.940725326538086,1.139639973640442,0.9648633003234863,-38.8336181640625,17.730712890625,-10.7574462890625
8.7499999,-10.101137161254883,0.17477671802043915,-0.05506663769483566,3.35693359375,7.171630859375,-0.42724609375
8.7699999,-10.292673110961914,-0.8882488012313843,-1.2210428714752197,56.45751953125,-5.4168701171875,10.43701171875
8.7899999,-10.311826705932617,-1.5538369417190552,-2.0231003761291504,89.8590087890625,-27.435302734375,15.625
8.809999900000001,-10.247182846069336,-1.3718775510787964,-2.1356279850006104,75.2105712890625,-29.9835205078125,9.4146728515625
8.8299999,-9.99100399017334,-0.363918662071228,-1.0582371950149536,33.966064453125,-14.4805908203125,-1.89208984375
8.8499999,-9.679757118225098,0.8762778043746948,0.3447650372982025,-27.3895263671875,5.4779052734375,-7.75146484375
8.8699999,-9.478644371032715,1.6950948238372803,1.6112977266311646,-65.4449462890625,22.1710205078125,-7.4462890625
8.889999900000001,-9.677363395690918,1.843535304069519,1.9297266006469727,-47.1954345703125,18.9208984375,-5.5694580078125
8.9099999,-9.80904483795166,1.1803414821624756,1.2880805730819702,-16.876220703125,6.34765625,-6.256103515625
8.9299999,-10.053253173828125,0.3758896589279175,0.37828385829925537,12.3138427734375,-1.5716552734375,-8.97216796875
8.9499999,-10.160991668701172,-0.363918662071228,-0.4405331015586853,15.5792236328125,2.8533935546875,-6.77490234375
8.969999900000001,-10.007762908935547,-0.9361328482627869,-0.7182605266571045,-0.9307861328125,6.7596435546875,4.9285888671875
8.9899999,-9.9000244140625,-0.7829039692878723,-0.5386953949928284,0.48828125,4.2266845703125,7.7667236328125
9.0099999,-10.034099578857422,-0.5482721924781799,-0.5937620401382446,-18.402099609375,3.0975341796875,4.638671875
9.0299999,-9.818621635437012,0.2322375625371933,-0.12210428714752197,-33.9202880859375,-1.861572265625,-7.476806640625
9.049999900000001,-9.8784761428833,0.7541735172271729,0.11013327538967133,-47.79052734375,4.0130615234375,-13.3209228515625
9.069999900000001,-10.010157585144043,0.5554547905921936,0.016759412363171577,-61.58447265625,23.0560302734375,-13.275146484375
9.0899999,-9.967061996459961,-0.17956513166427612,-0.3280056416988373,-4.3792724609375,4.241943359375,2.8533935546875
9.1099999,-10.278307914733887,-1.1875240802764893,-1.1324573755264282,66.7572021484375,-19.6075439453125,18.0816650390625
9.129999900000001,-10.290278434753418,-1.7980455160140991,-1.8411411046981812,82.51953125,-29.0679931640625,19.439697265625
9.149999900000001,-10.098742485046387,-1.1444283723831177,-1.2210428714752197,61.7218017578125,-24.9786376953125,9.796142578125
9.1699999,-9.799467086791992,0.002394201699644327,-0.0694318488240242,-7.568359375,0.06103515625,-4.7760009765625
9.1899999,-9.660603523254395,1.3670891523361206,1.1755530834197998,-73.760986328125,27.34375,-5.218505859375
9.209999900000001,-9.404424667358398,2.123656988143921,1.9847931861877441,-69.2291259765625,27.8778076171875,-8.9569091796875
9.229999900000001,-9.926360130310059,1.800439715385437,0.9433154463768005,-42.8619384765625,16.5557861328125,-13.97705078125
9.2499999,-9.871294021606445,0.9864110946655273,0.004788403399288654,3.7689208984375,-9.7808837890625,-12.1002197265625
9.2699999,-10.146626472473145,-0.2944868206977844,-1.1994950771331787,38.1011962890625,-18.6614990234375,-5.8746337890625
9.2899999,-10.230423927307129,-1.3694833517074585,-1.5466543436050415,38.726806640625,-5.7373046875,4.8828125
9.309999900000001,-10.141838073730469,-1.8938134908676147,-1.314416766166687,45.745849609375,-6.6070556640625,14.70947265625
9.3299999,-10.187328338623047,-1.5203180313110352,-0.6607996821403503,41.7938232421875,-10.31494140625,17.9595947265625
9.3499999,-10.113107681274414,-0.5578489899635315,-0.05985504388809204,2.6397705078125,-5.157470703125,7.6904296875
9.3699999,-9.911994934082031,0.871489405632019,0.849941611289978,-27.374267578125,4.7454833984375,-12.786865234375
9.389999900000001,-9.713275909423828,1.8315643072128296,1.4293384552001953,-50.506591796875,18.8140869140625,-20.01953125
9.4099999,-9.600749015808105,1.7956513166427612,1.3239935636520386,-56.121826171875,31.6314697265625,-13.3514404296875
9.4299999,-9.823410034179688,1.1252747774124146,0.6105214357376099,-13.61083984375,16.4337158203125,-7.1563720703125
9.4499999,-10.098742485046387,-0.15562310814857483,-0.7541735172271729,22.979736328125,-6.89697265625,2.7008056640625
9.469999900000001,-10.249577522277832,-1.0247182846069336,-1.4484920501708984,40.8782958984375,-19.8211669921875,-1.9378662109375
9.4899999,-10.247182846069336,-1.3000515699386597,-1.3694833517074585,34.5458984375,-9.8876953125,0.2899169921875
9.5099999,-10.11789608001709,-1.1875240802764893,-0.6272808313369751,-2.899169921875,12.2833251953125,5.126953125
9.5299999,-9.967061996459961,-0.768538773059845,0.19871874153614044,-10.162353515625,17.88330078125,4.8370361328125
9.549999900000001,-10.08198356628418,-0.2849099934101105,0.40940847992897034,5.615234375,9.21630859375,7.3699951171875
9.569999900000001,-10.053253173828125,-0.035913024097681046,0.019153613597154617,11.9476318359375,0.4119873046875,-0.8087158203125
9.5899999,-10.103530883789062,0.07661445438861847,-0.5770025849342346,27.4505615234375,-4.0130615234375,-6.6070556640625
9.6099999,-10.000580787658691,0.12928688526153564,-0.7757213711738586,47.3175048828125,-9.857177734375,0.2899169921875
9.629999900000001,-9.93354320526123,0.08140286058187485,-0.586579442024231,33.69140625,-5.2642822265625,7.843017578125
9.649999900000001,-9.854534149169922,0.12449848651885986,-0.05985504388809204,-3.5858154296875,9.58251953125,4.608154296875
9.6699999,-9.914389610290527,0.17956513166427612,0.3663128614425659,-27.77099609375,19.317626953125,1.89208984375
9.6899999,-9.861717224121094,0.17477671802043915,0.45010992884635925,-24.8260498046875,13.1683349609375,3.3721923828125
9.709999900000001,-9.940725326538086,-0.019153613597154617,0.0933738648891449,-10.5743408203125,4.8828125,3.84521484375
9.729999900000001,-9.938331604003906,-0.22744916379451752,-0.33758243918418884,4.2572021484375,0.335693359375,5.706787109375
9.7499999,-9.938331604003906,-0.3495534360408783,-0.6033388376235962,8.2855224609375,-1.617431640625,6.7596435546875
9.7699999,-9.962273597717285,-0.3280056416988373,-0.6344634294509888,1.3427734375,2.1820068359375,5.950927734375
9.7899999,-9.99100399017334,-0.20350714027881622,-0.5099649429321289,-4.6844482421875,5.340576171875,5.615234375
9.809999900000001,-9.998186111450195,-0.06224924325942993,-0.3687070608139038,-3.72314453125,3.7841796875,5.9356689453125
9.8299999,-9.979032516479492,0.0694318488240242,-0.2968810200691223,0.8087158203125,2.38037109375,6.04248046875
9.8499999,-9.923966407775879,0.17477671802043915,-0.2585737705230713,2.5787353515625,2.9449462890625,4.5928955078125
9.8699999,-9.888052940368652,0.26815059781074524,-0.26815059781074524,1.28173828125,4.9896240234375,2.8533935546875
9.889999900000001,-9.885659217834473,0.33997663855552673,-0.33039984107017517,-0.1373291015625,5.4473876953125,1.251220703125
9.9099999,-9.923966407775879,0.3902548849582672,-0.4381389021873474,1.373291015625,2.6397705078125,0.3204345703125
9.9299999,-9.974244117736816,0.40701428055763245,-0.5339069962501526,2.105712890625,-0.335693359375,-0.6256103515625
9.9499999,-9.998186111450195,0.3758896589279175,-0.6344634294509888,-1.0833740234375,-0.4730224609375,-1.4801025390625
9.969999900000001,-10.005369186401367,0.33279404044151306,-0.6368576288223267,-1.0223388671875,-1.2969970703125,-1.40380859375
9.9899999,-10.010157585144043,0.2322375625371933,-0.5650315880775452,1.0223388671875,-2.960205078125,-0.91552734375
10.0099999,-10.034099578857422,0.1173158809542656,-0.47405192255973816,0.0762939453125,-1.6632080078125,0.823974609375
10.0299999,-10.070012092590332,0.033518824726343155,-0.36152446269989014,0.3509521484375,-0.1373291015625,3.5858154296875
10.049999900000001,-10.091560363769531,0.021547814831137657,-0.2849099934101105,2.6702880859375,-0.4425048828125,4.8828125
10.069999900000001,-10.055646896362305,0.07900865375995636,-0.26815059781074524,3.326416015625,-0.5035400390625,4.4708251953125
10.0899999,-9.99100399017334,0.19393034279346466,-0.2585737705230713,1.617431640625,-1.007080078125,4.4097900390625
10.1099999,-9.962273597717285,0.31603461503982544,-0.22026655077934265,-1.1444091796875,-0.4425048828125,4.5013427734375
10.129999900000001,-9.916783332824707,0.35673606395721436,-0.18914192914962769,-2.8533935546875,2.13623046875,1.739501953125
10.149999900000001,-9.885659217834473,0.363918662071228,-0.16998831927776337,-1.1749267578125,3.021240234375,-0.6866455078125
10.1699999,-9.847352027893066,0.33039984107017517,-0.22505496442317963,0.823974609375,2.7618408203125,-2.7313232421875
10.1899999,-9.77791976928711,0.28730419278144836,-0.33039984107017517,-0.5645751953125,2.960205078125,-5.31005859375
10.209999900000001,-9.75637149810791,0.24899697303771973,-0.4572925269603729,-4.302978515625,2.5482177734375,-5.645751953125
10.229999900000001,-9.830592155456543,0.1867477297782898,-0.5793967843055725,-5.5999755859375,1.2664794921875,-5.1422119140625
10.2499999,-9.940725326538086,0.06703764945268631,-0.6775590777397156,-2.197265625,-1.1138916015625,-3.5400390625
10.2699999,-10.043676376342773,-0.05267243832349777,-0.6991068720817566,1.1138916015625,-3.631591796875,-0.8087158203125
10.2899999,-10.072406768798828,-0.1628057211637497,-0.6775590777397156,-0.7781982421875,-4.21142578125,1.15966796875
10.309999900000001,-10.041281700134277,-0.21787235140800476,-0.5817909836769104,-2.227783203125,-4.0283203125,1.739501953125
10.3299999,-9.962273597717285,-0.22266076505184174,-0.4429273009300232,0.9307861328125,-4.0130615234375,2.5177001953125
10.3499999,-9.928754806518555,-0.1867477297782898,-0.33279404044151306,4.9896240234375,-3.0517578125,4.2266845703125
10.3699999,-9.888052940368652,-0.15801730751991272,-0.26575639843940735,6.3629150390625,-2.105712890625,5.2337646484375
10.389999900000001,-9.876082420349121,-0.09816227108240128,-0.28730419278144836,5.523681640625,-3.0517578125,6.2103271484375
10.4099999,-9.86650562286377,0.004788403399288654,-0.3663128614425659,5.5694580078125,-4.6234130859375,5.8135986328125
10.4299999,-9.892841339111328,0.15801730751991272,-0.44771572947502136,6.7596435546875,-6.3934326171875,3.96728515625
10.4499999,-9.974244117736816,0.30885201692581177,-0.4908113479614258,9.09423828125,-7.4615478515625,1.6021728515625
10.469999900000001,-10.08198356628418,0.44532153010368347,-0.4692635238170624,12.87841796875,-8.270263671875,0.1678466796875
10.4899999,-10.127472877502441,0.48602294921875,-0.4405331015586853,15.716552734375,-8.544921875,-0.3662109375
10.5099999,-10.098742485046387,0.5051765441894531,-0.43095630407333374,20.3399658203125,-9.1094970703125,-1.4801025390625
10.5299999,-10.036493301391602,0.5195417404174805,-0.45489832758903503,25.2227783203125,-10.5438232421875,-6.1492919921875
10.549999900000001,-10.012551307678223,0.5746083855628967,-0.45010992884635925,27.740478515625,-12.3748779296875,-10.7879638671875
10.569999900000001,-9.962273597717285,0.545877993106842,-0.3758896589279175,27.191162109375,-13.7939453125,-12.9241943359375
10.5899999,-9.988609313964844,0.45489832758903503,-0.16759411990642548,22.4609375,-13.4124755859375,-9.0789794921875
10.6099999,-9.926360130310059,0.26575639843940735,0.16998831927776337,16.11328125,-10.2386474609375,-6.0882568359375
10.629999900000001,-9.830592155456543,0.08858546614646912,0.5434837937355042,4.21142578125,-4.1351318359375,-7.4310302734375
10.649999900000001,-9.821015357971191,-0.0454898327589035,0.8643068075180054,-11.505126953125,2.3193359375,-11.016845703125
10.6699999,-9.804255485534668,-0.1628057211637497,1.0630255937576294,-23.4527587890625,8.3465576171875,-13.8702392578125
10.6899999,-9.86889934539795,-0.3256114423274994,1.0630255937576294,-27.6947021484375,13.4735107421875,-11.749267578125
10.709999900000001,-9.916783332824707,-0.5219359993934631,0.8954314589500427,-25.299072265625,15.8233642578125,-7.2784423828125
10.729999900000001,-9.950302124023438,-0.689530074596405,0.5674257874488831,-19.10400390625,15.6707763671875,-5.706787109375
10.7499999,-9.983820915222168,-0.751779317855835,0.1843535304069519,-11.5966796875,14.9383544921875,-6.6375732421875
10.7699999,-9.986215591430664,-0.7230489253997803,-0.21547815203666687,-11.260986328125,14.923095703125,-5.6610107421875
10.7899999,-10.010157585144043,-0.6177040338516235,-0.5626373887062073,-5.9814453125,9.6893310546875,-7.2784423828125
10.809999900000001,-10.02452278137207,-0.47405192255973816,-0.7541735172271729,11.3983154296875,2.3956298828125,-9.033203125
10.8299999,-10.014945983886719,-0.33279404044151306,-0.8571242094039917,29.4036865234375,1.983642578125,-10.80322265625
10.8499999,-10.038887977600098,-0.19153612852096558,-0.8403648138046265,41.229248046875,1.4801025390625,-11.53564453125
10.8699999,-10.041281700134277,-0.1364694982767105,-0.8595184087753296,14.617919921875,-8.1634521484375,-1.5716552734375
10.889999900000001,-10.062829971313477,0.090979665517807,-0.7422025203704834,-33.4625244140625,-28.717041015625,11.016845703125
10.9099999,-10.029311180114746,0.15322890877723694,-0.6248866319656372,27.191162109375,-7.568359375,-1.9378662109375
10.9299999,-10.053253173828125,0.28969839215278625,-0.35673606395721436,29.6478271484375,-1.8463134765625,-2.410888671875
10.9499999,-10.022128105163574,0.2968810200691223,-0.07422025501728058,13.275146484375,-3.204345703125,2.044677734375
10.969999900000001,-10.002974510192871,0.14844051003456116,0.1867477297782898,5.8135986328125,0.67138671875,4.180908203125
10.9899999,-9.964667320251465,-0.035913024097681046,0.3280056416988373,0.732421875,1.7547607421875,4.2572021484375
11.0099999,-9.926360130310059,-0.22266076505184174,0.395043283700943,0.274658203125,2.0599365234375,3.936767578125
11.0299999,-9.928754806518555,-0.3495534360408783,0.363918662071228,6.439208984375,5.6610107421875,3.5247802734375
11.049999900000001,-9.967061996459961,-0.38067805767059326,0.181959331035614,10.223388671875,6.0272216796875,4.302978515625
11.069999900000001,-10.053253173828125,-0.3232172429561615,-0.1412578970193863,14.862060546875,3.9825439453125,2.38037109375
11.0899999,-10.108319282531738,-0.181959331035614,-0.524330198764801,14.739990234375,-0.823974609375,1.1749267578125
11.1099999,-10.144232749938965,-0.026336219161748886,-0.8403648138046265,9.0179443359375,-5.889892578125,1.678466796875
11.129999900000001,-10.129867553710938,0.06224924325942993,-0.9744400978088379,3.2501220703125,-10.1776123046875,4.9591064453125
11.149999900000001,-10.093954086303711,0.06224924325942993,-0.8643068075180054,-1.5869140625,-13.5498046875,10.2691650390625
11.1699999,-10.02691650390625,-0.0694318488240242,-0.6177040338516235,4.486083984375,-12.2833251953125,12.6190185546875
11.1899999,-9.974244117736816,-0.24899697303771973,-0.33279404044151306,26.3214111328125,-8.4991455078125,14.0533447265625
11.209999900000001,-9.940725326538086,-0.4141969084739685,-0.023942016065120697,22.308349609375,-12.87841796875,18.73779296875
11.229999900000001,-9.926360130310059,-0.42616790533065796,0.24899697303771973,16.326904296875,-12.481689453125,20.0347900390625
11.2499999,-9.897629737854004,-0.24660277366638184,0.5482721924781799,13.8702392578125,-7.4615478515625,14.8162841796875
11.2699999,-9.821015357971191,0.07182604819536209,0.8307880163192749,5.8135986328125,-1.8310546875,6.53076171875
11.2899999,-9.749189376831055,0.4141969084739685,1.0055646896362305,-2.9449462890625,4.5623779296875,-0.9002685546875
11.309999900000001,-9.742006301879883,0.6488286852836609,1.039083480834961,-7.1563720703125,7.720947265625,-2.227783203125
11.3299999,-9.823410034179688,0.6799532771110535,0.9097966551780701,-9.1552734375,8.3160400390625,-1.5869140625
11.3499999,-10.02452278137207,0.5195417404174805,0.5985504388809204,-7.9345703125,8.819580078125,-0.9002685546875
11.3699999,-10.254365921020508,0.27054479718208313,0.28969839215278625,3.5552978515625,7.14111328125,-0.5645751953125
11.389999900000001,-10.515334129333496,0.021547814831137657,-0.014365210197865963,16.8304443359375,4.4403076171875,-0.0152587890625
11.4099999,-11.018115997314453,-0.028730420395731926,-0.17956513166427612,17.76123046875,1.861572265625,-2.99072265625
11.4299999,-11.511322021484375,0.043095629662275314,-0.21547815203666687,8.6669921875,0.9918212890625,-6.8359375
11.4499999,-12.12902545928955,0.24181437492370605,-0.14604631066322327,-0.2593994140625,0.8087158203125,-8.8958740234375
11.469999900000001,-12.660538673400879,0.5027823448181152,-0.2753331959247589,-2.7008056640625,-6.8359375,-12.603759765625
11.4899999,-12.320562362670898,0.43095630407333374,-0.3998316824436188,0.79345703125,-17.9901123046875,-28.01513671875
11.5099999,-11.60948371887207,0.26575639843940735,-0.43095630407333374,3.9520263671875,-7.6751708984375,-34.1033935546875
11.5299999,-10.65898609161377,-0.014365210197865963,-0.33279404044151306,2.4261474609375,5.79833984375,-24.8565673828125
11.549999900000001,-9.59596061706543,-0.17717093229293823,-0.004788403399288654,-3.4942626953125,6.4849853515625,-12.4053955078125
11.569999900000001,-8.712499618530273,-0.26815059781074524,0.30885201692581177,-19.9737548828125,5.126953125,-3.7384033203125
11.5899999,-8.1139497756958,-0.24181437492370605,0.5841852426528931,-32.1502685546875,14.4500732421875,1.312255859375
11.6099999,-7.872135162353516,-0.181959331035614,0.6009446382522583,-27.0538330078125,18.157958984375,2.838134765625
11.629999900000001,-7.85537576675415,-0.2801215946674347,0.363918662071228,-13.4124755859375,7.568359375,2.8228759765625
11.649999900000001,-8.056488990783691,-0.40222588181495667,-0.08619125932455063,3.814697265625,-2.9754638671875,6.439208984375
11.6699999,-8.248024940490723,-0.5770025849342346,-0.48602294921875,19.0582275390625,-4.6539306640625,8.4381103515625
11.6899999,-8.456320762634277,-0.6344634294509888,-0.7541735172271729,27.679443359375,1.0986328125,9.857177734375
11.709999900000001,-8.62391471862793,-0.6129156351089478,-0.8140285611152649,30.3955078125,4.1046142578125,12.237548828125
11.729999900000001,-8.841787338256836,-0.4596867263317108,-0.7206547260284424,28.1524658203125,4.1046142578125,12.5579833984375
11.7499999,-9.124302864074707,-0.23942017555236816,-0.5195417404174805,24.322509765625,6.1798095703125,5.401611328125
11.7699999,-9.44752025604248,-0.016759412363171577,-0.30885201692581177,18.2647705078125,7.9345703125,-3.6468505859375
11.7899999,-9.746794700622559,0.14365209639072418,-0.10295066982507706,9.94873046875,1.190185546875,-4.7760009765625
11.809999900000001,-9.964667320251465,0.21308395266532898,0.06703764945268631,1.922607421875,-5.4473876953125,-0.3509521484375
11.8299999,-10.043676376342773,0.16759411990642548,0.15562310814857483,-2.9754638671875,-1.46484375,1.6937255859375
11.8499999,-10.043676376342773,0.06464344263076782,0.17717093229293823,-4.9591064453125,2.655029296875,2.349853515625
11.8699999,-9.907206535339355,0.011971008032560349,0.31842881441116333,-5.9661865234375,-1.2359619140625,6.0882568359375
11.889999900000001,-9.84495735168457,-0.17956513166427612,0.1388636976480484,-3.570556640625,16.6473388671875,0.1678466796875
11.9099999,-9.804255485534668,-0.23702596127986908,0.05746084079146385,4.058837890625,39.031982421875,-13.7939453125
11.9299999,-9.950302124023438,-0.3926490843296051,-0.26575639843940735,8.7432861328125,28.8848876953125,-17.913818359375
11.9499999,-10.08437728881836,-0.47405192255973816,-0.5027823448181152,5.584716796875,-6.6986083984375,-4.730224609375
11.969999900000001,-10.201693534851074,-0.5027823448181152,-0.5770025849342346,2.74658203125,-18.5394287109375,4.33349609375
11.9899999,-10.196905136108398,-0.4884171485900879,-0.4572925269603729,3.4637451171875,-4.0740966796875,0.18310546875
12.0099999,-10.103530883789062,-0.44771572947502136,-0.22266076505184174,3.2958984375,7.354736328125,-6.9732666015625
12.0299999,-10.038887977600098,-0.3998316824436188,0.002394201699644327,0.9918212890625,10.406494140625,-10.3302001953125
12.049999900000001,-10.017339706420898,-0.3758896589279175,0.14844051003456116,-2.838134765625,7.2021484375,-8.026123046875
12.069999900000001,-9.979032516479492,-0.3663128614425659,0.22026655077934265,-9.2010498046875,2.74658203125,-1.495361328125
12.0899999,-9.904812812805176,-0.35913026332855225,0.23942017555236816,-14.495849609375,7.62939453125,0.1983642578125
12.1099999,-9.813833236694336,-0.3495534360408783,0.19871874153614044,-17.120361328125,21.209716796875,-6.622314453125
12.129999900000001,-9.746794700622559,-0.3711012601852417,0.047884032130241394,-16.5863037109375,29.6173095703125,-14.923095703125
12.149999900000001,-9.77791976928711,-0.42616790533065796,-0.17717093229293823,-14.739990234375,23.6663818359375,-18.7835693359375
12.1699999,-9.847352027893066,-0.545877993106842,-0.4812345504760742,-11.2457275390625,11.8560791015625,-20.416259765625
12.1899999,-9.90241813659668,-0.7110779285430908,-0.7805097699165344,-7.5836181640625,3.0517578125,-19.0887451171875
12.209999900000001,-9.873687744140625,-0.8762778043746948,-0.993593692779541,-3.9520263671875,-5.4473876953125,-9.94873046875
12.229999900000001,-9.782708168029785,-0.9888052940368652,-1.1013327836990356,0.0457763671875,-10.4522705078125,1.4801025390625
12.2499999,-9.674968719482422,-1.036689281463623,-1.115697979927063,5.0048828125,-7.5531005859375,8.48388671875
12.2699999,-9.646238327026367,-0.9840168952941895,-1.0606313943862915,10.1776123046875,-4.6844482421875,13.0767822265625
12.289999900000002,-9.703699111938477,-0.8379706144332886,-0.9720458984375,15.1824951171875,-6.5460205078125,15.289306640625
12.309999900000001,-9.859322547912598,-0.6248866319656372,-0.8762778043746948,19.744873046875,-7.4462890625,11.3525390625
12.3299999,-10.000580787658691,-0.3998316824436188,-0.7733271718025208,22.2015380859375,-6.0882568359375,4.2266845703125
12.3499999,-10.067618370056152,-0.2059013396501541,-0.6392518281936646,21.1639404296875,-7.32421875,1.861572265625
12.3699999,-10.041281700134277,-0.06224924325942993,-0.4812345504760742,17.08984375,-8.0718994140625,4.241943359375
12.389999900000001,-9.947908401489258,0.011971008032560349,-0.31364041566848755,12.0086669921875,-3.3721923828125,3.3111572265625
12.4099999,-9.832986831665039,0.014365210197865963,-0.16998831927776337,7.6904296875,1.3275146484375,-0.9765625
12.4299999,-9.751583099365234,-0.014365210197865963,-0.05985504388809204,3.9215087890625,-1.1749267578125,0.2593994140625
12.4499999,-9.701305389404297,-0.08140286058187485,0.009576806798577309,-0.06103515625,-3.9215087890625,6.3629150390625
12.469999900000001,-9.708487510681152,-0.14604631066322327,0.026336219161748886,-2.960205078125,-2.1514892578125,10.1776123046875
12.4899999,-9.746794700622559,-0.20350714027881622,0.011971008032560349,-3.0517578125,-1.678466796875,9.6435546875
12.5099999,-9.840168952941895,-0.20111294090747833,-0.028730420395731926,-2.8076171875,-4.8828125,10.6658935546875
12.5299999,-9.938331604003906,-0.17238251864910126,-0.07900865375995636,-4.5318603515625,-4.1656494140625,12.451171875
12.549999900000001,-10.041281700134277,-0.1149216815829277,-0.14604631066322327,-7.049560546875,0.762939453125,10.8795166015625
12.569999900000001,-10.091560363769531,-0.07182604819536209,-0.21308395266532898,-7.965087890625,2.044677734375,7.080078125
12.5899999,-10.129867553710938,-0.0694318488240242,-0.2944868206977844,-7.904052734375,0.5950927734375,5.67626953125
12.6099999,-10.156203269958496,-0.10773907601833344,-0.38307225704193115,-7.476806640625,3.0975341796875,4.2266845703125
12.629999900000001,-10.160991668701172,-0.20350714027881622,-0.4692635238170624,-5.7373046875,6.439208984375,-1.9073486328125
12.649999900000001,-10.15141487121582,-0.3256114423274994,-0.524330198764801,-3.1890869140625,4.7607421875,-6.3934326171875
12.6699999,-10.168174743652344,-0.45010992884635925,-0.5746083855628967,-0.8697509765625,2.5787353515625,-4.8065185546875
12.6899999,-10.170568466186523,-0.5746083855628967,-0.6057330369949341,2.7008056640625,1.617431640625,-3.35693359375
12.709999900000001,-10.180145263671875,-0.6512228846549988,-0.608127236366272,7.080078125,-2.3193359375,-2.4566650390625
12.729999900000001,-10.177751541137695,-0.667982280254364,-0.5674257874488831,9.6588134765625,-7.14111328125,0.5950927734375
12.7499999,-10.165780067443848,-0.5961562395095825,-0.49559974670410156,8.9874267578125,-8.5296630859375,3.6468505859375
12.7699999,-10.089165687561035,-0.47405192255973816,-0.3758896589279175,6.988525390625,-8.056640625,2.6702880859375
12.789999900000002,-9.955090522766113,-0.33279404044151306,-0.23942017555236816,4.9896240234375,-6.4544677734375,2.01416015625
12.809999900000001,-9.801861763000488,-0.19393034279346466,-0.1173158809542656,2.3345947265625,-2.532958984375,5.5999755859375
12.8299999,-9.641449928283691,-0.09576806426048279,-0.031124621629714966,-1.1138916015625,0.8697509765625,9.2620849609375
12.8499999,-9.888052940368652,-0.033518824726343155,-0.004788403399288654,-4.0740966796875,1.28173828125,6.7901611328125
12.8699999,-9.998186111450195,0.019153613597154617,-0.033518824726343155,-5.1727294921875,-1.9378662109375,-8.9569091796875
12.889999900000001,-10.438719749450684,0.035913024097681046,-0.1412578970193863,-6.6680908203125,2.2430419921875,-3.082275390625
12.9099999,-10.572794914245605,0.07900865375995636,-0.29209262132644653,-6.8817138671875,2.3040771484375,2.4871826171875
12.9299999,-10.503362655639648,0.11252748221158981,-0.43335050344467163,-6.5155029296875,-1.495361328125,-0.6256103515625
12.9499999,-10.283096313476562,0.14365209639072418,-0.5506663918495178,-5.7830810546875,-2.3193359375,-4.0283203125
12.969999900000001,-10.043676376342773,0.15801730751991272,-0.6129156351089478,-4.6234130859375,-3.0364990234375,-6.011962890625
12.9899999,-9.895236015319824,0.11013327538967133,-0.608127236366272,-2.6702880859375,-5.126953125,-7.293701171875
13.0099999,-9.864110946655273,-0.019153613597154617,-0.5482721924781799,-0.6561279296875,-5.615234375,-7.1563720703125
13.0299999,-9.904812812805176,-0.20111294090747833,-0.44532153010368347,1.3427734375,-5.0048828125,-5.340576171875
13.049999900000001,-9.962273597717285,-0.38546648621559143,-0.28730419278144836,4.119873046875,-4.669189453125,-3.7841796875
13.069999900000001,-9.974244117736816,-0.5267243981361389,-0.12210428714752197,5.6610107421875,-4.3182373046875,-2.777099609375
13.0899999,-9.940725326538086,-0.6536170840263367,0.05746084079146385,5.0506591796875,-2.532958984375,-0.6866455078125
13.1099999,-9.928754806518555,-0.7398083209991455,0.1843535304069519,2.4871826171875,-1.0223388671875,1.5106201171875
13.129999900000001,-9.928754806518555,-0.8236053586006165,0.2561795711517334,0.3662109375,0.54931640625,4.486083984375
13.149999900000001,-9.955090522766113,-0.8978256583213806,0.2513911724090576,-0.640869140625,2.838134765625,8.2550048828125
13.1699999,-10.010157585144043,-0.8810662031173706,0.1412578970193863,0.9918212890625,2.685546875,11.53564453125
13.1899999,-10.02691650390625,-0.751779317855835,-0.035913024097681046,4.547119140625,1.0986328125,12.5579833984375
13.209999900000001,-10.010157585144043,-0.5123591423034668,-0.20350714027881622,7.5225830078125,-0.152587890625,10.6353759765625
13.229999900000001,-9.998186111450195,-0.19393034279346466,-0.3232172429561615,5.889892578125,-0.8392333984375,8.1024169921875
13.2499999,-9.979032516479492,0.08619125932455063,-0.4141969084739685,1.3580322265625,-1.6021728515625,6.744384765625
13.2699999,-9.981427192687988,0.3974374830722809,-0.3016694188117981,-1.9989013671875,-3.265380859375,6.04248046875
13.289999900000002,-9.96945571899414,0.6129156351089478,-0.15801730751991272,-12.75634765625,-0.6866455078125,3.84521484375
13.309999900000001,-9.86889934539795,0.730231523513794,0.040701430290937424,-27.1453857421875,5.0201416015625,2.532958984375
13.3299999,-9.964667320251465,0.5674257874488831,0.08858546614646912,-31.707763671875,7.080078125,7.14111328125
13.3499999,-9.950302124023438,0.26815059781074524,-0.06703764945268631,-19.5770263671875,1.251220703125,8.7890625
13.3699999,-10.077195167541504,-0.17956513166427612,-0.363918662071228,0.3814697265625,-8.6517333984375,6.561279296875
13.389999900000001,-10.086771965026855,-0.6033388376235962,-0.6536170840263367,16.8304443359375,-13.24462890625,3.082275390625
13.4099999,-10.067618370056152,-0.8212111592292786,-0.8882488012313843,28.839111328125,-5.4931640625,3.4332275390625
13.4299999,-10.014945983886719,-0.8427590131759644,-0.8762778043746948,36.773681640625,-7.568359375,8.087158203125
13.4499999,-9.995792388916016,-0.4357447028160095,-0.6631938815116882,35.5377197265625,-17.0745849609375,11.4593505859375
13.469999900000001,-10.029311180114746,0.035913024097681046,-0.2082955539226532,20.9808349609375,-11.2152099609375,10.9405517578125
13.4899999,-9.861717224121094,0.6823474764823914,0.3016694188117981,0.2899169921875,-11.41357421875,-1.953125
13.5099999,-9.880870819091797,1.0462661981582642,0.8092401623725891,-10.8184814453125,-3.1585693359375,-8.270263671875
13.5299999,-9.739612579345703,1.2114660739898682,1.0749965906143188,-17.791748046875,13.153076171875,-4.791259765625
13.549999900000001,-9.653421401977539,1.2186486721038818,1.070208191871643,-28.74755859375,13.1683349609375,-5.2642822265625
13.569999900000001,-9.943120002746582,0.9097966551780701,0.8619126081466675,-29.72412109375,7.537841796875,-2.1514892578125
13.5899999,-9.823410034179688,0.5530605912208557,0.395043283700943,-21.6522216796875,8.148193359375,-3.8909912109375
13.6099999,-9.93593692779541,0.10534487664699554,-0.08858546614646912,-7.2784423828125,3.265380859375,-13.0615234375
13.629999900000001,-10.055646896362305,-0.3687070608139038,-0.40940847992897034,4.4708251953125,0.732421875,-8.4075927734375
13.649999900000001,-9.962273597717285,-0.6416460275650024,-0.7422025203704834,-1.556396484375,10.1318359375,2.166748046875
13.6699999,-10.165780067443848,-0.7398083209991455,-0.8834604024887085,3.631591796875,-0.9765625,4.2724609375
13.6899999,-10.189722061157227,-0.8092401623725891,-0.8355764150619507,15.1824951171875,-18.707275390625,7.232666015625
13.709999900000001,-10.139444351196289,-0.6009446382522583,-0.8307880163192749,18.218994140625,-12.5885009765625,1.1749267578125
13.729999900000001,-10.014945983886719,-0.2537853717803955,-0.37828385829925537,16.448974609375,-6.89697265625,-2.655029296875
13.7499999,-9.967061996459961,0.12449848651885986,0.033518824726343155,0.1373291015625,-0.0457763671875,3.1890869140625
13.7699999,-9.947908401489258,0.6248866319656372,0.4141969084739685,-12.6495361328125,3.84521484375,3.3721923828125
13.789999900000002,-9.955090522766113,0.7565677165985107,0.6823474764823914,-13.4124755859375,-2.8228759765625,-2.3956298828125
13.809999900000001,-9.976638793945312,0.7733271718025208,0.6200982332229614,-6.77490234375,-2.62451171875,-8.575439453125
13.8299999,-9.787496566772461,0.5219359993934631,0.524330198764801,4.791259765625,6.3934326171875,-10.101318359375
13.8499999,-9.840168952941895,0.26815059781074524,0.395043283700943,1.556396484375,9.1552734375,-4.57763671875
13.8699999,-9.880870819091797,0.05027823522686958,0.17238251864910126,-6.6375732421875,7.0343017578125,-1.922607421875
13.889999900000001,-9.976638793945312,-0.14604631066322327,0.08140286058187485,-1.861572265625,2.197265625,0.79345703125
13.9099999,-10.132261276245117,-0.3256114423274994,-0.14604631066322327,5.1727294921875,-4.7454833984375,-3.5858154296875
13.9299999,-10.043676376342773,-0.42616790533065796,-0.24660277366638184,14.9993896484375,-3.3721923828125,-5.6915283203125
13.9499999,-10.06043529510498,-0.4118026793003082,-0.31603461503982544,11.962890625,5.3558349609375,1.15966796875
13.969999900000001,-9.952696800231934,-0.3471592366695404,-0.3663128614425659,-2.44140625,3.6468505859375,3.96728515625
13.9899999,-10.170568466186523,-0.17477671802043915,-0.35434186458587646,-3.8604736328125,-6.89697265625,7.32421875
14.0099999,-10.014945983886719,-0.19393034279346466,-0.40940847992897034,4.4708251953125,-11.1541748046875,4.1656494140625
14.0299999,-10.007762908935547,-0.047884032130241394,-0.38307225704193115,11.7950439453125,-9.21630859375,-5.2947998046875
14.049999900000001,-9.976638793945312,-0.004788403399288654,-0.1388636976480484,6.927490234375,-7.3089599609375,0.0457763671875
14.069999900000001,-9.821015357971191,0.13407529890537262,0.11252748221158981,-18.463134765625,5.5084228515625,4.730224609375
14.0899999,-9.9000244140625,0.26575639843940735,0.3519476354122162,-28.0609130859375,0.4730224609375,2.9754638671875
14.1099999,-9.9000244140625,0.1388636976480484,0.5291185975074768,-16.78466796875,-9.2620849609375,6.3323974609375
14.129999900000001,-9.907206535339355,0.06464344263076782,0.44532153010368347,-6.988525390625,0.9613037109375,-0.9613037109375
14.149999900000001,-9.883264541625977,-0.009576806798577309,0.5434837937355042,-3.021240234375,2.38037109375,-4.608154296875
14.1699999,-9.8784761428833,-0.07661445438861847,0.4908113479614258,-11.5509033203125,8.4381103515625,6.9122314453125
14.1899999,-9.86889934539795,0.08619125932455063,0.4644751250743866,-16.510009765625,14.09912109375,1.03759765625
14.209999900000001,-9.945513725280762,0.10295066982507706,0.40222588181495667,-8.9263916015625,-2.960205078125,0.030517578125
14.229999900000001,-9.921571731567383,0.2968810200691223,0.2561795711517334,-3.326416015625,0.5340576171875,-2.50244140625
14.2499999,-9.86650562286377,0.2777273952960968,0.12449848651885986,-5.8441162109375,11.322021484375,-13.0767822265625
14.2699999,-9.9000244140625,0.33997663855552673,0.13168109953403473,-11.0321044921875,6.89697265625,-1.9683837890625
14.289999900000002,-9.782708168029785,0.47405192255973816,0.2849099934101105,-17.63916015625,11.65771484375,1.4801025390625
14.309999900000001,-9.852140426635742,0.6488286852836609,0.5339069962501526,-49.2401123046875,15.0146484375,-1.068115234375
14.3299999,-9.801861763000488,0.6871358752250671,0.7230489253997803,-86.0443115234375,17.6849365234375,-7.9803466796875
14.3499999,-9.746794700622559,0.727837324142456,0.8427590131759644,-79.8797607421875,28.228759765625,-12.4664306640625
14.3699999,-9.744400978088379,0.14844051003456116,0.3974374830722809,-58.53271484375,30.181884765625,-6.3629150390625
14.389999900000001,-9.950302124023438,-0.569819986820221,-0.40222588181495667,-29.7088623046875,24.383544921875,-1.556396484375
14.4099999,-10.247182846069336,-1.5825673341751099,-1.6280571222305298,21.8048095703125,2.044677734375,10.68115234375
14.4299999,-10.512939453125,-2.2194249629974365,-2.7509377002716064,85.4034423828125,-21.6064453125,16.2506103515625
14.4499999,-10.524910926818848,-2.4133553504943848,-3.5936968326568604,114.654541015625,-39.398193359375,11.04736328125
14.469999900000001,-10.436325073242188,-1.766920804977417,-3.3063924312591553,110.809326171875,-40.0848388671875,13.4429931640625
14.4899999,-10.132261276245117,-0.4644751250743866,-2.2864625453948975,61.676025390625,-28.13720703125,13.916015625
14.5099999,-9.9000244140625,0.933738648891449,-0.6943184733390808,4.669189453125,-22.8729248046875,5.5999755859375
14.5299999,-9.825803756713867,2.03507137298584,0.849941611289978,-18.585205078125,-14.1448974609375,1.434326171875
14.549999900000001,-9.672574996948242,2.3127987384796143,1.7764976024627686,-21.575927734375,-9.1094970703125,-5.2490234375
14.569999900000001,-9.66299819946289,1.987187385559082,2.099714994430542,-9.5062255859375,-3.692626953125,-11.90185546875
14.5899999,-9.727641105651855,1.2330138683319092,1.98958158493042,-4.33349609375,7.171630859375,-4.6844482421875
14.6099999,-9.708487510681152,0.363918662071228,1.534683346748352,-17.913818359375,12.4664306640625,2.8228759765625
14.629999900000001,-9.909601211547852,-0.22505496442317963,1.173158884048462,-17.3492431640625,5.523681640625,6.53076171875
14.649999900000001,-9.923966407775879,-0.629675030708313,0.689530074596405,-9.1094970703125,2.2735595703125,4.5928955078125
14.6699999,-9.90241813659668,-0.7206547260284424,0.272938996553421,-3.23486328125,5.096435546875,-2.13623046875
14.6899999,-9.952696800231934,-0.5219359993934631,-0.06464344263076782,2.8076171875,8.819580078125,-1.922607421875
14.709999900000001,-9.907206535339355,-0.12210428714752197,-0.3519476354122162,-3.90625,6.5765380859375,3.7841796875
14.729999900000001,-10.038887977600098,0.33518823981285095,-0.35434186458587646,-13.2598876953125,2.7923583984375,0.9613037109375
14.7499999,-10.108319282531738,0.689530074596405,-0.35913026332855225,-15.4266357421875,-0.9765625,-5.9814453125
14.7699999,-10.079588890075684,0.6919242739677429,-0.21308395266532898,-8.575439453125,0.42724609375,-11.5203857421875
14.789999900000002,-10.031704902648926,0.569819986820221,-0.11013327538967133,2.0599365234375,3.0670166015625,-10.3759765625
14.809999900000001,-9.916783332824707,0.15562310814857483,-0.023942016065120697,0.457763671875,7.4005126953125,-2.7618408203125
14.8299999,-9.914389610290527,-0.14604631066322327,-0.07182604819536209,-7.75146484375,5.8135986328125,2.3956298828125
14.8499999,-9.998186111450195,-0.5171475410461426,-0.1388636976480484,-1.64794921875,-2.4871826171875,3.265380859375
14.8699999,-10.005369186401367,-0.6871358752250671,-0.40940847992897034,15.106201171875,-9.94873046875,1.7547607421875
14.889999900000001,-10.038887977600098,-0.7326257228851318,-0.4189853072166443,28.4576416015625,-10.8795166015625,0.1983642578125
14.9099999,-9.99339771270752,-0.38067805767059326,-0.27054479718208313,13.5040283203125,-2.9296875,1.617431640625
14.9299999,-9.964667320251465,0.016759412363171577,0.14604631066322327,-19.378662109375,3.753662109375,4.974365234375
14.9499999,-10.014945983886719,0.5003881454467773,0.45250412821769714,-30.2886962890625,2.838134765625,3.0364990234375
14.969999900000001,-10.022128105163574,0.5195417404174805,0.5171475410461426,-15.869140625,-3.0364990234375,-1.0833740234375
14.9899999,-10.053253173828125,0.4692635238170624,0.30885201692581177,6.4849853515625,-4.302978515625,-4.1046142578125
15.0099999,-10.019734382629395,0.2322375625371933,0.17956513166427612,12.8631591796875,0.1983642578125,-0.91552734375
15.0299999,-9.959878921508789,0.19153612852096558,0.07661445438861847,-3.3416748046875,6.011962890625,2.44140625
15.049999900000001,-10.007762908935547,0.09816227108240128,0.15322890877723694,-13.0157470703125,4.82177734375,2.3193359375
15.069999900000001,-10.000580787658691,0.1149216815829277,0.0694318488240242,-8.7127685546875,-3.2196044921875,0.5950927734375
15.0899999,-9.979032516479492,-0.002394201699644327,-0.004788403399288654,2.4261474609375,-4.9591064453125,-3.0975341796875
15.1099999,-9.950302124023438,0.10055647045373917,0.009576806798577309,10.8184814453125,-2.7618408203125,-4.3792724609375
15.129999900000001,-9.864110946655273,0.1149216815829277,0.19871874153614044,-2.7923583984375,6.4849853515625,-2.716064453125
15.149999900000001,-9.895236015319824,0.22744916379451752,0.3423708379268646,-21.3775634765625,12.2222900390625,-0.0152587890625
15.1699999,-10.019734382629395,-0.06224924325942993,0.0933738648891449,3.387451171875,-1.922607421875,-1.6632080078125
15.1899999,-10.093954086303711,-0.24181437492370605,-0.19153612852096558,20.599365234375,-2.227783203125,-4.33349609375
15.209999900000001,-10.043676376342773,-0.26815059781074524,-0.2825157940387726,20.172119140625,0.6256103515625,-0.152587890625
15.229999900000001,-9.995792388916016,-0.22744916379451752,-0.3687070608139038,-0.7171630859375,3.082275390625,4.0283203125
15.2499999,-10.077195167541504,-0.08619125932455063,-0.24660277366638184,-4.39453125,-0.030517578125,3.7689208984375
15.2699999,-9.962273597717285,-0.028730420395731926,-0.28969839215278625,6.317138671875,-10.55908203125,3.173828125
15.289999900000002,-9.99100399017334,0.033518824726343155,-0.2537853717803955,10.772705078125,-8.514404296875,-2.6702880859375
15.309999900000001,-9.943120002746582,0.09816227108240128,-0.08858546614646912,7.6904296875,-1.9073486328125,-2.99072265625
15.3299999,-9.823410034179688,0.16759411990642548,0.24660277366638184,-8.544921875,4.5318603515625,1.0528564453125
15.3499999,-9.940725326538086,0.1173158809542656,0.3998316824436188,-17.8070068359375,6.7291259765625,2.7923583984375
15.3699999,-9.914389610290527,0.019153613597154617,0.49799394607543945,-8.209228515625,-2.105712890625,3.753662109375
15.389999900000001,-9.943120002746582,-0.15083470940589905,0.30885201692581177,3.3111572265625,-4.7149658203125,-0.42724609375
15.4099999,-9.93593692779541,-0.14604631066322327,0.3208230137825012,5.43212890625,0.1068115234375,-3.662109375
15.4299999,-9.883264541625977,0.05985504388809204,0.3758896589279175,-11.2762451171875,8.72802734375,0.0762939453125
15.4499999,-9.943120002746582,0.17717093229293823,0.38067805767059326,-27.099609375,10.2996826171875,2.838134765625
15.469999900000001,-10.065223693847656,0.2777273952960968,0.22505496442317963,-14.862060546875,4.364013671875,3.8299560546875
15.4899999,-10.093954086303711,0.09576806426048279,-0.16998831927776337,8.1634521484375,-6.9732666015625,2.25830078125
15.5099999,-10.11550235748291,0.10773907601833344,-0.4189853072166443,20.172119140625,-6.439208984375,-2.3040771484375
15.5299999,-10.065223693847656,0.12449848651885986,-0.28730419278144836,3.1585693359375,1.6326904296875,-2.13623046875
15.549999900000001,-9.859322547912598,0.42856210470199585,0.10295066982507706,-32.9742431640625,10.1470947265625,0.3662109375
15.569999900000001,-9.86889934539795,0.5841852426528931,0.524330198764801,-47.943115234375,14.3280029296875,0.3814697265625
15.5899999,-9.775525093078613,0.5363011956214905,0.6584054827690125,-41.44287109375,8.636474609375,-0.9002685546875
15.6099999,-9.727641105651855,0.28969839215278625,0.43095630407333374,-26.9622802734375,7.87353515625,-4.4097900390625
15.629999900000001,-9.801861763000488,0.08619125932455063,0.24899697303771973,-13.9007568359375,10.3607177734375,-3.7994384765625
15.649999900000001,-9.890447616577148,-0.21787235140800476,-0.1628057211637497,-24.261474609375,11.962890625,3.0517578125
15.6699999,-10.014945983886719,-0.3208230137825012,-0.3974374830722809,-21.514892578125,9.246826171875,2.3193359375
15.6899999,-10.302249908447266,-0.49799394607543945,-0.8690952062606812,-2.01416015625,1.983642578125,2.7618408203125
15.709999900000001,-10.36449909210205,-0.727837324142456,-1.4915876388549805,24.7955322265625,-10.0555419921875,2.410888671875
15.729999900000001,-10.390835762023926,-0.7637503147125244,-1.7693150043487549,63.446044921875,-22.6898193359375,1.312255859375
15.7499999,-10.390835762023926,-0.5937620401382446,-1.7477672100067139,76.568603515625,-22.705078125,2.86865234375
15.7699999,-10.06043529510498,-0.2298433631658554,-1.0247182846069336,54.9163818359375,-18.6309814453125,5.8441162109375
15.789999900000002,-10.110713958740234,0.3878606855869293,-0.09576806426048279,29.1595458984375,-12.1612548828125,5.0506591796875
15.809999900000001,-9.749189376831055,0.8738836050033569,0.8643068075180054,7.7972412109375,-6.7291259765625,-0.42724609375
15.8299999,-9.708487510681152,1.3096283674240112,1.4532804489135742,-11.0321044921875,0.5340576171875,-9.7808837890625
15.8499999,-9.59835433959961,1.4508862495422363,1.8914192914962769,-26.1688232421875,12.9852294921875,-15.44189453125
15.869999900000002,-9.569623947143555,1.338358759880066,1.889025092124939,-47.30224609375,26.2451171875,-11.53564453125
15.889999900000001,-9.703699111938477,0.8068459630012512,1.5490485429763794,-52.9632568359375,28.3660888671875,-5.9661865234375
15.9099999,-9.873687744140625,0.1412578970193863,0.7422025203704834,-29.6173095703125,20.6146240234375,-2.86865234375
15.9299999,-9.986215591430664,-0.7015010714530945,-0.40462008118629456,-0.9002685546875,8.5906982421875,-3.173828125
15.9499999,-10.08437728881836,-1.137245774269104,-1.3646949529647827,24.5361328125,-0.946044921875,-4.2572021484375
15.969999900000001,-10.098742485046387,-1.216254472732544,-1.6879122257232666,30.3497314453125,-5.0201416015625,0.1983642578125
15.9899999,-10.062829971313477,-0.8978256583213806,-1.556231141090393,4.1046142578125,-1.556396484375,4.82177734375
16.0099999,-10.101137161254883,-0.4620809257030487,-1.0749965906143188,-11.8865966796875,-1.739501953125,5.3558349609375
16.0299999,-10.055646896362305,0.023942016065120697,-0.586579442024231,-9.490966796875,-7.75146484375,1.2664794921875
16.0499999,-9.976638793945312,0.3878606855869293,-0.31364041566848755,-9.185791015625,-5.615234375,-7.049560546875
16.0699999,-9.907206535339355,0.6392518281936646,0.19393034279346466,-11.0931396484375,0.2288818359375,-6.622314453125
16.089999900000002,-9.765948295593262,0.6919242739677429,0.6416460275650024,-34.942626953125,10.0555419921875,-2.2125244140625
16.109999900000002,-9.660603523254395,0.6655880808830261,1.2186486721038818,-57.43408203125,18.85986328125,1.9989013671875
16.1299999,-9.780313491821289,0.24420857429504395,1.115697979927063,-64.4378662109375,22.979736328125,2.8228759765625
16.1499999,-9.830592155456543,-0.29209262132644653,0.47644615173339844,-31.9366455078125,15.0909423828125,0.9918212890625
16.1699999,-10.110713958740234,-0.8259995579719543,-0.545877993106842,21.1639404296875,0.091552734375,-0.6866455078125
16.1899999,-10.220847129821777,-1.2497732639312744,-1.501164436340332,51.727294921875,-9.4451904296875,1.46484375
16.2099999,-10.3549222946167,-1.3910311460494995,-2.097320795059204,60.7757568359375,-9.6435546875,6.1798095703125
16.2299999,-10.433931350708008,-0.9481038451194763,-1.8938134908676147,65.61279296875,-16.90673828125,11.1846923828125
16.249999900000002,-10.357316970825195,-0.45250412821769714,-1.3958195447921753,51.8035888671875,-20.9503173828125,5.43212890625
16.269999900000002,-10.228029251098633,0.5099649429321289,-0.38067805767059326,27.4658203125,-9.6282958984375,-5.126953125
16.2899999,-9.983820915222168,1.192312479019165,0.8140285611152649,-7.049560546875,6.8511962890625,-7.965087890625
16.3099999,-9.749189376831055,1.5131354331970215,1.5490485429763794,-46.7376708984375,22.918701171875,-7.3089599609375
16.3299999,-9.763554573059082,1.2210428714752197,1.699883222579956,-54.3975830078125,26.5960693359375,-0.91552734375
16.3499999,-9.799467086791992,0.4668693244457245,0.9792284965515137,-34.088134765625,12.7716064453125,6.04248046875
16.3699999,-9.9000244140625,-0.42616790533065796,-0.19393034279346466,-5.31005859375,1.0528564453125,4.2266845703125
16.3899999,-10.000580787658691,-1.094150185585022,-1.2282254695892334,23.1475830078125,-1.9989013671875,3.3416748046875
16.4099999,-9.950302124023438,-1.3742717504501343,-1.8124107122421265,36.590576171875,-6.5765380859375,8.8043212890625
16.429999900000002,-10.125079154968262,-1.115697979927063,-1.8387469053268433,39.6728515625,-11.0321044921875,11.5814208984375
16.4499999,-10.146626472473145,-0.7709329724311829,-1.4844050407409668,36.285400390625,-16.2811279296875,8.5601806640625
16.4699999,-10.213664054870605,-0.17238251864910126,-1.2545616626739502,36.4227294921875,-17.486572265625,2.4871826171875
16.4899999,-10.15141487121582,0.12449848651885986,-0.9169792532920837,59.50927734375,-13.214111328125,1.373291015625
16.5099999,-10.15141487121582,0.5147533416748047,-0.5602431893348694,69.061279296875,-20.81298828125,10.467529296875
16.5299999,-10.177751541137695,0.7541735172271729,-0.05985504388809204,46.478271484375,-17.669677734375,3.631591796875
16.5499999,-10.431536674499512,1.113303780555725,0.6919242739677429,10.3607177734375,-5.0811767578125,-3.8299560546875
16.5699999,-10.721235275268555,1.41257905960083,1.3503297567367554,-21.9879150390625,5.4931640625,-13.092041015625
16.589999900000002,-10.986991882324219,1.525106430053711,1.6424223184585571,-41.19873046875,12.054443359375,-21.8048095703125
16.609999900000002,-11.149797439575195,1.3072341680526733,1.50355863571167,-44.6929931640625,13.9923095703125,-18.9666748046875
16.6299999,-11.116278648376465,0.8068459630012512,0.9409212470054626,-37.139892578125,19.683837890625,-17.7459716796875
16.6499999,-10.955866813659668,0.16519992053508759,0.15801730751991272,-22.979736328125,21.5606689453125,-18.402099609375
16.6699999,-10.6925048828125,-0.49320554733276367,-0.6105214357376099,-7.1563720703125,9.7808837890625,-15.106201171875
16.6899999,-10.38844108581543,-1.0055646896362305,-1.1540051698684692,5.3253173828125,0.4119873046875,-7.843017578125
16.7099999,-10.067618370056152,-1.278503656387329,-1.314416766166687,12.725830078125,-0.640869140625,-1.3427734375
16.7299999,-9.794678688049316,-1.314416766166687,-1.1180921792984009,14.068603515625,4.5013427734375,-1.708984375
16.749999900000002,-9.59596061706543,-1.1540051698684692,-0.706289529800415,11.077880859375,8.72802734375,-5.2642822265625
16.769999900000002,-9.493009567260742,-0.8810662031173706,-0.26096799969673157,8.1024169921875,3.875732421875,-5.2947998046875
16.7899999,-9.437943458557129,-0.5746083855628967,0.1173158809542656,6.4544677734375,-6.4697265625,-3.4332275390625
16.8099999,-9.354146003723145,-0.3232172429561615,0.38546648621559143,3.326416015625,-8.4991455078125,-4.1961669921875
16.8299999,-9.260771751403809,-0.16998831927776337,0.5578489899635315,-2.4871826171875,0.18310546875,-5.859375
16.8499999,-9.174580574035645,-0.12449848651885986,0.6416460275650024,-8.36181640625,5.5694580078125,-6.622314453125
16.8699999,-9.095572471618652,-0.2082955539226532,0.6248866319656372,-12.054443359375,3.3111572265625,-8.8348388671875
16.8899999,-9.035717010498047,-0.3878606855869293,0.5315127968788147,-13.580322265625,-0.213623046875,-9.5367431640625
16.9099999,-8.995016098022461,-0.6177040338516235,0.38307225704193115,-13.85498046875,-0.6561279296875,-6.011962890625
16.929999900000002,-8.98543930053711,-0.8236053586006165,0.22505496442317963,-12.8631591796875,-2.1514892578125,-1.64794921875
16.9499999,-9.040505409240723,-0.9576807022094727,0.07182604819536209,-11.383056640625,-5.43212890625,-1.6326904296875
16.9699999,-9.157821655273438,-0.9983820915222168,-0.06464344263076782,-10.68115234375,-6.7596435546875,-3.265380859375
16.9899999,-9.337387084960938,-0.9600749015808105,-0.1867477297782898,-10.7879638671875,-5.096435546875,-2.899169921875
17.0099999,-9.526528358459473,-0.8762778043746948,-0.2825157940387726,-9.8419189453125,-4.425048828125,-3.509521484375
17.0299999,-9.691728591918945,-0.7972691655158997,-0.35673606395721436,-8.087158203125,-5.218505859375,-6.2255859375
17.0499999,-9.825803756713867,-0.7398083209991455,-0.40940847992897034,-7.14111328125,-3.997802734375,-7.080078125
17.0699999,-9.883264541625977,-0.7206547260284424,-0.4405331015586853,-6.9122314453125,-2.6397705078125,-5.4779052734375
17.089999900000002,-9.8784761428833,-0.727837324142456,-0.4381389021873474,-6.2103271484375,-3.936767578125,-2.9144287109375
17.109999900000002,-9.823410034179688,-0.7398083209991455,-0.40462008118629456,-5.401611328125,-3.5552978515625,-2.3040771484375
17.1299999,-9.75397777557373,-0.7350199222564697,-0.3495534360408783,-4.791259765625,1.434326171875,-5.37109375
17.1499999,-9.703699111938477,-0.7134721279144287,-0.2801215946674347,-4.6234130859375,6.4849853515625,-8.026123046875
17.1699999,-9.715670585632324,-0.6871358752250671,-0.2106897532939911,-4.425048828125,5.5999755859375,-6.683349609375
17.1899999,-9.794678688049316,-0.6607996821403503,-0.14604631066322327,-4.3792724609375,-1.28173828125,-3.5552978515625
17.2099999,-9.916783332824707,-0.6153098344802856,-0.08140286058187485,-5.1116943359375,-7.2784423828125,-1.5716552734375
17.2299999,-10.007762908935547,-0.5554547905921936,-0.023942016065120697,-6.0882568359375,-5.6915283203125,-1.8310546875
17.249999900000002,-10.029311180114746,-0.4884171485900879,-0.009576806798577309,-6.34765625,0.6103515625,-0.67138671875
17.269999900000002,-10.02691650390625,-0.4118026793003082,-0.06703764945268631,-5.7830810546875,5.06591796875,3.3721923828125
17.2899999,-10.02691650390625,-0.3423708379268646,-0.20350714027881622,-5.2032470703125,2.9754638671875,6.4849853515625
17.3099999,-10.036493301391602,-0.2753331959247589,-0.36152446269989014,-5.2337646484375,-0.8544921875,7.38525390625
17.3299999,-10.0580415725708,-0.2106897532939911,-0.49559974670410156,-5.9356689453125,2.5482177734375,8.6212158203125
17.3499999,-10.089165687561035,-0.14844051003456116,-0.5889736413955688,-5.9967041015625,10.55908203125,8.514404296875
17.3699999,-10.125079154968262,-0.10773907601833344,-0.6416460275650024,-4.852294921875,12.9241943359375,4.8370361328125
17.3899999,-10.163386344909668,-0.11013327538967133,-0.6727706789970398,-2.62451171875,7.6904296875,1.007080078125
17.409999900000003,-10.182539939880371,-0.14844051003456116,-0.6607996821403503,-0.823974609375,1.922607421875,3.3111572265625
17.429999900000002,-10.194510459899902,-0.2059013396501541,-0.6057330369949341,-0.4425048828125,3.814697265625,8.7890625
17.4499999,-10.199298858642578,-0.27054479718208313,-0.49799394607543945,-0.4425048828125,8.3770751953125,10.3759765625
17.4699999,-10.249577522277832,-0.31364041566848755,-0.3711012601852417,-0.3204345703125,7.38525390625,9.552001953125
17.4899999,-10.350133895874023,-0.3280056416988373,-0.24181437492370605,0.1373291015625,2.5787353515625,8.3160400390625
17.5099999,-10.431536674499512,-0.33279404044151306,-0.12210428714752197,0.6256103515625,-0.7781982421875,4.669189453125
17.5299999,-10.436325073242188,-0.3423708379268646,-0.028730420395731926,0.8697509765625,0.6561279296875,-0.5950927734375
17.5499999,-10.321403503417969,-0.363918662071228,0.023942016065120697,1.3275146484375,3.448486328125,-2.6702880859375
17.5699999,-10.11550235748291,-0.3998316824436188,0.016759412363171577,2.1514892578125,3.3721923828125,0.4119873046875
17.589999900000002,-9.8784761428833,-0.43335050344467163,-0.021547814831137657,2.532958984375,2.6092529296875,4.6844482421875
17.609999900000002,-9.710882186889648,-0.44771572947502136,-0.08140286058187485,1.9683837890625,4.69970703125,4.08935546875
17.6299999,-9.622296333312988,-0.45010992884635925,-0.1388636976480484,2.227783203125,2.7618408203125,-0.0457763671875
17.6499999,-9.581595420837402,-0.4405331015586853,-0.15322890877723694,2.685546875,-4.39453125,-0.67138671875
17.6699999,-9.5408935546875,-0.4429273009300232,-0.1604115068912506,2.1514892578125,-5.6915283203125,2.7923583984375
17.6899999,-9.48343276977539,-0.43335050344467163,-0.1388636976480484,1.7242431640625,-1.953125,6.8817138671875
17.7099999,-9.445125579833984,-0.38546648621559143,-0.11013327538967133,1.434326171875,0.091552734375,9.4451904296875
17.7299999,-9.48343276977539,-0.28969839215278625,-0.0933738648891449,-0.3509521484375,0.1983642578125,9.8419189453125
17.749999900000002,-9.59835433959961,-0.15562310814857483,-0.11013327538967133,-3.7078857421875,1.983642578125,7.110595703125
17.769999900000002,-9.742006301879883,-0.023942016065120697,-0.15083470940589905,-5.706787109375,4.0740966796875,3.2501220703125
17.7899999,-10.249577522277832,0.05746084079146385,-0.22266076505184174,-6.1492919921875,5.55419921875,3.41796875
17.8099999,-10.556035041809082,-0.014365210197865963,-0.3016694188117981,-5.3253173828125,1.6937255859375,-7.659912109375
17.8299999,-10.884040832519531,-0.13407529890537262,-0.40940847992897034,-5.4779052734375,-3.6163330078125,-5.8135986328125
17.8499999,-10.994174003601074,-0.2968810200691223,-0.5195417404174805,-2.227783203125,4.94384765625,5.9356689453125
17.8699999,-10.6925048828125,-0.38067805767059326,-0.6177040338516235,1.3275146484375,-2.50244140625,3.662109375
17.8899999,-10.369287490844727,-0.38067805767059326,-0.6703764796257019,2.3193359375,-7.110595703125,0.5035400390625
17.909999900000003,-9.947908401489258,-0.3687070608139038,-0.6416460275650024,3.6773681640625,-5.7373046875,-1.8768310546875
17.929999900000002,-9.75637149810791,-0.33039984107017517,-0.5147533416748047,2.349853515625,-6.7596435546875,0.06103515625
17.9499999,-9.703699111938477,-0.38067805767059326,-0.3447650372982025,0.8392333984375,-5.9051513671875,-3.3416748046875
17.9699999,-9.732429504394531,-0.42377370595932007,-0.181959331035614,-1.5869140625,-10.1470947265625,-5.4473876953125
17.9899999,-9.967061996459961,-0.5003881454467773,-0.035913024097681046,-4.2266845703125,-3.387451171875,3.4332275390625
18.0099999,-10.005369186401367,-0.49799394607543945,0.05267243832349777,-5.5389404296875,-0.701904296875,6.7291259765625
18.0299999,-10.022128105163574,-0.43335050344467163,0.10055647045373917,-6.439208984375,-1.983642578125,6.6070556640625
18.0499999,-10.000580787658691,-0.31842881441116333,0.07661445438861847,-3.0364990234375,-1.007080078125,2.99072265625
18.0699999,-9.964667320251465,-0.11971008777618408,0.040701430290937424,0.8392333984375,-1.3580322265625,1.007080078125
18.089999900000002,-9.962273597717285,0.05985504388809204,0,1.8463134765625,-0.946044921875,0
18.109999900000002,-9.99339771270752,0.2082955539226532,-0.038307227194309235,-1.6326904296875,0.946044921875,-2.410888671875
18.1299999,-10.02452278137207,0.2322375625371933,-0.12449848651885986,-4.5166015625,0.640869140625,-4.486083984375
18.1499999,-10.034099578857422,0.15801730751991272,-0.24420857429504395,-0.5950927734375,-1.495361328125,-4.21142578125
18.1699999,-10.031704902648926,0,-0.3016694188117981,4.425048828125,-4.57763671875,-3.1280517578125
18.1899999,-10.043676376342773,-0.19871874153614044,-0.31842881441116333,1.2664794921875,-4.5928955078125,-2.6397705078125
18.2099999,-9.967061996459961,-0.49320554733276367,-0.24420857429504395,-4.57763671875,-2.899169921875,-1.220703125
18.2299999,-9.911994934082031,-0.5770025849342346,-0.15562310814857483,-2.7923583984375,-2.38037109375,0.2593994140625
18.249999900000002,-9.856928825378418,-0.7086837291717529,-0.0694318488240242,1.5411376953125,-3.3721923828125,2.288818359375
18.269999900000002,-9.885659217834473,-0.667982280254364,-0.13168109953403473,1.708984375,-2.5482177734375,5.4779052734375
18.2899999,-10.034099578857422,-0.5937620401382446,-0.21787235140800476,4.08935546875,-3.5247802734375,12.26806640625
18.3099999,-9.998186111450195,-0.5123591423034668,-0.28730419278144836,8.392333984375,-13.031005859375,13.73291015625
18.3299999,-9.986215591430664,-0.3256114423274994,-0.19153612852096558,4.2724609375,-14.7247314453125,7.3394775390625
18.3499999,-9.952696800231934,-0.07900865375995636,-0.09816227108240128,-7.293701171875,-5.9814453125,2.7618408203125
18.3699999,-9.823410034179688,0.14365209639072418,0.12928688526153564,-14.4805908203125,-2.2735595703125,8.6517333984375
18.3899999,-10.014945983886719,0.35673606395721436,0.22026655077934265,-13.0615234375,-1.373291015625,6.011962890625
18.409999900000003,-10.072406768798828,0.4429273009300232,0.2825157940387726,-8.2855224609375,-12.14599609375,6.65283203125
18.429999900000002,-10.067618370056152,0.4118026793003082,0.15083470940589905,-3.9825439453125,-8.72802734375,-1.0986328125
18.4499999,-10.08437728881836,0.2346317619085312,0.09816227108240128,14.95361328125,-3.5400390625,-9.8114013671875
18.4699999,-10.02691650390625,0.12928688526153564,0.11252748221158981,24.871826171875,-6.34765625,-5.5999755859375
18.4899999,-9.8784761428833,0.15322890877723694,0.22505496442317963,7.659912109375,-0.8544921875,0.91552734375
18.5099999,-10.010157585144043,0.31124621629714966,0.5722141861915588,-9.3841552734375,0.885009765625,-2.50244140625
18.5299999,-9.84256362915039,0.5099649429321289,0.8786720037460327,-21.2860107421875,2.2735595703125,-13.580322265625
18.5499999,-9.876082420349121,0.586579442024231,1.0558429956436157,-23.01025390625,7.5531005859375,-17.5323486328125
18.5699999,-9.890447616577148,0.3734954595565796,1.0606313943862915,-19.6075439453125,18.2342529296875,-10.162353515625
18.589999900000002,-9.828198432922363,0.047884032130241394,0.751779317855835,-21.270751953125,22.0184326171875,-9.1705322265625
18.609999900000002,-10.050858497619629,-0.3711012601852417,0.3758896589279175,-9.33837890625,10.2386474609375,-4.8828125
18.6299999,-9.964667320251465,-0.8451532125473022,-0.19632454216480255,7.9498291015625,1.861572265625,0.6103515625
18.6499999,-10.070012092590332,-1.1875240802764893,-0.6703764796257019,15.9149169921875,-0.1373291015625,-3.8604736328125
18.6699999,-10.120290756225586,-1.3910311460494995,-0.9026140570640564,19.9127197265625,-4.3792724609375,-0.885009765625
18.6899999,-9.995792388916016,-1.2856862545013428,-0.9481038451194763,10.955810546875,0.0457763671875,10.31494140625
18.7099999,-10.17296314239502,-0.9888052940368652,-0.7613561153411865,4.913330078125,-1.8157958984375,10.5438232421875
18.7299999,-10.017339706420898,-0.5339069962501526,-0.4405331015586853,8.8958740234375,-14.7552490234375,8.331298828125
18.749999900000002,-10.065223693847656,-0.1412578970193863,-0.12928688526153564,7.0343017578125,-8.7890625,1.89208984375
18.769999900000002,-9.928754806518555,0.24181437492370605,0.26096799969673157,2.2735595703125,1.4190673828125,-7.7972412109375
18.7899999,-9.861717224121094,0.5027823448181152,0.667982280254364,-8.636474609375,3.7994384765625,2.7923583984375
18.8099999,-9.883264541625977,0.5339069962501526,0.9002198576927185,-22.76611328125,12.1917724609375,3.753662109375
18.8299999,-9.804255485534668,0.4213795065879822,0.9624691009521484,-20.6146240234375,10.19287109375,-2.3193359375
18.8499999,-9.854534149169922,0.035913024097681046,0.7422025203704834,-11.29150390625,1.3580322265625,-2.7618408203125
18.8699999,-9.931148529052734,-0.5674257874488831,0.181959331035614,7.659912109375,10.986328125,-1.4495849609375
18.8899999,-9.919178009033203,-0.646434485912323,-0.07182604819536209,-5.8441162109375,9.2620849609375,5.3863525390625
18.909999900000003,-10.103530883789062,-0.5650315880775452,-0.21308395266532898,-5.7220458984375,10.6964111328125,6.7138671875
18.929999900000002,-10.031704902648926,-0.4596867263317108,-0.38307225704193115,9.8114013671875,-3.5247802734375,2.105712890625
18.9499999,-10.022128105163574,-0.2801215946674347,-0.4884171485900879,19.04296875,-2.2735595703125,-4.5013427734375
18.9699999,-10.065223693847656,-0.17238251864910126,-0.49320554733276367,11.7950439453125,8.4686279296875,-3.0517578125
18.9899999,-9.99339771270752,0.10773907601833344,-0.3280056416988373,-4.57763671875,7.7056884765625,1.3275146484375
19.0099999,-10.177751541137695,0.17477671802043915,-0.15562310814857483,-14.22119140625,5.828857421875,3.72314453125
19.0299999,-10.055646896362305,0.24181437492370605,-0.11013327538967133,-13.3209228515625,-0.213623046875,0.91552734375
19.0499999,-10.125079154968262,-0.047884032130241394,-0.19153612852096558,-2.0751953125,-1.89208984375,-6.256103515625
19.0699999,-9.974244117736816,-0.22744916379451752,-0.33758243918418884,11.9171142578125,0.79345703125,-6.8817138671875
19.089999900000002,-9.919178009033203,-0.5003881454467773,-0.5386953949928284,9.033203125,2.1209716796875,3.997802734375
19.109999900000002,-9.950302124023438,-0.5626373887062073,-0.5937620401382446,3.8604736328125,-4.547119140625,6.40869140625
19.1299999,-10.029311180114746,-0.5363011956214905,-0.6177040338516235,7.9193115234375,-10.2386474609375,5.7830810546875
19.1499999,-9.96945571899414,-0.5363011956214905,-0.5147533416748047,17.08984375,-11.9781494140625,-0.0152587890625
19.1699999,-9.93593692779541,-0.35434186458587646,-0.2513911724090576,23.13232421875,-6.9122314453125,-3.9825439453125
19.1899999,-9.90241813659668,-0.2106897532939911,0.043095629662275314,5.340576171875,1.0528564453125,2.7008056640625
19.2099999,-9.763554573059082,0.13407529890537262,0.38307225704193115,-18.310546875,6.4239501953125,2.349853515625
19.2299999,-9.964667320251465,0.2992752194404602,0.5937620401382446,-21.3623046875,4.3182373046875,0.9765625
19.249999900000002,-9.90241813659668,0.363918662071228,0.5674257874488831,-13.9312744140625,-1.9683837890625,-2.655029296875
19.269999900000002,-9.93593692779541,0.19393034279346466,0.40701428055763245,-0.823974609375,3.23486328125,-8.758544921875
19.2899999,-10.0580415725708,0.033518824726343155,0.2537853717803955,2.899169921875,8.8653564453125,-5.9967041015625
19.3099999,-9.976638793945312,-0.12449848651885986,-0.011971008032560349,-6.8359375,8.7127685546875,1.007080078125
19.3299999,-10.137049674987793,-0.24420857429504395,-0.12689268589019775,-6.2408447265625,4.4403076171875,1.6021728515625
19.3499999,-10.129867553710938,-0.2968810200691223,-0.35673606395721436,0.9918212890625,-5.279541015625,-0.3814697265625
19.3699999,-10.065223693847656,-0.5099649429321289,-0.5003881454467773,10.07080078125,-5.2032470703125,-6.2255859375
19.3899999,-10.036493301391602,-0.4141969084739685,-0.4620809257030487,14.0380859375,0.9002685546875,-7.62939453125
19.409999900000003,-9.90241813659668,-0.4429273009300232,-0.33518823981285095,-1.1749267578125,2.777099609375,2.9754638671875
19.429999900000002,-9.981427192687988,-0.15083470940589905,-0.05746084079146385,-13.702392578125,5.92041015625,3.1280517578125
19.4499999,-10.000580787658691,-0.14604631066322327,0.10773907601833344,-14.190673828125,1.46484375,-0.9613037109375
19.4699999,-9.854534149169922,-0.040701430290937424,0.16998831927776337,-10.284423828125,-2.349853515625,-3.2501220703125
19.4899999,-9.885659217834473,-0.12449848651885986,0.2346317619085312,-6.011962890625,5.401611328125,-4.69970703125
19.5099999,-9.68694019317627,-0.12928688526153564,0.3208230137825012,-18.37158203125,9.33837890625,3.0059814453125
19.5299999,-9.550470352172852,-0.090979665517807,0.4812345504760742,-38.0706787109375,12.9547119140625,7.0648193359375
19.5499999,-9.59835433959961,0.3256114423274994,0.9097966551780701,-65.155029296875,17.3492431640625,5.645751953125
19.5699999,-9.66539192199707,0.507570743560791,0.9385270476341248,-108.184814453125,26.5960693359375,-2.9449462890625
19.589999900000002,-9.646238327026367,0.933738648891449,1.0271124839782715,-119.0338134765625,33.02001953125,-9.3536376953125
19.609999900000002,-9.99100399017334,0.5793967843055725,0.42377370595932007,-107.147216796875,38.9862060546875,-6.3934326171875
19.6299999,-10.139444351196289,-0.33997663855552673,-0.7781155705451965,-60.2569580078125,37.9486083984375,-3.9215087890625
19.6499999,-10.378864288330078,-1.625662922859192,-2.5546131134033203,39.8712158203125,3.84521484375,12.7716064453125
19.6699999,-10.66137981414795,-2.8874073028564453,-4.252102375030518,136.3372802734375,-38.116455078125,21.8963623046875
19.6899999,-10.627861022949219,-3.071760892868042,-5.317522048950195,178.0853271484375,-56.5032958984375,19.3023681640625
19.7099999,-10.409989356994629,-2.2218191623687744,-4.896142482757568,150.1617431640625,-56.33544921875,16.4031982421875
19.7299999,-10.122684478759766,-0.29209262132644653,-3.0621838569641113,73.028564453125,-40.10009765625,15.1519775390625
19.749999900000002,-9.694122314453125,1.5538369417190552,-0.7110779285430908,-17.1966552734375,-17.6239013671875,6.6375732421875
19.769999900000002,-9.59835433959961,2.8610711097717285,1.460463047027588,-55.633544921875,-6.378173828125,-3.3721923828125
19.7899999,-9.464279174804688,2.999934673309326,2.5737667083740234,-44.0673828125,-2.7923583984375,-10.7574462890625
19.8099999,-9.569623947143555,2.2840683460235596,2.6360161304473877,-16.0980224609375,-0.091552734375,-14.434814453125
19.8299999,-9.605537414550781,1.1204863786697388,2.2002713680267334,4.974365234375,4.6844482421875,-7.9193115234375
19.8499999,-9.732429504394531,-0.009576806798577309,1.3910311460494995,-5.5389404296875,11.9476318359375,1.800537109375
