# Time (seconds),Accel_X,Accel_Y,Accel_Z,Gyro_X,Gyro_Y,Gyro_Z
0.0099999,-9.35893440246582,-2.6168625354766846,0.9720458984375,-22.5982666015625,2.044677734375,60.1654052734375
0.029999900000000003,-9.552865028381348,-2.4396915435791016,0.8954314589500427,-20.2178955078125,5.4779052734375,54.8858642578125
0.0499999,-9.744400978088379,-2.3032219409942627,0.7948749661445618,-18.8446044921875,9.521484375,53.2379150390625
0.0699999,-9.916783332824707,-2.2409727573394775,0.6847416758537292,-15.2740478515625,9.429931640625,48.4161376953125
0.08999990000000001,-10.110713958740234,-2.2170307636260986,0.545877993106842,-7.5836181640625,8.7127685546875,38.0096435546875
0.10999990000000001,-10.273519515991211,-2.2194249629974365,0.40701428055763245,0.6103515625,8.026123046875,28.6865234375
0.1299999,-10.350133895874023,-2.209848165512085,0.304063618183136,5.8135986328125,4.5166015625,25.4364013671875
0.14999990000000002,-10.268731117248535,-2.190694570541382,0.27054479718208313,7.5225830078125,-0.54931640625,26.7333984375
0.1699999,-10.04846477508545,-2.1356279850006104,0.31842881441116333,7.9803466796875,-0.5340576171875,29.754638671875
0.1899999,-9.768342971801758,-2.0422539710998535,0.42377370595932007,7.9803466796875,4.82177734375,33.7371826171875
0.20999990000000002,-9.528923034667969,-1.886630892753601,0.5626373887062073,6.988525390625,7.293701171875,36.7584228515625
0.2299999,-9.375694274902344,-1.6950948238372803,0.6967126727104187,5.615234375,3.143310546875,35.247802734375
0.2499999,-9.313444137573242,-1.501164436340332,0.8212111592292786,3.8909912109375,-2.7618408203125,32.135009765625
0.2699999,-9.344569206237793,-1.3024457693099976,0.9313444495201111,0.3509521484375,-3.8299560546875,31.7230224609375
0.28999990000000003,-9.418789863586426,-1.1276689767837524,1.0199298858642578,-4.2266845703125,0.0457763671875,29.937744140625
0.3099999,-9.50498104095459,-0.9840168952941895,1.094150185585022,-8.0108642578125,3.0975341796875,25.7415771484375
0.3299999,-9.63187313079834,-0.8427590131759644,1.1324573755264282,-11.4898681640625,4.0435791015625,24.3988037109375
0.34999990000000003,-9.787496566772461,-0.7038952708244324,1.1204863786697388,-14.7705078125,6.4697265625,25.6805419921875
0.3699999,-9.943120002746582,-0.5554547905921936,1.0678139925003052,-16.4947509765625,8.6212158203125,24.5819091796875
0.3899999,-10.06043529510498,-0.40462008118629456,0.9792284965515137,-16.17431640625,10.3607177734375,20.9197998046875
0.40999990000000003,-10.35252857208252,-0.22744916379451752,0.871489405632019,-15.8843994140625,10.406494140625,21.2860107421875
0.4299999,-10.556035041809082,-0.15801730751991272,0.7709329724311829,-15.777587890625,5.2490234375,15.716552734375
0.4499999,-10.793061256408691,-0.06224924325942993,0.6775590777397156,-15.0299072265625,0.1678466796875,2.2430419921875
0.4699999,-10.8505220413208,-0.11971008777618408,0.6153098344802856,-13.275146484375,1.1444091796875,8.392333984375
0.4899999,-10.6925048828125,-0.12689268589019775,0.5650315880775452,-12.9852294921875,1.9073486328125,10.467529296875
0.5099999,-10.390835762023926,-0.19632454216480255,0.5363011956214905,-12.8631591796875,2.9144287109375,10.92529296875
0.5299999,-10.139444351196289,-0.26815059781074524,0.524330198764801,-11.8408203125,1.7547607421875,11.04736328125
0.5499999,-9.90241813659668,-0.35673606395721436,0.524330198764801,-11.8865966796875,-0.1068115234375,9.9334716796875
0.5699999,-9.854534149169922,-0.4357447028160095,0.5434837937355042,-13.519287109375,-0.2899169921875,13.2598876953125
0.5899998999999999,-9.818621635437012,-0.45489832758903503,0.5722141861915588,-14.5111083984375,2.3040771484375,17.9290771484375
0.6099998999999999,-9.854534149169922,-0.3998316824436188,0.6033388376235962,-14.70947265625,2.655029296875,20.0653076171875
0.6299999,-9.895236015319824,-0.26815059781074524,0.6177040338516235,-15.045166015625,2.2735595703125,20.660400390625
0.6499999,-9.921571731567383,-0.07900865375995636,0.6224924325942993,-16.7999267578125,3.082275390625,21.4691162109375
0.6699999,-9.938331604003906,0.13407529890537262,0.6200982332229614,-18.768310546875,4.1046142578125,21.2860107421875
0.6899999,-9.938331604003906,0.33039984107017517,0.6320692300796509,-19.8211669921875,4.7149658203125,19.622802734375
0.7099999,-9.909601211547852,0.49320554733276367,0.6344634294509888,-21.30126953125,5.615234375,19.195556640625
0.7299998999999999,-9.890447616577148,0.6248866319656372,0.6392518281936646,-22.3541259765625,6.8206787109375,18.7225341796875
0.7499998999999999,-9.873687744140625,0.7326257228851318,0.6153098344802856,-21.2554931640625,7.4005126953125,16.998291015625
0.7699999,-9.897629737854004,0.8212111592292786,0.5291185975074768,-19.1192626953125,6.5155029296875,14.46533203125
0.7899999,-9.940725326538086,0.8738836050033569,0.4118026793003082,-17.913818359375,4.2877197265625,13.6260986328125
0.8099999,-10.000580787658691,0.9145850539207458,0.2849099934101105,-19.012451171875,2.3193359375,13.0615234375
0.8299999,-10.031704902648926,0.9074024558067322,0.14604631066322327,-19.134521484375,0.6103515625,11.41357421875
0.8499998999999999,-10.0580415725708,0.8810662031173706,0.011971008032560349,-15.3656005859375,-2.777099609375,9.765625
0.8699998999999999,-10.067618370056152,0.8355764150619507,-0.10295066982507706,-9.3994140625,-8.11767578125,9.3841552734375
0.8899999,-10.065223693847656,0.7805097699165344,-0.16519992053508759,-3.936767578125,-13.031005859375,9.94873046875
0.9099999,-10.06043529510498,0.7038952708244324,-0.17477671802043915,-1.1444091796875,-16.3726806640625,9.9334716796875
0.9299999,-10.02691650390625,0.5817909836769104,-0.06224924325942993,-0.1373291015625,-18.00537109375,10.650634765625
0.9499999,-9.96945571899414,0.5506663918495178,0.17717093229293823,-0.3814697265625,-18.49365234375,13.824462890625
0.9699998999999999,-9.914389610290527,0.5506663918495178,0.4884171485900879,-4.425048828125,-16.5863037109375,16.632080078125
0.9899998999999999,-9.837775230407715,0.646434485912323,0.7757213711738586,-9.6893310546875,-13.61083984375,17.4560546875
1.0099999,-9.770736694335938,0.8547300100326538,1.0342950820922852,-10.2691650390625,-13.397216796875,16.4337158203125
1.0299999,-9.710882186889648,1.1492167711257935,1.2832920551300049,-8.331298828125,-11.688232421875,14.2364501953125
1.0499999,-9.624691009521484,1.4772224426269531,1.5322890281677246,-9.9334716796875,-5.0811767578125,10.31494140625
1.0699999,-9.59835433959961,1.7741034030914307,1.7142484188079834,-11.505126953125,3.7994384765625,4.364013671875
1.0899999,-9.610325813293457,1.965639591217041,1.8076223134994507,-7.5531005859375,5.279541015625,0.3204345703125
1.1099999,-9.653421401977539,1.9632453918457031,1.7932571172714233,-5.9967041015625,3.570556640625,-0.1678466796875
1.1299999,-9.682151794433594,1.845929503440857,1.6400281190872192,-14.6942138671875,6.9427490234375,0.3509521484375
1.1499999,-9.751583099365234,1.6112977266311646,1.5442601442337036,-27.83203125,12.939453125,-1.2969970703125
1.1699998999999999,-9.744400978088379,1.3120225667953491,1.316810965538025,-38.8946533203125,21.1334228515625,0.9002685546875
1.1899998999999999,-9.84495735168457,1.072602391242981,0.9840168952941895,-40.0543212890625,21.942138671875,6.011962890625
1.2099999,-9.943120002746582,0.7445967197418213,0.395043283700943,-24.505615234375,10.6201171875,6.8511962890625
1.2299999,-10.110713958740234,0.5530605912208557,-0.43095630407333374,9.033203125,-9.5367431640625,4.2572021484375
1.2499999,-10.228029251098633,0.4668693244457245,-0.8954314589500427,41.9158935546875,-27.5115966796875,4.08935546875
1.2699999,-10.204087257385254,0.7230489253997803,-1.0247182846069336,45.3033447265625,-34.0118408203125,5.79833984375
1.2899999,-10.113107681274414,1.0845733880996704,-0.45489832758903503,17.578125,-25.69580078125,4.9591064453125
1.3099999,-9.9000244140625,1.580173134803772,0.47405192255973816,-12.6190185546875,-12.420654296875,3.9520263671875
1.3299999,-9.66299819946289,1.9345149993896484,1.4269442558288574,-23.8494873046875,-3.2806396484375,2.5634765625
1.3499999,-9.607931137084961,2.0398597717285156,1.9393033981323242,-17.4407958984375,-3.387451171875,0.9002685546875
1.3699999,-9.583989143371582,1.9153614044189453,2.0207061767578125,-0.885009765625,-7.1258544921875,-3.72314453125
1.3899999,-9.603142738342285,1.680729627609253,1.8291701078414917,13.3514404296875,-12.3138427734375,-10.467529296875
1.4099999,-9.694122314453125,1.4748282432556152,1.6615760326385498,17.1051025390625,-8.544921875,-8.9111328125
1.4299998999999999,-9.581595420837402,1.3479355573654175,1.6519991159439087,8.4686279296875,2.777099609375,-7.476806640625
1.4499999,-9.622296333312988,1.3311761617660522,1.8339585065841675,-7.080078125,14.190673828125,-5.9661865234375
1.4699999,-9.478644371032715,1.3886369466781616,2.0183119773864746,-23.2391357421875,20.69091796875,-2.25830078125
1.4899999,-9.531316757202148,1.4269442558288574,2.0470423698425293,-36.895751953125,26.18408203125,-1.77001953125
1.5099999,-9.59835433959961,1.436521053314209,1.7525556087493896,-33.782958984375,26.641845703125,-5.279541015625
1.5299999,-9.782708168029785,1.3934253454208374,1.278503656387329,-17.4713134765625,16.8304443359375,-8.9111328125
1.5499999,-9.947908401489258,1.2473790645599365,0.7086837291717529,-2.105712890625,7.4310302734375,-10.19287109375
1.5699999,-10.08198356628418,1.1348515748977661,0.24899697303771973,8.392333984375,3.41796875,-10.4522705078125
1.5899999,-10.077195167541504,1.0319008827209473,0.1628057211637497,9.3536376953125,0.213623046875,-9.8114013671875
1.6099999,-10.014945983886719,0.9672574996948242,0.2944868206977844,-7.5225830078125,3.23486328125,-7.50732421875
1.6299999,-9.938331604003906,0.9265560507774353,0.5554547905921936,-24.0631103515625,8.2855224609375,-7.9803466796875
1.6499999,-9.916783332824707,0.9050082564353943,0.8451532125473022,-27.40478515625,13.1988525390625,-8.0718994140625
1.6699999,-9.888052940368652,0.7876923680305481,0.7398083209991455,-23.4832763671875,11.4898681640625,-6.6070556640625
1.6899998999999999,-10.089165687561035,0.5817909836769104,0.4620809257030487,-4.94384765625,1.190185546875,-6.103515625
1.7099999,-10.036493301391602,0.507570743560791,0.09816227108240128,22.7203369140625,-16.29638671875,-4.9591064453125
1.7299999,-10.137049674987793,0.4644751250743866,-0.07422025501728058,29.96826171875,-22.0184326171875,-1.5411376953125
1.7499999,-10.014945983886719,0.6033388376235962,0.10534487664699554,11.199951171875,-10.345458984375,-1.556396484375
1.7699999,-9.909601211547852,0.8212111592292786,0.6272808313369751,-7.5225830078125,-2.5634765625,-1.7852783203125
1.7899999,-9.859322547912598,0.933738648891449,1.1037269830703735,-17.39501953125,-2.044677734375,0.1373291015625
1.8099999,-9.84495735168457,0.9097966551780701,1.2665326595306396,-14.0533447265625,-2.1514892578125,1.617431640625
1.8299999,-9.931148529052734,0.7350199222564697,1.1228805780410767,3.936767578125,-7.5225830078125,1.8157958984375
1.8499999,-10.017339706420898,0.5267243981361389,0.8259995579719543,23.895263671875,-21.392822265625,1.3580322265625
1.8699999,-9.988609313964844,0.3902548849582672,0.5722141861915588,29.3731689453125,-26.55029296875,2.3651123046875
1.8899999,-9.967061996459961,0.4596867263317108,0.706289529800415,26.18408203125,-23.0560302734375,3.9215087890625
1.9099999,-9.854534149169922,0.6823474764823914,1.036689281463623,15.7928466796875,-13.8397216796875,3.692626953125
1.9299998999999999,-9.725247383117676,1.036689281463623,1.4915876388549805,-5.6610107421875,-3.2501220703125,1.4190673828125
1.9499999,-9.674968719482422,1.3551181554794312,1.9608511924743652,-22.9644775390625,5.6304931640625,1.129150390625
1.9699999,-9.59835433959961,1.5394717454910278,2.185906171798706,-26.336669921875,8.880615234375,2.1514892578125
1.9899999,-9.619902610778809,1.525106430053711,2.2577321529388428,-25.4058837890625,9.9334716796875,1.129150390625
2.0099999,-9.63187313079834,1.414973258972168,2.1308395862579346,-30.57861328125,14.984130859375,1.8463134765625
2.0299999,-9.68694019317627,1.3311761617660522,1.9823989868164062,-37.7197265625,18.4173583984375,2.5482177734375
2.0499999,-9.691728591918945,1.094150185585022,1.659181833267212,-41.229248046875,21.7742919921875,1.7242431640625
2.0699999,-9.81143856048584,0.8810662031173706,1.1803414821624756,-28.74755859375,21.484375,1.2359619140625
2.0899999,-9.9000244140625,0.48602294921875,0.524330198764801,3.2196044921875,5.7830810546875,3.4637451171875
2.1099999,-10.105925559997559,0.19632454216480255,-0.10055647045373917,35.2630615234375,-14.0533447265625,4.8980712890625
2.1299999,-10.232817649841309,-0.033518824726343155,-0.5889736413955688,52.276611328125,-26.1383056640625,0.885009765625
2.1499999,-10.254365921020508,0.1364694982767105,-0.4596867263317108,54.1839599609375,-31.768798828125,1.89208984375
2.1699999,-10.070012092590332,0.6177040338516235,0.16519992053508759,31.524658203125,-21.8658447265625,4.974365234375
2.1899999,-9.852140426635742,1.3287819623947144,1.1061211824417114,-5.3863525390625,-4.94384765625,2.2735595703125
2.2099999,-9.53849983215332,1.9584569931030273,2.056619167327881,-33.26416015625,11.65771484375,-3.9520263671875
2.2299999,-9.411606788635254,2.300827741622925,2.6384103298187256,-39.306640625,18.9361572265625,-6.134033203125
2.2499999,-9.3828763961792,2.121262788772583,2.6839001178741455,-34.027099609375,19.1192626953125,-5.5694580078125
2.2699999,-9.576807022094727,1.6160861253738403,2.1954829692840576,-23.3306884765625,16.632080078125,-3.8299560546875
2.2899999,-9.744400978088379,0.9840168952941895,1.5897499322891235,-9.1094970703125,8.697509765625,0.396728515625
2.3099999,-9.926360130310059,0.48602294921875,1.0797849893569946,-3.3416748046875,2.7923583984375,3.6468505859375
2.3299999,-10.012551307678223,0.21308395266532898,0.751779317855835,-11.3067626953125,5.9356689453125,6.4544677734375
2.3499999,-10.02452278137207,0.1604115068912506,0.6009446382522583,-12.4969482421875,7.5836181640625,8.1329345703125
2.3699999,-10.101137161254883,0.2537853717803955,0.47884035110473633,0.6866455078125,-0.48828125,8.7127685546875
2.3899999,-10.031704902648926,0.49320554733276367,0.3974374830722809,11.8560791015625,-10.2996826171875,5.2337646484375
2.4099999,-10.02452278137207,0.7661445140838623,0.4213795065879822,11.8408203125,-11.810302734375,1.1444091796875
2.4299999,-9.928754806518555,1.1324573755264282,0.6919242739677429,8.514404296875,-7.537841796875,0.5950927734375
2.4499999,-9.813833236694336,1.4053963422775269,1.1348515748977661,-2.4871826171875,-1.3275146484375,1.8157958984375
2.4699999,-9.72285270690918,1.5682021379470825,1.5514427423477173,-18.0206298828125,8.1634521484375,-0.2288818359375
2.4899999,-9.679757118225098,1.5418659448623657,1.944091796875,-21.148681640625,14.09912109375,-1.4495849609375
2.5099999,-9.63187313079834,1.3742717504501343,1.920149803161621,-13.6260986328125,15.5029296875,0.9918212890625
2.5299999,-9.68933391571045,1.0821791887283325,1.659181833267212,-2.4871826171875,13.9007568359375,1.312255859375
2.5499999,-9.84256362915039,0.828393816947937,1.2090718746185303,9.8419189453125,3.2196044921875,2.7008056640625
2.5699999,-9.832986831665039,0.8236053586006165,0.7996633648872375,12.5732421875,-0.946044921875,2.6702880859375
2.5899999,-9.921571731567383,0.8355764150619507,0.5482721924781799,5.279541015625,0.3204345703125,1.251220703125
2.6099999,-9.93354320526123,0.9145850539207458,0.4429273009300232,-1.3275146484375,0.4425048828125,3.6773681640625
2.6299999,-9.919178009033203,0.933738648891449,0.5003881454467773,-0.2288818359375,-6.011962890625,5.615234375
2.6499999,-9.988609313964844,0.8882488012313843,0.5123591423034668,3.11279296875,-6.7291259765625,1.2969970703125
2.6699999,-10.036493301391602,0.8690952062606812,0.6607996821403503,4.852294921875,-5.7525634765625,4.39453125
2.6899999,-9.931148529052734,1.0199298858642578,0.8810662031173706,-3.143310546875,-3.6163330078125,6.0577392578125
2.7099999,-9.832986831665039,1.2306196689605713,1.2066776752471924,-12.26806640625,0.640869140625,1.6326904296875
2.7299999,-9.725247383117676,1.45806884765625,1.4724340438842773,-15.8233642578125,8.575439453125,0.2593994140625
2.7499999,-9.653421401977539,1.5705963373184204,1.5921441316604614,-14.312744140625,13.7786865234375,-0.1373291015625
2.7699999,-9.658209800720215,1.5705963373184204,1.5275006294250488,-7.232666015625,4.1656494140625,0.2593994140625
2.7899999,-9.751583099365234,1.4221558570861816,1.1971008777618408,2.3345947265625,1.6632080078125,-3.11279296875
2.8099999,-9.871294021606445,1.1803414821624756,0.8762778043746948,15.2587890625,-2.3193359375,-4.119873046875
2.8299999,-9.888052940368652,1.0055646896362305,0.6607996821403503,18.890380859375,-10.0555419921875,-1.8157958984375
2.8499999,-9.983820915222168,0.9600749015808105,0.6536170840263367,7.293701171875,-8.209228515625,-2.532958984375
2.8699999,-9.911994934082031,0.9983820915222168,0.9265560507774353,-8.2855224609375,1.2664794921875,-3.47900390625
2.8899999,-9.806650161743164,1.1228805780410767,1.1635819673538208,-16.4642333984375,8.48388671875,-3.692626953125
2.9099999,-9.775525093078613,1.1827356815338135,1.4101848602294922,-14.7857666015625,8.880615234375,-4.2266845703125
2.9299999,-9.694122314453125,1.2018892765045166,1.436521053314209,-11.0321044921875,9.7503662109375,-0.06103515625
2.9499999,-9.703699111938477,1.216254472732544,1.4460978507995605,-10.2386474609375,8.85009765625,0.823974609375
2.9699999,-9.75397777557373,1.237802267074585,1.4867992401123047,-15.167236328125,11.2457275390625,-2.8533935546875
2.9899999,-9.773131370544434,1.2330138683319092,1.3718775510787964,-26.3824462890625,16.66259765625,-3.021240234375
3.0099999,-9.907206535339355,1.1085153818130493,1.1851298809051514,-21.66748046875,15.2435302734375,-0.8087158203125
3.0299999,-9.928754806518555,1.0247182846069336,0.7182605266571045,-6.5460205078125,5.4473876953125,-0.335693359375
3.0499999,-10.098742485046387,0.8259995579719543,0.31842881441116333,-0.2288818359375,-2.8839111328125,-1.251220703125
3.0699999,-10.074800491333008,0.7206547260284424,0.033518824726343155,-0.6103515625,-6.378173828125,-1.9989013671875
3.0899999,-10.194510459899902,0.6631938815116882,0.038307227194309235,-4.0283203125,-4.8828125,-0.9307861328125
3.1099999,-10.074800491333008,0.6488286852836609,0.12928688526153564,1.708984375,-8.453369140625,1.3885498046875
3.1299999,-10.043676376342773,0.7230489253997803,0.40701428055763245,16.5557861328125,-15.411376953125,-0.8392333984375
3.1499999,-9.847352027893066,0.9672574996948242,0.790086567401886,13.97705078125,-10.3759765625,-0.7781982421875
3.1699999,-9.66539192199707,1.3192051649093628,1.3766659498214722,-10.2691650390625,3.41796875,1.15966796875
3.1899999,-9.533711433410645,1.4963760375976562,1.922544002532959,-33.4014892578125,16.1895751953125,-0.030517578125
3.2099999,-9.521739959716797,1.5203180313110352,2.190694570541382,-35.1715087890625,22.15576171875,-0.4425048828125
3.2299999,-9.610325813293457,1.2761094570159912,1.8722656965255737,-15.31982421875,16.1895751953125,0.4730224609375
3.2499999,-9.818621635437012,0.9313444495201111,1.1994950771331787,7.2479248046875,1.5106201171875,2.38037109375
3.2699999,-10.096348762512207,0.6440402865409851,0.2944868206977844,16.54052734375,-7.0343017578125,-1.0528564453125
3.2899999,-10.244789123535156,0.646434485912323,-0.3208230137825012,23.8800048828125,-17.730712890625,1.3885498046875
3.3099999,-10.266336441040039,0.6943184733390808,-0.4141969084739685,19.04296875,-23.773193359375,-2.227783203125
3.3299999000000002,-10.225635528564453,0.8738836050033569,-0.10055647045373917,8.1634521484375,-16.54052734375,-6.40869140625
3.3499999,-9.914389610290527,0.9385270476341248,0.4596867263317108,7.38525390625,-12.8631591796875,-4.0130615234375
3.3699999,-9.84256362915039,0.9241618514060974,0.9792284965515137,12.14599609375,-7.4005126953125,1.312255859375
3.3899999,-9.651026725769043,0.8954314589500427,1.3694833517074585,16.6168212890625,-12.3138427734375,5.31005859375
3.4099999,-9.634267807006836,0.9576807022094727,1.745373010635376,12.4359130859375,-8.9111328125,3.1890869140625
3.4299999,-9.62947940826416,1.1180921792984009,1.9297266006469727,-2.3193359375,3.4027099609375,1.5411376953125
3.4499999,-9.6989107131958,1.3096283674240112,1.9800047874450684,-11.077880859375,10.589599609375,0.42724609375
3.4699999,-9.782708168029785,1.3910311460494995,1.6927006244659424,-2.838134765625,0.7476806640625,-0.640869140625
3.4899999,-9.981427192687988,1.3479355573654175,1.1420341730117798,12.6953125,-7.965087890625,-3.2806396484375
3.5099999,-9.995792388916016,1.1348515748977661,0.6344634294509888,25.726318359375,-19.8211669921875,-8.8653564453125
3.5299999,-9.816226959228516,1.115697979927063,0.9361328482627869,11.6424560546875,-5.43212890625,-8.5296630859375
3.5499999,-9.6989107131958,1.137245774269104,1.5203180313110352,-3.0364990234375,6.04248046875,-6.866455078125
3.5699999,-9.526528358459473,1.1875240802764893,2.1045033931732178,-7.6904296875,12.20703125,-6.40869140625
3.5899999,-9.516951560974121,1.2401964664459229,2.5546131134033203,-16.326904296875,21.1334228515625,-5.401611328125
3.6099999,-9.437943458557129,1.3096283674240112,2.6384103298187256,-34.0728759765625,33.02001953125,-3.7689208984375
3.6299999,-9.536105155944824,1.3646949529647827,2.6240451335906982,-44.8455810546875,34.820556640625,-3.11279296875
3.6499999,-9.533711433410645,1.4245500564575195,2.2146365642547607,-56.0455322265625,40.1153564453125,-3.60107421875
3.6699999,-9.75397777557373,1.194706678390503,1.4460978507995605,-60.3485107421875,42.3583984375,-5.5084228515625
3.6899999,-9.986215591430664,0.8236053586006165,0.5051765441894531,-35.186767578125,25.57373046875,-4.4097900390625
3.7099999,-10.228029251098633,0.35913026332855225,-0.7613561153411865,6.1492919921875,-0.9307861328125,-0.9918212890625
3.7299999,-10.467450141906738,-0.11252748221158981,-1.6759412288665771,39.764404296875,-26.0772705078125,-0.885009765625
3.7499999,-10.553641319274902,-0.26815059781074524,-2.233790159225464,61.09619140625,-43.121337890625,-4.6539306640625
3.7699999,-10.448296546936035,-0.10534487664699554,-1.8171991109848022,66.9097900390625,-48.5076904296875,-3.6163330078125
3.7899999,-10.180145263671875,0.36152446269989014,-0.7374141216278076,48.5687255859375,-38.360595703125,-3.1585693359375
3.8099999,-9.801861763000488,0.871489405632019,0.8595184087753296,15.960693359375,-18.890380859375,-3.47900390625
3.8299999000000002,-9.44752025604248,1.3096283674240112,2.296039342880249,-11.4593505859375,0.8087158203125,-1.373291015625
3.8499999,-9.277531623840332,1.4772224426269531,3.3207578659057617,-18.6309814453125,10.772705078125,0.6256103515625
3.8699999,-9.258378028869629,1.482010841369629,3.552995204925537,-19.073486328125,15.899658203125,1.3580322265625
3.8899999,-9.44752025604248,1.3287819623947144,3.0789434909820557,-24.1851806640625,24.2767333984375,-1.556396484375
3.9099999,-9.62947940826416,1.237802267074585,2.365471363067627,-18.096923828125,16.0064697265625,-2.3193359375
3.9299999,-9.761159896850586,1.1037269830703735,1.6208745241165161,-18.12744140625,11.8560791015625,-2.227783203125
3.9499999,-9.909601211547852,0.8020575642585754,0.871489405632019,-26.1993408203125,16.845703125,-0.79345703125
3.9699999,-10.067618370056152,0.40701428055763245,0.26575639843940735,-13.12255859375,10.2081298828125,2.1209716796875
3.9899999,-10.230423927307129,-0.014365210197865963,-0.3878606855869293,18.85986328125,-9.1400146484375,5.67626953125
4.0099999,-10.383652687072754,-0.30885201692581177,-0.8858546018600464,48.5992431640625,-29.7698974609375,8.2855224609375
4.029999900000001,-10.359710693359375,-0.2059013396501541,-0.9409212470054626,59.1278076171875,-41.595458984375,4.9285888671875
4.0499999,-10.235212326049805,0.26336219906806946,-0.42616790533065796,44.73876953125,-33.8287353515625,1.8157958984375
4.069999900000001,-9.904812812805176,0.9911994934082031,0.5793967843055725,17.120361328125,-21.3165283203125,3.509521484375
4.0899999000000005,-9.591172218322754,1.7142484188079834,1.8124107122421265,-11.4288330078125,-5.4779052734375,0.3204345703125
4.1099999,-9.375694274902344,2.10210919380188,2.8371291160583496,-34.24072265625,11.016845703125,-3.5400390625
4.1299999000000005,-9.205705642700195,2.1140801906585693,3.4548330307006836,-45.4254150390625,24.566650390625,-3.7841796875
4.1499999,-9.282320022583008,1.702277421951294,3.5194764137268066,-40.9088134765625,30.57861328125,-2.2430419921875
4.1699999000000005,-9.452308654785156,1.1420341730117798,2.896984100341797,-26.7181396484375,32.135009765625,0
4.1899999,-9.66539192199707,0.6655880808830261,1.9249382019042969,-4.3792724609375,21.5301513671875,1.129150390625
4.209999900000001,-9.919178009033203,0.3878606855869293,0.8523358106613159,9.918212890625,5.8441162109375,1.8463134765625
4.2299999,-10.098742485046387,0.3687070608139038,0.13407529890537262,4.7149658203125,2.838134765625,1.6021728515625
4.249999900000001,-10.230423927307129,0.43095630407333374,-0.31603461503982544,-1.3275146484375,1.5869140625,-0.18310546875
4.2699999,-10.24239444732666,0.5027823448181152,-0.3663128614425659,7.3394775390625,-6.16455078125,-0.213623046875
4.289999900000001,-10.218452453613281,0.5674257874488831,-0.3256114423274994,21.0418701171875,-17.669677734375,-2.3651123046875
4.3099999,-10.086771965026855,0.7254431247711182,0.021547814831137657,29.754638671875,-20.5078125,-1.4801025390625
4.329999900000001,-9.907206535339355,0.9528923034667969,0.6727706789970398,15.350341796875,-12.6495361328125,-1.0986328125
4.3499999,-9.725247383117676,1.2018892765045166,1.4939818382263184,-11.65771484375,4.302978515625,-6.378173828125
4.369999900000001,-9.550470352172852,1.3503297567367554,2.4157495498657227,-30.548095703125,15.2740478515625,-3.753662109375
4.3899999,-9.519346237182617,1.1971008777618408,2.765302896499634,-43.1060791015625,31.6314697265625,1.0833740234375
4.409999900000001,-9.600749015808105,0.9313444495201111,2.494758129119873,-32.806396484375,30.5023193359375,5.9051513671875
4.4299999,-9.737217903137207,0.5626373887062073,1.625662922859192,-2.0751953125,11.8865966796875,6.40869140625
4.449999900000001,-9.986215591430664,0.3232172429561615,0.49799394607543945,28.1219482421875,-5.889892578125,2.44140625
4.4699999,-10.11789608001709,0.35913026332855225,-0.3064578175544739,41.2445068359375,-19.256591796875,0.06103515625
4.489999900000001,-10.146626472473145,0.6536170840263367,-0.667982280254364,30.5328369140625,-20.81298828125,-3.4942626953125
4.5099999,-10.17296314239502,1.1420341730117798,-0.2585737705230713,7.1258544921875,-12.0697021484375,-5.584716796875
4.529999900000001,-9.943120002746582,1.5634137392044067,0.45010992884635925,-22.705078125,-2.410888671875,-6.683349609375
4.5499999,-9.770736694335938,1.6160861253738403,1.2210428714752197,-39.337158203125,7.659912109375,-11.3677978515625
4.569999900000001,-9.677363395690918,1.2737152576446533,1.7262194156646729,-28.167724609375,8.4686279296875,-8.8348388671875
4.5899999000000005,-9.751583099365234,0.5722141861915588,1.699883222579956,-5.7525634765625,6.866455078125,2.6397705078125
4.609999900000001,-9.888052940368652,-0.15322890877723694,1.357512354850769,18.1884765625,-6.6680908203125,12.7410888671875
4.6299999000000005,-10.017339706420898,-0.4596867263317108,0.8164227604866028,33.1573486328125,-16.937255859375,15.0909423828125
4.6499999,-10.101137161254883,-0.38067805767059326,0.545877993106842,35.9649658203125,-18.9666748046875,11.23046875
4.6699999000000005,-9.945513725280762,0.24899697303771973,0.6416460275650024,18.9056396484375,-15.472412109375,10.25390625
4.6899999,-9.770736694335938,1.0893617868423462,1.1994950771331787,-17.0135498046875,-5.279541015625,7.50732421875
4.709999900000001,-9.526528358459473,1.9752163887023926,1.9081788063049316,-56.8084716796875,15.93017578125,2.4566650390625
4.7299999,-9.478644371032715,2.403778553009033,2.434903144836426,-84.1827392578125,33.233642578125,-1.7852783203125
4.749999900000001,-9.394847869873047,2.229001760482788,2.38462495803833,-70.4498291015625,31.1126708984375,-4.4708251953125
4.7699999,-9.674968719482422,1.4437036514282227,1.9632453918457031,-23.1170654296875,16.3421630859375,-4.2877197265625
4.789999900000001,-9.895236015319824,0.395043283700943,1.1635819673538208,22.94921875,6.6070556640625,6.65283203125
4.8099999,-10.034099578857422,-0.24899697303771973,0.5602431893348694,39.0625,0.2593994140625,13.1378173828125
4.829999900000001,-10.170568466186523,-0.31364041566848755,0.05985504388809204,23.712158203125,0.6103515625,10.43701171875
4.8499999,-10.235212326049805,0.22266076505184174,-0.2968810200691223,15.2587890625,-5.6610107421875,5.950927734375
4.869999900000001,-10.225635528564453,0.8738836050033569,-0.4213795065879822,27.16064453125,-22.9949951171875,-1.2969970703125
4.8899999,-10.129867553710938,1.4101848602294922,-0.2825157940387726,33.3709716796875,-29.5257568359375,-9.368896484375
4.909999900000001,-9.964667320251465,1.6208745241165161,0.35434186458587646,17.4407958984375,-20.2789306640625,-8.880615234375
4.9299999,-9.739612579345703,1.6184803247451782,1.314416766166687,-12.8326416015625,0.1220703125,-1.251220703125
4.949999900000001,-9.550470352172852,1.522712230682373,2.1978771686553955,-31.463623046875,12.9241943359375,4.0435791015625
4.9699999,-9.526528358459473,1.3120225667953491,2.7437551021575928,-32.9437255859375,16.693115234375,3.9825439453125
4.989999900000001,-9.567230224609375,1.1683704853057861,2.715024709701538,-33.4930419921875,25.0244140625,-0.79345703125
5.0099999,-9.66299819946289,0.9768342971801758,2.126051187515259,-33.63037109375,22.3388671875,1.9073486328125
5.029999900000001,-9.799467086791992,0.7948749661445618,1.2210428714752197,-21.5301513671875,9.0179443359375,4.6234130859375
5.0499999,-10.029311180114746,0.49799394607543945,0.08379705995321274,0.0152587890625,-5.2337646484375,5.3863525390625
5.069999900000001,-10.220847129821777,0.2992752194404602,-0.8140285611152649,25.634765625,-26.3824462890625,7.9345703125
5.0899999000000005,-10.29746150970459,0.26336219906806946,-1.1659762859344482,44.464111328125,-44.0521240234375,4.8675537109375
5.109999900000001,-10.290278434753418,0.6272808313369751,-0.5650315880775452,40.6494140625,-41.1376953125,-0.213623046875
5.1299999000000005,-9.904812812805176,1.1827356815338135,0.6991068720817566,5.126953125,-15.4571533203125,-1.8310546875
5.1499999,-9.586383819580078,1.8291701078414917,2.3104045391082764,-35.552978515625,15.472412109375,-3.5552978515625
5.1699999000000005,-9.191340446472168,2.1811177730560303,3.576937437057495,-52.825927734375,26.2451171875,-2.5482177734375
5.1899999,-9.100360870361328,2.123656988143921,3.971980571746826,-54.8095703125,42.8314208984375,-5.9051513671875
5.209999900000001,-9.253589630126953,1.6112977266311646,3.361459255218506,-37.109375,40.8172607421875,-6.4697265625
5.2299999,-9.567230224609375,0.871489405632019,2.049436569213867,-5.8746337890625,18.3258056640625,1.8310546875
5.249999900000001,-10.010157585144043,0.15083470940589905,0.4118026793003082,21.17919921875,-1.1444091796875,7.1868896484375
5.2699999,-10.33098030090332,-0.21547815203666687,-0.9361328482627869,42.877197265625,-22.5982666015625,9.2010498046875
5.289999900000001,-10.448296546936035,-0.10295066982507706,-1.5682021379470825,50.35400390625,-36.865234375,1.983642578125
5.3099999,-10.371682167053223,0.5195417404174805,-1.2401964664459229,38.4368896484375,-34.820556640625,-4.974365234375
5.329999900000001,-9.99339771270752,1.2521674633026123,-0.14365209639072418,8.4381103515625,-19.3023681640625,-5.2642822265625
5.3499999,-9.641449928283691,1.802833914756775,1.3407529592514038,-26.67236328125,3.1280517578125,-4.1351318359375
5.369999900000001,-9.299078941345215,1.9919757843017578,2.784456491470337,-55.3131103515625,19.287109375,1.6632080078125
5.3899999,-9.2033109664917,1.8602946996688843,3.4763808250427246,-74.8138427734375,36.712646484375,8.3465576171875
5.409999900000001,-9.373299598693848,1.4508862495422363,3.2106244564056396,-59.2193603515625,35.736083984375,6.927490234375
5.4299999,-9.68933391571045,0.9696516990661621,2.075772762298584,-13.7481689453125,13.7786865234375,0.396728515625
5.449999900000001,-10.014945983886719,0.49799394607543945,0.5817909836769104,31.951904296875,-11.688232421875,-1.4190673828125
5.4699999,-10.180145263671875,0.23942017555236816,-0.36152446269989014,58.3953857421875,-30.1513671875,-2.197265625
5.489999900000001,-10.125079154968262,0.3447650372982025,-0.3471592366695404,43.1671142578125,-23.4832763671875,-0.3662109375
5.5099999,-9.773131370544434,0.8954314589500427,0.6631938815116882,-4.486083984375,3.2501220703125,-0.42724609375
5.529999900000001,-9.418789863586426,1.5969325304031372,1.9560627937316895,-60.6536865234375,34.1796875,-2.4261474609375
5.5499999,-8.990227699279785,1.9488801956176758,2.5761611461639404,-89.8895263671875,52.18505859375,-2.01416015625
5.569999900000001,-8.655038833618164,1.5322890281677246,2.2002713680267334,-55.9844970703125,36.102294921875,1.1749267578125
5.5899999000000005,-8.178592681884766,0.4644751250743866,0.9361328482627869,17.5323486328125,-4.791259765625,7.2479248046875
5.609999900000001,-8.015787124633789,-0.8427590131759644,-0.31124621629714966,77.4993896484375,-31.18896484375,21.9879150390625
5.6299999000000005,-8.286332130432129,-1.2880805730819702,-0.912190854549408,97.4884033203125,-33.935546875,31.1737060546875
5.6499999,-9.126696586608887,-0.4884171485900879,-0.33758243918418884,69.5343017578125,-16.815185546875,32.8216552734375
5.6699999000000005,-10.287884712219238,1.4772224426269531,0.9911994934082031,6.6680908203125,11.2762451171875,15.1824951171875
5.6899999,-11.161767959594727,3.7014358043670654,2.0901381969451904,-67.413330078125,44.342041015625,-14.801025390625
5.709999900000001,-11.587936401367188,4.8482584953308105,2.2625205516815186,-99.7467041015625,49.285888671875,-30.94482421875
5.7299999,-11.710040092468262,4.264073371887207,1.3958195447921753,-61.7218017578125,20.0653076171875,-31.2957763671875
5.749999900000001,-11.441889762878418,2.3056161403656006,-0.05506663769483566,6.4849853515625,-26.06201171875,-11.3372802734375
5.7699999,-11.286267280578613,-0.10534487664699554,-1.070208191871643,57.7392578125,-51.7730712890625,15.7928466796875
5.789999900000001,-10.90558910369873,-1.742978811264038,-1.2258312702178955,75.50048828125,-47.36328125,26.336669921875
5.8099999,-10.266336441040039,-1.8195933103561401,-0.40701428055763245,64.94140625,-32.8826904296875,29.4647216796875
5.829999900000001,-9.799467086791992,-0.5602431893348694,0.8307880163192749,32.65380859375,-13.0157470703125,24.71923828125
5.8499999,-9.205705642700195,1.335964560508728,2.1475989818573,-3.4027099609375,9.857177734375,5.6915283203125
5.869999900000001,-8.951920509338379,3.0358476638793945,2.959233283996582,-28.961181640625,27.2064208984375,-15.2435302734375
5.8899999,-8.959102630615234,3.7445313930511475,3.1316158771514893,-38.2537841796875,32.5469970703125,-18.73779296875
5.909999900000001,-9.193734169006348,3.3446998596191406,2.5043349266052246,-26.458740234375,24.017333984375,-14.4195556640625
5.9299999,-9.591172218322754,2.1930887699127197,1.4413094520568848,2.4566650390625,6.7901611328125,-5.859375
5.949999900000001,-9.99100399017334,0.9145850539207458,0.45489832758903503,30.517578125,-10.528564453125,5.2337646484375
5.9699999,-10.369287490844727,0.05746084079146385,-0.12449848651885986,36.80419921875,-14.46533203125,12.0697021484375
5.989999900000001,-10.735600471496582,-0.004788403399288654,-0.1412578970193863,25.5889892578125,-9.5672607421875,11.810302734375
6.0099999,-10.833763122558594,0.5099649429321289,0.2298433631658554,11.5203857421875,-5.79833984375,7.904052734375
6.029999900000001,-10.572794914245605,1.3431471586227417,0.6536170840263367,0.091552734375,-2.13623046875,-0.1983642578125
6.0499999,-10.139444351196289,1.9823989868164062,1.0414776802062988,-7.0648193359375,-1.9073486328125,-8.514404296875
6.069999900000001,-9.959878921508789,2.3032219409942627,1.3503297567367554,-11.962890625,-0.0457763671875,-11.3525390625
6.0899999000000005,-10.036493301391602,2.166752576828003,1.5203180313110352,-16.6778564453125,6.072998046875,-6.28662109375
6.109999900000001,-9.99100399017334,1.7357962131500244,1.525106430053711,-16.6473388671875,7.720947265625,4.2572021484375
6.1299999000000005,-9.646238327026367,1.256955862045288,1.4197616577148438,-6.5765380859375,0.8087158203125,5.1727294921875
6.149999900000001,-9.026140213012695,0.8355764150619507,1.2401964664459229,6.8206787109375,-0.9613037109375,-2.227783203125
6.1699999000000005,-8.59997272491455,0.689530074596405,1.1180921792984009,10.955810546875,5.4931640625,-0.79345703125
6.1899999,-8.69334602355957,0.8044517636299133,1.094150185585022,4.5166015625,8.4381103515625,6.2713623046875
6.209999900000001,-9.102754592895508,1.0773907899856567,1.0965443849563599,-2.5177001953125,4.486083984375,4.241943359375
6.2299999,-9.524134635925293,1.3646949529647827,1.0295066833496094,-1.7852783203125,4.69970703125,-1.64794921875
6.249999900000001,-9.792284965515137,1.4437036514282227,0.9217676520347595,4.2724609375,6.195068359375,-3.082275390625
6.2699999,-9.955090522766113,1.316810965538025,0.8259995579719543,6.927490234375,2.0751953125,3.0975341796875
6.289999900000001,-10.050858497619629,1.1061211824417114,0.7709329724311829,5.126953125,-1.9683837890625,10.9100341796875
6.3099999,-10.070012092590332,1.0247182846069336,0.768538773059845,5.06591796875,0.0152587890625,13.031005859375
6.329999900000001,-9.979032516479492,1.1420341730117798,0.7709329724311829,7.415771484375,1.9073486328125,8.331298828125
6.3499999,-9.84495735168457,1.4939818382263184,0.7996633648872375,6.439208984375,-2.4261474609375,2.1820068359375
6.369999900000001,-9.720458984375,1.920149803161621,0.9241618514060974,-2.0294189453125,-3.0364990234375,-3.3111572265625
6.3899999,-9.62947940826416,2.2194249629974365,1.091755986213684,-18.218994140625,7.0343017578125,-7.232666015625
6.409999900000001,-9.658209800720215,2.250549554824829,1.2545616626739502,-27.28271484375,13.824462890625,-8.758544921875
6.4299999,-9.80904483795166,1.9919757843017578,1.3215993642807007,-23.8494873046875,10.7421875,-6.1187744140625
6.449999900000001,-9.995792388916016,1.501164436340332,1.1683704853057861,-14.4500732421875,7.3089599609375,0.9002685546875
6.4699999,-10.079588890075684,1.0055646896362305,0.9097966551780701,0.48828125,2.74658203125,4.39453125
6.489999900000001,-10.213664054870605,0.7493851184844971,0.6607996821403503,15.3350830078125,-1.03759765625,4.0740966796875
6.5099999,-10.503362655639648,0.7398083209991455,0.4644751250743866,19.9127197265625,-7.0037841796875,1.434326171875
6.529999900000001,-10.711658477783203,1.0606313943862915,0.4572925269603729,16.998291015625,-9.33837890625,-1.434326171875
6.5499999,-10.577583312988281,1.3862427473068237,0.5315127968788147,12.054443359375,-6.011962890625,3.5400390625
6.569999900000001,-10.220847129821777,1.7597382068634033,0.8020575642585754,3.5552978515625,-3.7994384765625,-4.302978515625
6.5899999000000005,-9.576807022094727,1.8698714971542358,1.0534487962722778,-3.41796875,0.6561279296875,-13.031005859375
6.609999900000001,-9.167398452758789,1.8124107122421265,1.3096283674240112,-7.1258544921875,4.9591064453125,-5.18798828125
6.6299999000000005,-9.191340446472168,1.5442601442337036,1.4724340438842773,-11.810302734375,8.2855224609375,3.0059814453125
6.649999900000001,-9.354146003723145,1.3120225667953491,1.4317326545715332,-14.7857666015625,9.918212890625,5.6915283203125
6.6699999000000005,-9.651026725769043,1.1348515748977661,1.2689268589019775,-8.2244873046875,8.270263671875,3.662109375
6.6899999,-10.376470565795898,1.2713210582733154,1.0127472877502441,2.044677734375,4.2877197265625,0.1983642578125
6.709999900000001,-11.39161205291748,1.4748282432556152,0.7206547260284424,4.791259765625,0.8544921875,-8.23974609375
6.7299999,-12.981361389160156,1.8052281141281128,0.4884171485900879,3.326416015625,-4.1046142578125,-9.7198486328125
6.749999900000001,-14.020444869995117,2.1140801906585693,0.21308395266532898,10.4827880859375,-16.2506103515625,-21.6064453125
6.7699999,-14.750677108764648,2.27209734916687,0.0933738648891449,24.0631103515625,-32.5164794921875,-28.594970703125
6.789999900000001,-14.022839546203613,2.319981336593628,0.028730420395731926,30.731201171875,-70.220947265625,-30.9906005859375
6.8099999,-12.531251907348633,2.1954829692840576,0.19871874153614044,35.9649658203125,-51.2237548828125,-26.7181396484375
6.829999900000001,-10.615890502929688,2.0638017654418945,0.5506663918495178,35.21728515625,0,-15.5181884765625
6.8499999,-8.820239067077637,1.9584569931030273,0.9959878921508789,21.5301513671875,20.1416015625,-13.85498046875
6.869999900000001,-7.613561630249023,1.9273324012756348,1.4197616577148438,2.899169921875,15.5181884765625,-19.775390625
6.8899999,-7.053318023681641,1.922544002532959,1.699883222579956,-10.19287109375,17.8070068359375,-26.2603759765625
6.909999900000001,-6.801927089691162,1.7836803197860718,1.7836803197860718,-14.984130859375,24.7802734375,-33.5235595703125
6.9299999,-6.751648902893066,1.45806884765625,1.623268723487854,-10.1470947265625,38.055419921875,-34.423828125
6.949999900000001,-6.852205276489258,0.9959878921508789,1.2856862545013428,2.838134765625,45.9747314453125,-24.871826171875
6.9699999,-7.137115478515625,0.4668693244457245,0.8667010068893433,16.0064697265625,27.0538330078125,-14.7552490234375
6.989999900000001,-7.623138427734375,0.019153613597154617,0.5027823448181152,27.9083251953125,-2.44140625,-12.63427734375
7.0099999,-8.238448143005371,-0.26815059781074524,0.3016694188117981,40.7867431640625,-9.6435546875,-20.32470703125
7.029999900000001,-8.846575736999512,-0.3734954595565796,0.31124621629714966,51.1474609375,2.0599365234375,-32.89794921875
7.0499999,-9.41400146484375,-0.28730419278144836,0.507570743560791,55.023193359375,7.720947265625,-44.8150634765625
7.069999900000001,-9.78989028930664,-0.090979665517807,0.8355764150619507,52.1240234375,1.2359619140625,-55.7098388671875
7.0899999000000005,-9.950302124023438,0.1149216815829277,1.1994950771331787,47.5921630859375,1.8310546875,-58.9599609375
7.109999900000001,-9.890447616577148,0.26815059781074524,1.4987702369689941,45.3948974609375,13.824462890625,-51.055908203125
7.1299999000000005,-9.68694019317627,0.28730419278144836,1.6879122257232666,45.7763671875,20.3094482421875,-44.5709228515625
7.149999900000001,-9.600749015808105,0.10055647045373917,1.659181833267212,45.0897216796875,-0.8697509765625,-57.06787109375
7.1699999000000005,-9.734824180603027,-0.031124621629714966,1.5490485429763794,44.6929931640625,-11.3525390625,-71.6552734375
7.1899999,-9.9000244140625,-0.14604631066322327,1.4389152526855469,45.440673828125,-3.96728515625,-82.7178955078125
7.209999900000001,-9.971850395202637,-0.2825157940387726,1.3479355573654175,46.112060546875,5.1422119140625,-88.68408203125
7.2299999,-9.909601211547852,-0.4644751250743866,1.2641384601593018,45.1507568359375,-2.0599365234375,-89.6759033203125
7.249999900000001,-9.708487510681152,-0.7134721279144287,1.1827356815338135,44.73876953125,-11.8408203125,-86.7156982421875
7.2699999,-9.411606788635254,-1.039083480834961,1.1061211824417114,47.66845703125,-3.387451171875,-84.136962890625
7.289999900000001,-9.133879661560059,-1.3718775510787964,1.05105459690094,52.4139404296875,14.404296875,-85.3729248046875
7.3099999,-8.935160636901855,-1.742978811264038,1.0127472877502441,55.1605224609375,16.3726806640625,-90.2557373046875
7.329999900000001,-8.87291145324707,-2.0853497982025146,1.015141487121582,54.7332763671875,2.105712890625,-89.2486572265625
7.3499999,-8.87291145324707,-2.427720546722412,1.036689281463623,52.91748046875,-2.3193359375,-82.8857421875
7.369999900000001,-8.89445972442627,-2.760514497756958,1.0965443849563599,52.3834228515625,4.2572021484375,-79.0557861328125
7.3899999,-8.949525833129883,-3.0382418632507324,1.173158884048462,50.5523681640625,7.5225830078125,-79.4219970703125
7.409999900000001,-9.006986618041992,-3.287238836288452,1.2521674633026123,45.3338623046875,-1.2359619140625,-83.5418701171875
7.4299999,-9.028534889221191,-3.529053211212158,1.338358759880066,38.5284423828125,-11.9781494140625,-85.02197265625
7.449999900000001,-8.973467826843262,-3.7876269817352295,1.4221558570861816,32.806396484375,-9.0789794921875,-81.8328857421875
7.4699999,-8.87051773071289,-4.0533833503723145,1.479616641998291,28.0303955078125,0.8544921875,-79.5440673828125
7.489999900000001,-8.743624687194824,-4.292803764343262,1.4915876388549805,22.7813720703125,2.4261474609375,-82.09228515625
7.5099999,-8.607154846191406,-4.501099109649658,1.45806884765625,17.547607421875,-6.072998046875,-84.6405029296875
7.529999900000001,-8.413225173950195,-4.692635536193848,1.3910311460494995,12.5885009765625,-12.1917724609375,-80.1239013671875
7.5499999,-8.1139497756958,-4.900930881500244,1.3407529592514038,7.9803466796875,-11.5509033203125,-70.1446533203125
7.569999900000001,-7.740454196929932,-5.114014625549316,1.3263877630233765,3.0364990234375,-7.5531005859375,-60.3485107421875
7.5899999000000005,-7.378929615020752,-5.303156852722168,1.335964560508728,-3.631591796875,-7.62939453125,-54.01611328125
7.609999900000001,-7.113173484802246,-5.427655220031738,1.3503297567367554,-10.589599609375,-10.1470947265625,-51.4373779296875
7.6299999000000005,-6.921637058258057,-5.547365188598633,1.3239935636520386,-15.0604248046875,-4.82177734375,-53.7872314453125
7.649999900000001,-6.821080684661865,-5.6670756340026855,1.2880805730819702,-16.8304443359375,1.28173828125,-56.0150146484375
7.6699999000000005,-6.811503887176514,-5.8442463874816895,1.213860273361206,-18.768310546875,2.1209716796875,-55.816650390625
7.6899999,-6.825869083404541,-6.076483726501465,1.1228805780410767,-21.1639404296875,-4.302978515625,-56.5032958984375
7.709999900000001,-6.818686485290527,-6.366182327270508,1.0199298858642578,-21.8505859375,-8.6517333984375,-61.58447265625
7.7299999,-6.732495307922363,-6.703764915466309,0.9385270476341248,-21.2554931640625,-6.0272216796875,-67.413330078125
7.749999900000001,-6.593631267547607,-7.058106422424316,0.8786720037460327,-21.820068359375,-6.3323974609375,-69.0765380859375
7.7699999,-6.366182327270508,-7.400477409362793,0.8427590131759644,-24.200439453125,-15.5029296875,-68.6798095703125
7.789999900000001,-6.045359134674072,-7.73087739944458,0.8331822156906128,-26.0467529296875,-22.430419921875,-68.17626953125
7.8099999,-5.674258232116699,-7.999027729034424,0.8164227604866028,-26.4129638671875,-17.6849365234375,-64.4378662109375
7.829999900000001,-5.331887245178223,-8.252813339233398,0.8068459630012512,-26.91650390625,-14.0380859375,-57.7545166015625
7.8499999,-5.078101634979248,-8.44434928894043,0.8092401623725891,-29.4952392578125,-16.41845703125,-53.16162109375
7.869999900000001,-5.013458251953125,-8.588001251220703,0.8164227604866028,-34.027099609375,-11.5814208984375,-53.28369140625
7.8899999,-5.123591423034668,-8.695740699768066,0.8068459630012512,-36.5142822265625,-0.9002685546875,-53.6651611328125
7.909999900000001,-5.315127849578857,-8.801085472106934,0.768538773059845,-35.5682373046875,-0.579833984375,-52.2003173828125
7.9299999,-5.504269599914551,-8.923190116882324,0.7398083209991455,-32.6080322265625,-6.5155029296875,-53.0853271484375
7.949999900000001,-5.60722017288208,-9.07641887664795,0.6943184733390808,-28.6102294921875,-3.570556640625,-58.013916015625
7.9699999,-5.547365188598633,-9.265560150146484,0.6871358752250671,-22.979736328125,1.617431640625,-58.16650390625
7.989999900000001,-5.3797712326049805,-9.47146224975586,0.6631938815116882,-15.869140625,7.476806640625,-50.47607421875
8.0099999,-5.130774021148682,-9.660603523254395,0.6272808313369751,-5.615234375,10.894775390625,-45.1202392578125
8.0299999,-4.953603267669678,-9.787496566772461,0.6057330369949341,7.476806640625,4.5013427734375,-46.69189453125
8.049999900000001,-4.7836151123046875,-9.804255485534668,0.6584054827690125,18.2647705078125,-12.3291015625,-47.05810546875
8.069999900000001,-4.584896087646484,-9.677363395690918,0.8259995579719543,22.125244140625,-21.4691162109375,-42.3736572265625
8.0899999,-4.316745758056641,-9.476250648498535,1.0989385843276978,20.9808349609375,-9.857177734375,-38.1011962890625
8.1099999,-4.0533833503723145,-9.260771751403809,1.3838485479354858,20.1416015625,5.035400390625,-32.440185546875
8.129999900000001,-3.8546648025512695,-9.0859956741333,1.6352397203445435,20.6146240234375,-1.495361328125,-21.0418701171875
8.149999900000001,-3.8067808151245117,-8.966285705566406,1.8267759084701538,19.0887451171875,-12.8021240234375,-12.1307373046875
8.1699999,-3.9193081855773926,-8.908824920654297,1.9488801956176758,16.2200927734375,-8.941650390625,-12.7410888671875
8.1899999,-4.084507942199707,-8.887276649475098,2.0398597717285156,14.0838623046875,-5.706787109375,-15.9149169921875
8.2099999,-4.266467571258545,-8.918401718139648,2.0829553604125977,11.474609375,-8.9263916015625,-15.7012939453125
8.229999900000001,-4.395754337310791,-9.004592895507812,2.0877439975738525,8.48388671875,-8.2550048828125,-16.6015625
8.2499999,-4.469974517822266,-9.153033256530762,2.0374655723571777,6.4544677734375,-1.64794921875,-21.5301513671875
8.2699999,-4.460397720336914,-9.327810287475586,1.941697597503662,4.9896240234375,-1.4801025390625,-24.2919921875
8.2899999,-4.3861775398254395,-9.519346237182617,1.8148049116134644,3.692626953125,-6.7901611328125,-21.6827392578125
8.309999900000001,-4.285621166229248,-9.679757118225098,1.6735470294952393,2.5787353515625,-3.5400390625,-18.1121826171875
8.3299999,-4.1874589920043945,-9.782708168029785,1.53707754611969,1.7242431640625,7.8125,-22.0489501953125
8.3499999,-4.127603530883789,-9.864110946655273,1.4053963422775269,1.708984375,11.3067626953125,-29.5257568359375
8.3699999,-4.055777549743652,-9.911994934082031,1.2832920551300049,3.143310546875,2.6092529296875,-31.4178466796875
8.389999900000001,-3.907337188720703,-9.964667320251465,1.1803414821624756,4.7454833984375,4.4097900390625,-33.050537109375
8.4099999,-3.6727054119110107,-10.017339706420898,1.094150185585022,7.1868896484375,16.876220703125,-34.72900390625
8.4299999,-3.3854012489318848,-10.04846477508545,1.0558429956436157,10.894775390625,15.655517578125,-31.4178466796875
8.4499999,-3.1076738834381104,-10.046070098876953,1.0654197931289673,13.580322265625,7.1563720703125,-27.89306640625
8.469999900000001,-2.8802247047424316,-10.014945983886719,1.1276689767837524,15.0299072265625,7.965087890625,-28.99169921875
8.4899999,-2.676717519760132,-9.95748519897461,1.2449848651885986,16.29638671875,8.23974609375,-28.6102294921875
8.5099999,-2.5091233253479004,-9.873687744140625,1.41257905960083,15.8843994140625,-1.556396484375,-20.9808349609375
8.5299999,-2.382230758666992,-9.763554573059082,1.5921441316604614,12.0086669921875,-3.2806396484375,-17.5323486328125
8.549999900000001,-2.298433542251587,-9.653421401977539,1.764526605606079,6.988525390625,5.0201416015625,-24.1851806640625
8.569999900000001,-2.293645143508911,-9.57441234588623,1.9057846069335938,2.777099609375,6.1492919921875,-26.8707275390625
8.5899999,-2.274491548538208,-9.512163162231445,2.008735179901123,-1.28173828125,-1.7852783203125,-23.4222412109375
8.6099999,-2.1763293743133545,-9.485827445983887,2.049436569213867,-5.0201416015625,-0.4730224609375,-24.96337890625
8.629999900000001,-1.9991583824157715,-9.488221168518066,2.030282974243164,-5.9356689453125,8.1787109375,-24.169921875
8.649999900000001,-1.802833914756775,-9.481039047241211,1.946485996246338,-4.791259765625,5.706787109375,-12.5732421875
8.6699999,-1.6855180263519287,-9.464279174804688,1.843535304069519,-3.8909912109375,-5.0811767578125,-2.7618408203125
8.6899999,-1.6950948238372803,-9.423578262329102,1.7357962131500244,-4.33349609375,-5.523681640625,-6.16455078125
8.709999900000001,-1.7310078144073486,-9.368511199951172,1.6615760326385498,-4.94384765625,1.556396484375,-12.481689453125
8.729999900000001,-1.802833914756775,-9.342175483703613,1.6065093278884888,-5.615234375,9.796142578125,-7.537841796875
8.7499999,-1.9393033981323242,-9.361329078674316,1.558625340461731,-6.3323974609375,12.908935546875,1.64794921875
8.7699999,-2.1930887699127197,-9.437943458557129,1.5059528350830078,-6.5155029296875,9.4757080078125,-5.0811767578125
8.7899999,-2.4372973442077637,-9.560047149658203,1.4844050407409668,-6.04248046875,-1.953125,-22.430419921875
8.809999900000001,-2.8634653091430664,-9.524134635925293,1.5155296325683594,-6.7291259765625,-8.087158203125,-28.3660888671875
8.8299999,-2.806004285812378,-9.418789863586426,1.5634137392044067,-9.552001953125,-5.706787109375,-18.798828125
8.8499999,-2.9903578758239746,-9.406818389892578,1.7357962131500244,-12.603759765625,-2.3193359375,-7.9803466796875
8.8699999,-2.7437551021575928,-9.38048267364502,1.800439715385437,-13.9312744140625,-0.2593994140625,-17.88330078125
8.889999900000001,-2.63362193107605,-9.59596061706543,1.7884687185287476,-10.009765625,0.8087158203125,-13.61083984375
8.9099999,-2.389413356781006,-9.861717224121094,1.6496049165725708,-2.74658203125,-2.2430419921875,-9.124755859375
8.9299999,-2.1284453868865967,-10.072406768798828,1.4197616577148438,4.364013671875,-5.43212890625,-9.429931640625
8.9499999,-1.9249382019042969,-10.273519515991211,1.2210428714752197,9.6282958984375,-7.293701171875,-6.9732666015625
8.969999900000001,-1.7884687185287476,-10.359710693359375,1.1204863786697388,14.4805908203125,-9.307861328125,-3.173828125
8.9899999,-1.723825216293335,-10.340557098388672,1.1300631761550903,19.134521484375,-11.0931396484375,-2.2125244140625
9.0099999,-1.7118542194366455,-10.230423927307129,1.1971008777618408,20.9808349609375,-11.77978515625,-1.8463134765625
9.0299999,-1.7166426181793213,-10.0580415725708,1.2856862545013428,20.6146240234375,-13.2293701171875,-1.312255859375
9.049999900000001,-1.7046716213226318,-9.856928825378418,1.4413094520568848,21.3165283203125,-15.167236328125,-0.8697509765625
9.069999900000001,-1.680729627609253,-9.68694019317627,1.6424223184585571,20.08056640625,-13.916015625,-0.7476806640625
9.0899999,-1.6400281190872192,-9.552865028381348,1.8794482946395874,13.9923095703125,-9.918212890625,-1.2664794921875
9.1099999,-1.5969325304031372,-9.445125579833984,2.1140801906585693,6.6070556640625,-7.2784423828125,-0.8544921875
9.129999900000001,-1.5729905366897583,-9.38048267364502,2.279279947280884,1.46484375,-5.7525634765625,-0.6256103515625
9.149999900000001,-1.5705963373184204,-9.402029991149902,2.3582887649536133,-1.8157958984375,-3.5858154296875,-1.15966796875
9.1699999,-1.580173134803772,-9.509769439697266,2.341529369354248,-4.638671875,-1.4190673828125,0.152587890625
9.1899999,-1.5945383310317993,-9.651026725769043,2.2840683460235596,-4.913330078125,-1.2969970703125,2.471923828125
9.209999900000001,-1.6112977266311646,-9.78989028930664,2.2026655673980713,-2.0904541015625,-2.4261474609375,3.8909912109375
9.229999900000001,-1.623268723487854,-9.825803756713867,2.027888774871826,-0.9002685546875,-2.6092529296875,4.3182373046875
9.2499999,-1.6496049165725708,-9.804255485534668,1.8818424940109253,-0.7171630859375,-3.7994384765625,4.9896240234375
9.2699999,-1.680729627609253,-9.730035781860352,1.7310078144073486,-1.5869140625,-6.0272216796875,5.43212890625
9.2899999,-1.7357962131500244,-9.579200744628906,1.7070658206939697,-1.0986328125,-8.056640625,3.6468505859375
9.309999900000001,-1.7118542194366455,-9.50737476348877,1.7717092037200928,0.9765625,-9.5977783203125,0.762939453125
9.3299999,-1.742978811264038,-9.44752025604248,1.867477297782898,2.227783203125,-10.8184814453125,-1.0833740234375
9.3499999,-1.6950948238372803,-9.397241592407227,2.123656988143921,0.885009765625,-6.28662109375,-2.7313232421875
9.3699999,-1.5658079385757446,-9.387664794921875,2.279279947280884,-6.7138671875,-0.4425048828125,-3.96728515625
9.389999900000001,-1.5729905366897583,-9.457097053527832,2.4612393379211426,-14.0533447265625,9.3231201171875,-2.4261474609375
9.4099999,-1.4939818382263184,-9.50498104095459,2.410961151123047,-15.19775390625,7.568359375,-1.2664794921875
9.4299999,-1.4987702369689941,-9.59835433959961,2.293645143508911,-12.6495361328125,5.79833984375,2.2735595703125
9.4499999,-1.577778935432434,-9.694122314453125,2.0829553604125977,-15.0146484375,4.08935546875,3.814697265625
9.469999900000001,-1.6831238269805908,-9.801861763000488,1.7741034030914307,-18.9666748046875,4.8370361328125,4.7760009765625
9.4899999,-1.7477672100067139,-9.847352027893066,1.5059528350830078,-9.7808837890625,1.678466796875,5.8135986328125
9.5099999,-1.8698714971542358,-9.792284965515137,1.338358759880066,0.579833984375,-9.27734375,3.4027099609375
9.5299999,-1.8602946996688843,-9.75397777557373,1.278503656387329,-6.5460205078125,-8.6212158203125,1.2664794921875
9.549999900000001,-1.8363527059555054,-9.62947940826416,1.41257905960083,-18.2647705078125,4.7454833984375,-2.593994140625
9.569999900000001,-1.766920804977417,-9.576807022094727,1.50355863571167,-15.0604248046875,1.251220703125,-3.4332275390625
9.5899999,-1.699883222579956,-9.600749015808105,1.5873557329177856,-5.3863525390625,-2.5177001953125,1.9683837890625
9.6099999,-1.644816517829895,-9.619902610778809,1.6519991159439087,-5.645751953125,-2.50244140625,-1.739501953125
9.629999900000001,-1.6424223184585571,-9.617507934570312,1.7501614093780518,-17.9290771484375,8.3770751953125,0.1068115234375
9.649999900000001,-1.6089035272598267,-9.648633003234863,1.889025092124939,-23.01025390625,10.3759765625,5.9661865234375
9.6699999,-1.6615760326385498,-9.706093788146973,1.8195933103561401,-19.317626953125,10.1165771484375,1.708984375
9.6899999,-1.6831238269805908,-9.80904483795166,1.6615760326385498,-14.251708984375,4.5166015625,1.556396484375
9.709999900000001,-1.7932571172714233,-9.919178009033203,1.3623007535934448,-10.6353759765625,1.52587890625,1.64794921875
9.729999900000001,-1.8794482946395874,-10.002974510192871,1.0797849893569946,-7.4005126953125,2.0294189453125,-0.5035400390625
9.7499999,-1.9153614044189453,-9.93593692779541,0.7876923680305481,2.6702880859375,-0.18310546875,-0.9613037109375
9.7699999,-1.9393033981323242,-9.947908401489258,0.7038952708244324,15.7623291015625,-2.4871826171875,4.180908203125
9.7899999,-1.886630892753601,-9.837775230407715,0.7924807667732239,16.998291015625,-4.0130615234375,-0.518798828125
9.809999900000001,-1.7812861204147339,-9.742006301879883,1.048660397529602,9.4146728515625,-1.617431640625,-0.4119873046875
9.8299999,-1.7573440074920654,-9.6989107131958,1.4173674583435059,1.8310546875,1.190185546875,4.241943359375
9.8499999,-1.6615760326385498,-9.5408935546875,1.625662922859192,-4.8370361328125,6.04248046875,1.1444091796875
9.8699999,-1.721431016921997,-9.583989143371582,1.8100165128707886,-10.4827880859375,5.035400390625,3.5400390625
9.889999900000001,-1.6974890232086182,-9.500192642211914,1.7142484188079834,-23.01025390625,5.5999755859375,-1.8157958984375
9.9099999,-1.7741034030914307,-9.567230224609375,1.4772224426269531,-30.1971435546875,11.1846923828125,-1.1444091796875
9.9299999,-1.8555063009262085,-9.636661529541016,0.9816226959228516,-17.3492431640625,6.9427490234375,1.6021728515625
9.9499999,-1.900996208190918,-9.732429504394531,0.49559974670410156,1.8768310546875,-7.8125,1.434326171875
9.969999900000001,-1.9800047874450684,-9.873687744140625,0.21308395266532898,15.0604248046875,-11.8408203125,0.8544921875
9.9899999,-1.9776105880737305,-9.943120002746582,0.23942017555236816,19.7906494140625,-15.5029296875,0.3814697265625
10.0099999,-1.8746598958969116,-9.90241813659668,0.6560112833976746,18.0206298828125,-14.09912109375,-0.54931640625
10.0299999,-1.723825216293335,-9.703699111938477,1.3024457693099976,5.8746337890625,-5.5694580078125,0.640869140625
10.049999900000001,-1.5825673341751099,-9.488221168518066,2.056619167327881,-21.331787109375,8.0718994140625,-0.946044921875
10.069999900000001,-1.4867992401123047,-9.284713745117188,2.4420857429504395,-46.661376953125,21.05712890625,-6.2103271484375
10.0899999,-1.5107412338256836,-9.318233489990234,2.3056161403656006,-45.196533203125,24.3682861328125,-2.8228759765625
10.1099999,-1.6615760326385498,-9.533711433410645,1.6663644313812256,-24.4293212890625,14.404296875,0.8087158203125
10.129999900000001,-1.86508309841156,-9.8784761428833,0.6823474764823914,-3.814697265625,0.67138671875,-1.15966796875
10.149999900000001,-2.027888774871826,-10.127472877502441,-0.05027823522686958,14.3585205078125,-8.97216796875,0.244140625
10.1699999,-2.145204782485962,-10.309432983398438,-0.395043283700943,25.1007080078125,-16.29638671875,3.2196044921875
10.1899999,-2.1284453868865967,-10.165780067443848,-0.28969839215278625,30.517578125,-15.3961181640625,-1.3427734375
10.209999900000001,-2.0925323963165283,-10.02452278137207,0.15322890877723694,29.3426513671875,-15.0909423828125,-0.8697509765625
10.229999900000001,-1.9057846069335938,-9.825803756713867,0.7996633648872375,18.951416015625,-14.434814453125,-5.5999755859375
10.2499999,-1.8602946996688843,-9.57441234588623,1.3694833517074585,3.72314453125,-4.57763671875,-5.279541015625
10.2699999,-1.6352397203445435,-9.464279174804688,1.7980455160140991,-9.2010498046875,4.6234130859375,-1.8310546875
10.2899999,-1.6280571222305298,-9.301473617553711,1.9919757843017578,-20.6756591796875,6.9732666015625,-0.091552734375
10.309999900000001,-1.6041151285171509,-9.313444137573242,1.8602946996688843,-32.440185546875,9.979248046875,-0.42724609375
10.3299999,-1.6687586307525635,-9.445125579833984,1.4867992401123047,-27.5726318359375,7.62939453125,0.396728515625
10.3499999,-1.8124107122421265,-9.761159896850586,0.871489405632019,-10.467529296875,-4.8370361328125,3.448486328125
10.3699999,-1.8746598958969116,-10.043676376342773,0.31124621629714966,10.528564453125,-14.8468017578125,1.739501953125
10.389999900000001,-1.9393033981323242,-10.278307914733887,0.08140286058187485,21.1944580078125,-21.5301513671875,2.3193359375
10.4099999,-1.8818424940109253,-10.237606048583984,0.38067805767059326,15.9149169921875,-16.693115234375,-0.5950927734375
10.4299999,-1.7525556087493896,-9.93354320526123,0.8978256583213806,-5.7220458984375,-0.2288818359375,-2.6092529296875
10.4499999,-1.6089035272598267,-9.607931137084961,1.6639702320098877,-22.705078125,12.2222900390625,-0.3509521484375
10.469999900000001,-1.5083470344543457,-9.320627212524414,2.0614075660705566,-32.928466796875,16.5557861328125,-1.8768310546875
10.4899999,-1.4963760375976562,-9.29189682006836,2.0805611610412598,-31.646728515625,21.0418701171875,0.06103515625
10.5099999,-1.6136919260025024,-9.564835548400879,1.680729627609253,-16.05224609375,16.0980224609375,2.3651123046875
10.5299999,-1.7741034030914307,-9.938331604003906,0.9145850539207458,8.11767578125,3.2958984375,0.3204345703125
10.549999900000001,-1.9512743949890137,-10.251971244812012,0.2346317619085312,32.073974609375,-7.0343017578125,1.800537109375
10.569999900000001,-2.0638017654418945,-10.400412559509277,-0.2298433631658554,45.6390380859375,-15.56396484375,2.0294189453125
10.5899999,-2.049436569213867,-10.266336441040039,-0.2537853717803955,47.18017578125,-17.669677734375,-4.82177734375
10.6099999,-1.9153614044189453,-9.928754806518555,0.17717093229293823,37.078857421875,-10.833740234375,-7.99560546875
10.629999900000001,-1.764526605606079,-9.526528358459473,0.8738836050033569,15.93017578125,-0.5950927734375,-4.6539306640625
10.649999900000001,-1.5921441316604614,-9.136273384094238,1.525106430053711,-11.9781494140625,7.4310302734375,-3.5400390625
10.6699999,-1.5658079385757446,-8.935160636901855,1.9823989868164062,-33.0657958984375,14.739990234375,-3.0975341796875
10.6899999,-1.5705963373184204,-9.05247688293457,1.968033790588379,-35.6597900390625,9.0179443359375,-1.2969970703125
10.709999900000001,-1.6735470294952393,-9.339780807495117,1.5394717454910278,-26.1383056640625,5.31005859375,-0.6103515625
10.729999900000001,-1.8291701078414917,-9.880870819091797,0.9648633003234863,-11.2762451171875,-4.608154296875,3.72314453125
10.7499999,-1.86508309841156,-10.216058731079102,0.38307225704193115,6.1798095703125,-15.9759521484375,-0.9002685546875
10.7699999,-1.944091796875,-10.436325073242188,0.16519992053508759,16.937255859375,-16.4947509765625,-4.0283203125
10.7899999,-1.8579005002975464,-10.314221382141113,0.26575639843940735,18.37158203125,-10.650634765625,-2.0599365234375
10.809999900000001,-1.7405846118927002,-10.08437728881836,0.7230489253997803,11.0626220703125,-5.92041015625,0.3814697265625
10.8299999,-1.6352397203445435,-9.718064308166504,1.2617442607879639,-2.105712890625,-1.129150390625,0.2899169921875
10.8499999,-1.4867992401123047,-9.576807022094727,1.7381904125213623,-14.312744140625,5.7220458984375,3.0975341796875
10.8699999,-1.5203180313110352,-9.41639518737793,1.889025092124939,-20.5841064453125,9.429931640625,2.3040771484375
10.889999900000001,-1.5394717454910278,-9.509769439697266,1.7501614093780518,-17.8680419921875,7.965087890625,4.5318603515625
10.9099999,-1.6663644313812256,-9.660603523254395,1.3646949529647827,-14.7705078125,0.1678466796875,1.3427734375
10.9299999,-1.800439715385437,-10.012551307678223,0.4165911078453064,8.4991455078125,-5.3863525390625,-1.6632080078125
10.9499999,-1.8195933103561401,-9.988609313964844,0.33279404044151306,17.2119140625,-8.4381103515625,-0.701904296875
10.969999900000001,-1.7477672100067139,-9.840168952941895,0.5315127968788147,5.645751953125,-5.43212890625,-3.143310546875
10.9899999,-1.6352397203445435,-9.48343276977539,1.170764684677124,-18.402099609375,8.6517333984375,-2.2430419921875
11.0099999,-1.599326729774475,-9.344569206237793,1.644816517829895,-43.548583984375,18.4783935546875,1.983642578125
11.0299999,-1.479616641998291,-9.167398452758789,1.7573440074920654,-52.337646484375,20.99609375,-1.129150390625
11.049999900000001,-1.6208745241165161,-9.478644371032715,1.3311761617660522,-42.938232421875,12.4359130859375,1.4495849609375
11.069999900000001,-1.6831238269805908,-9.720458984375,0.4908113479614258,-24.0936279296875,1.3885498046875,-1.1749267578125
11.0899999,-1.8794482946395874,-10.254365921020508,-0.3878606855869293,-6.34765625,-7.6141357421875,1.922607421875
11.1099999,-1.9800047874450684,-10.500968933105469,-0.8786720037460327,15.31982421875,-15.1519775390625,-2.5482177734375
11.129999900000001,-1.9560627937316895,-10.56800651550293,-0.828393816947937,32.379150390625,-18.1732177734375,-0.0152587890625
11.149999900000001,-1.8555063009262085,-10.27591323852539,-0.15322890877723694,23.1475830078125,-11.5203857421875,0.9002685546875
11.1699999,-1.6615760326385498,-9.734824180603027,0.7134721279144287,-5.5694580078125,5.7525634765625,0.9918212890625
11.1899999,-1.4891934394836426,-9.435548782348633,1.460463047027588,-28.3203125,16.4794921875,2.3956298828125
11.209999900000001,-1.4891934394836426,-9.306262016296387,1.5969325304031372,-22.7813720703125,14.7705078125,-3.72314453125
11.229999900000001,-1.577778935432434,-9.591172218322754,1.1851298809051514,-1.4190673828125,2.6397705078125,0.518798828125
11.2499999,-1.7405846118927002,-9.892841339111328,0.4596867263317108,14.83154296875,-7.5531005859375,2.7618408203125
11.2699999,-1.920149803161621,-10.129867553710938,-0.19871874153614044,21.453857421875,-11.7034912109375,-2.62451171875
11.2899999,-1.9512743949890137,-10.244789123535156,-0.545877993106842,29.4189453125,-13.0462646484375,-3.997802734375
11.309999900000001,-1.9057846069335938,-10.101137161254883,-0.2346317619085312,36.376953125,-15.472412109375,-2.2735595703125
11.3299999,-1.7573440074920654,-9.895236015319824,0.2346317619085312,17.8375244140625,-7.3699951171875,-0.762939453125
11.3499999,-1.6304513216018677,-9.59596061706543,0.9959878921508789,-5.5389404296875,7.4920654296875,0.6866455078125
11.3699999,-1.5298948287963867,-9.497797966003418,1.479616641998291,-13.18359375,9.3841552734375,2.3193359375
11.389999900000001,-1.53707754611969,-9.488221168518066,1.5490485429763794,-10.1776123046875,7.904052734375,1.861572265625
11.4099999,-1.6424223184585571,-9.634267807006836,1.3048399686813354,-4.6234130859375,1.983642578125,4.9285888671875
11.4299999,-1.6974890232086182,-9.801861763000488,0.8403648138046265,-5.9661865234375,-2.4261474609375,-1.0528564453125
11.4499999,-1.7956513166427612,-9.794678688049316,0.4405331015586853,-7.659912109375,-0.67138671875,-2.1209716796875
11.469999900000001,-1.7836803197860718,-9.90241813659668,0.11971008777618408,-2.3651123046875,-4.2724609375,-0.4119873046875
11.4899999,-1.8387469053268433,-9.931148529052734,0.023942016065120697,9.6282958984375,-8.3770751953125,-5.8135986328125
11.5099999,-1.7836803197860718,-9.971850395202637,0.17477671802043915,19.5770263671875,-11.90185546875,-0.7476806640625
11.5299999,-1.7621324062347412,-10.007762908935547,0.5722141861915588,15.625,-4.913330078125,3.6773681640625
11.549999900000001,-1.6974890232086182,-9.909601211547852,1.0989385843276978,7.9193115234375,1.8157958984375,3.7841796875
11.569999900000001,-1.6065093278884888,-9.751583099365234,1.4915876388549805,1.4495849609375,10.7421875,2.6397705078125
11.5899999,-1.577778935432434,-9.677363395690918,1.6855180263519287,-4.08935546875,11.260986328125,4.3182373046875
11.6099999,-1.656787633895874,-9.682151794433594,1.4437036514282227,-9.521484375,9.063720703125,-0.244140625
11.629999900000001,-1.7190368175506592,-9.634267807006836,0.8906430602073669,-4.9896240234375,4.913330078125,-1.8310546875
11.649999900000001,-1.8411411046981812,-9.840168952941895,0.43335050344467163,10.4522705078125,-5.6610107421875,1.1444091796875
11.6699999,-1.9081788063049316,-9.830592155456543,0.011971008032560349,16.1895751953125,-9.6893310546875,-6.5155029296875
11.6899999,-1.8555063009262085,-9.892841339111328,0.11971008777618408,16.357421875,-9.002685546875,-0.1983642578125
11.709999900000001,-1.7980455160140991,-9.832986831665039,0.47644615173339844,8.6212158203125,-0.7171630859375,2.62451171875
11.729999900000001,-1.6879122257232666,-9.732429504394531,0.9696516990661621,0.1373291015625,2.7923583984375,1.739501953125
11.7499999,-1.6304513216018677,-9.610325813293457,1.3646949529647827,-3.936767578125,4.6844482421875,-1.2359619140625
11.7699999,-1.6112977266311646,-9.655815124511719,1.4628572463989258,-6.134033203125,5.340576171875,-0.0152587890625
11.7899999,-1.6496049165725708,-9.679757118225098,1.3431471586227417,-2.5177001953125,3.90625,-4.638671875
11.809999900000001,-1.7286136150360107,-9.761159896850586,1.039083480834961,5.9814453125,1.312255859375,-4.5318603515625
11.8299999,-1.6974890232086182,-9.804255485534668,0.9145850539207458,11.2457275390625,-3.265380859375,-1.6326904296875
11.8499999,-1.7597382068634033,-9.732429504394531,0.9145850539207458,2.1514892578125,1.5411376953125,-4.33349609375
11.8699999,-1.6735470294952393,-9.710882186889648,1.137245774269104,-13.1988525390625,13.9617919921875,-1.190185546875
11.889999900000001,-1.680729627609253,-9.744400978088379,1.2090718746185303,-18.5394287109375,17.6849365234375,1.8157958984375
11.9099999,-1.7142484188079834,-9.926360130310059,1.0534487962722778,-8.544921875,7.049560546875,4.9896240234375
11.9299999,-1.8052281141281128,-10.158597946166992,0.5937620401382446,13.8397216796875,-5.2490234375,5.0506591796875
11.9499999,-1.900996208190918,-10.299856185913086,0.17717093229293823,34.0423583984375,-13.1683349609375,3.1585693359375
11.969999900000001,-1.8842366933822632,-10.216058731079102,0.15801730751991272,35.3240966796875,-16.7236328125,1.1444091796875
11.9899999,-1.7980455160140991,-9.852140426635742,0.6272808313369751,13.702392578125,-6.195068359375,0.518798828125
12.0099999,-1.5179238319396973,-9.23682975769043,1.5945383310317993,-19.6990966796875,11.3372802734375,1.4801025390625
12.0299999,-1.3910311460494995,-8.980650901794434,2.2002713680267334,-59.14306640625,32.5775146484375,-4.0435791015625
12.049999900000001,-1.3910311460494995,-8.875306129455566,2.2002713680267334,-69.4122314453125,37.6434326171875,-2.2735595703125
12.069999900000001,-1.580173134803772,-9.481039047241211,1.3239935636520386,-40.95458984375,12.5579833984375,11.2457275390625
12.0899999,-1.920149803161621,-10.06043529510498,0.11252748221158981,-0.030517578125,-10.2386474609375,9.368896484375
12.1099999,-2.1164743900299072,-10.587160110473633,-0.7158663272857666,24.0631103515625,-23.681640625,11.29150390625
12.129999900000001,-2.1930887699127197,-10.654197692871094,-0.7996633648872375,18.73779296875,-18.157958984375,9.82666015625
12.149999900000001,-2.097320795059204,-10.290278434753418,-0.2753331959247589,2.9754638671875,-4.94384765625,7.2021484375
12.1699999,-1.9321208000183105,-9.818621635437012,0.4357447028160095,-9.3231201171875,1.9683837890625,3.8909912109375
12.1899999,-1.8315643072128296,-9.402029991149902,1.048660397529602,-7.4920654296875,3.23486328125,-2.105712890625
12.209999900000001,-1.6879122257232666,-9.29189682006836,1.3024457693099976,-3.9520263671875,1.007080078125,0.244140625
12.229999900000001,-1.7980455160140991,-9.41400146484375,1.2234370708465576,-4.2572021484375,8.9111328125,2.9754638671875
12.2499999,-1.8531121015548706,-9.715670585632324,0.9169792532920837,11.199951171875,-0.48828125,6.65283203125
12.2699999,-1.9823989868164062,-9.983820915222168,0.5003881454467773,27.2979736328125,-9.8724365234375,3.9825439453125
12.289999900000002,-2.099714994430542,-10.053253173828125,0.2322375625371933,36.80419921875,-12.176513671875,2.5634765625
12.309999900000001,-2.0470423698425293,-9.938331604003906,0.4596867263317108,29.998779296875,-13.12255859375,2.716064453125
12.3299999,-1.9704279899597168,-9.569623947143555,0.8259995579719543,-0.030517578125,3.8299560546875,-2.6092529296875
12.3499999,-1.8555063009262085,-9.210494041442871,1.213860273361206,-22.8118896484375,14.5721435546875,-1.7547607421875
12.3699999,-1.8363527059555054,-9.042900085449219,1.501164436340332,-26.123046875,7.6904296875,-5.0506591796875
12.389999900000001,-1.8315643072128296,-9.05487060546875,1.3311761617660522,-24.7802734375,7.32421875,-8.2550048828125
12.4099999,-1.889025092124939,-9.385271072387695,1.173158884048462,-19.073486328125,10.1318359375,-1.3885498046875
12.4299999,-1.9560627937316895,-9.785101890563965,0.7613561153411865,-12.359619140625,9.979248046875,2.288818359375
12.4499999,-2.0901381969451904,-10.249577522277832,0.26096799969673157,4.3792724609375,-0.8544921875,3.2806396484375
12.469999900000001,-2.161964178085327,-10.512939453125,-0.26575639843940735,33.599853515625,-14.83154296875,0.8697509765625
12.4899999,-2.2840683460235596,-10.524910926818848,-0.45250412821769714,53.4210205078125,-25.7415771484375,3.082275390625
12.5099999,-2.1739351749420166,-10.259154319763184,-0.15562310814857483,45.135498046875,-22.94921875,-2.0294189453125
12.5299999,-2.0805611610412598,-9.75397777557373,0.608127236366272,21.17919921875,-8.1634521484375,-5.157470703125
12.549999900000001,-1.7741034030914307,-9.306262016296387,1.647210717201233,-0.518798828125,5.37109375,-2.349853515625
12.569999900000001,-1.6352397203445435,-9.069235801696777,2.3750481605529785,-25.1312255859375,16.754150390625,-3.35693359375
12.5899999,-1.556231141090393,-9.069235801696777,2.454056739807129,-38.6810302734375,25.848388671875,-0.762939453125
12.6099999,-1.6735470294952393,-9.423578262329102,2.030282974243164,-26.6876220703125,16.0980224609375,4.608154296875
12.629999900000001,-1.8842366933822632,-9.77791976928711,1.01753568649292,-6.40869140625,1.708984375,2.685546875
12.649999900000001,-2.185906171798706,-10.14902114868164,0.10534487664699554,18.8140869140625,-11.0931396484375,4.241943359375
12.6699999,-2.296039342880249,-10.26394271850586,-0.40701428055763245,36.590576171875,-21.91162109375,5.1116943359375
12.6899999,-2.293645143508911,-10.141838073730469,-0.2059013396501541,30.3192138671875,-23.8800048828125,0.2899169921875
12.709999900000001,-2.0374655723571777,-9.799467086791992,0.4908113479614258,2.593994140625,-7.080078125,-3.173828125
12.729999900000001,-1.8291701078414917,-9.390059471130371,1.4484920501708984,-24.7650146484375,10.9710693359375,0.213623046875
12.7499999,-1.6208745241165161,-9.148244857788086,2.0829553604125977,-43.9453125,19.866943359375,0.3662109375
12.7699999,-1.5873557329177856,-9.083600997924805,2.3918075561523438,-48.2330322265625,21.3165283203125,0.7476806640625
12.789999900000002,-1.599326729774475,-9.246406555175781,2.233790159225464,-52.4444580078125,21.820068359375,2.716064453125
12.809999900000001,-1.7262194156646729,-9.545681953430176,1.4221558570861816,-56.33544921875,32.77587890625,4.364013671875
12.8299999,-1.9919757843017578,-9.95748519897461,0.4596867263317108,-29.6173095703125,16.204833984375,9.33837890625
12.8499999,-2.1739351749420166,-10.180145263671875,-0.7110779285430908,2.227783203125,-13.1072998046875,3.4942626953125
12.8699999,-2.4229321479797363,-10.371682167053223,-1.2641384601593018,20.538330078125,-27.7557373046875,5.79833984375
12.889999900000001,-2.1547815799713135,-9.995792388916016,-0.7086837291717529,18.3868408203125,-18.2037353515625,-3.60107421875
12.9099999,-2.032677173614502,-9.837775230407715,0.20350714027881622,-16.876220703125,24.2462158203125,-7.476806640625
12.9299999,-1.7525556087493896,-9.48343276977539,0.9888052940368652,-35.7666015625,43.39599609375,-3.1890869140625
12.9499999,-1.8076223134994507,-9.672574996948242,0.8906430602073669,-12.2833251953125,14.8773193359375,9.5367431640625
12.969999900000001,-2.054224967956543,-9.962273597717285,0.0454898327589035,28.4423828125,-13.153076171875,4.82177734375
12.9899999,-2.0877439975738525,-9.981427192687988,-0.0933738648891449,53.7872314453125,-34.149169921875,2.2125244140625
13.0099999,-1.8914192914962769,-9.746794700622559,0.5434837937355042,4.3792724609375,2.105712890625,-1.3427734375
13.0299999,-1.8387469053268433,-9.23443603515625,1.2258312702178955,-84.89990234375,73.54736328125,3.631591796875
13.049999900000001,-1.8698714971542358,-8.983044624328613,1.2449848651885986,-97.10693359375,56.45751953125,18.9056396484375
13.069999900000001,-2.274491548538208,-9.138668060302734,-0.0454898327589035,-36.285400390625,-9.063720703125,5.7525634765625
13.0899999,-2.6862943172454834,-9.48343276977539,-1.479616641998291,30.3497314453125,-44.0216064453125,-9.1552734375
13.1099999,-2.75812029838562,-9.911994934082031,-2.1763293743133545,43.8995361328125,-34.85107421875,-11.0931396484375
13.129999900000001,-2.6240451335906982,-10.247182846069336,-1.5945383310317993,24.9786376953125,-4.57763671875,-7.3089599609375
13.149999900000001,-2.2002713680267334,-10.26394271850586,-0.38067805767059326,18.402099609375,4.730224609375,4.6234130859375
13.1699999,-2.011129379272461,-10.27591323852539,0.6727706789970398,7.50732421875,11.9171142578125,13.24462890625
13.1899999,-1.8387469053268433,-9.931148529052734,1.4676456451416016,-1.708984375,11.2762451171875,7.720947265625
13.209999900000001,-1.9105730056762695,-9.655815124511719,1.2449848651885986,-15.5181884765625,24.200439453125,-3.5400390625
13.229999900000001,-2.0614075660705566,-9.63187313079834,0.43095630407333374,2.3040771484375,13.9312744140625,-1.6937255859375
13.2499999,-2.3535003662109375,-9.78989028930664,-0.7374141216278076,50.811767578125,-23.1475830078125,3.6163330078125
13.2699999,-2.5306711196899414,-10.0580415725708,-1.5849615335464478,76.202392578125,-45.34912109375,1.77001953125
13.289999900000002,-2.477998733520508,-9.854534149169922,-1.0630255937576294,63.4918212890625,-37.2772216796875,-1.2969970703125
13.309999900000001,-2.1763293743133545,-9.368511199951172,0.42616790533065796,2.8076171875,5.18798828125,-4.913330078125
13.3299999,-1.7741034030914307,-8.851364135742188,1.8507179021835327,-59.7991943359375,52.7801513671875,-3.47900390625
13.3499999,-1.6903064250946045,-8.65743350982666,2.3989901542663574,-63.5223388671875,46.0662841796875,2.8228759765625
13.3699999,-1.7525556087493896,-9.030928611755371,1.6065093278884888,-28.350830078125,10.223388671875,3.0975341796875
13.389999900000001,-2.126051187515259,-9.651026725769043,0.16759411990642548,7.6751708984375,-14.0380859375,-0.701904296875
13.4099999,-2.4420857429504395,-10.251971244812012,-0.9552865028381348,28.6407470703125,-20.20263671875,0.9307861328125
13.4299999,-2.5306711196899414,-10.539276123046875,-1.314416766166687,34.820556640625,-18.524169921875,4.6844482421875
13.4499999,-2.535459518432617,-10.460267066955566,-0.9744400978088379,30.8380126953125,-18.8140869140625,8.270263671875
13.469999900000001,-2.387019157409668,-10.034099578857422,-0.12210428714752197,23.0560302734375,-14.251708984375,5.3253173828125
13.4899999,-2.1092917919158936,-9.433155059814453,0.9888052940368652,7.9345703125,-1.89208984375,-4.82177734375
13.5099999,-1.946485996246338,-9.033323287963867,1.802833914756775,-23.9715576171875,19.195556640625,-8.1939697265625
13.5299999,-1.8411411046981812,-8.803479194641113,2.0590133666992188,-43.7164306640625,32.684326171875,-5.37109375
13.549999900000001,-1.8938134908676147,-9.030928611755371,1.6711528301239014,-33.111572265625,19.683837890625,2.4871826171875
13.569999900000001,-2.1763293743133545,-9.533711433410645,0.6847416758537292,-15.4571533203125,1.52587890625,1.617431640625
13.5899999,-2.38462495803833,-10.031704902648926,-0.3519476354122162,2.8076171875,-8.5296630859375,0.5340576171875
13.6099999,-2.5905263423919678,-10.42195987701416,-0.9672574996948242,20.81298828125,-17.3797607421875,6.65283203125
13.629999900000001,-2.63362193107605,-10.402806282043457,-1.1037269830703735,30.303955078125,-21.3165283203125,7.9345703125
13.649999900000001,-2.540247917175293,-10.17296314239502,-0.6033388376235962,31.097412109375,-21.4080810546875,2.105712890625
13.6699999,-2.3104045391082764,-9.59596061706543,0.3447650372982025,16.7388916015625,-9.6588134765625,-7.415771484375
13.6899999,-2.0877439975738525,-9.196128845214844,1.2976573705673218,-11.29150390625,10.650634765625,-7.7056884765625
13.709999900000001,-1.889025092124939,-8.904036521911621,1.9081788063049316,-32.928466796875,29.296875,-6.622314453125
13.729999900000001,-1.889025092124939,-9.066842079162598,1.8124107122421265,-32.073974609375,22.0947265625,0.152587890625
13.7499999,-2.032677173614502,-9.521739959716797,1.0606313943862915,-19.10400390625,6.3629150390625,1.068115234375
13.7699999,-2.300827741622925,-10.010157585144043,-0.06703764945268631,7.7972412109375,-9.124755859375,3.204345703125
13.789999900000002,-2.4827871322631836,-10.481815338134766,-0.849941611289978,34.423828125,-23.6968994140625,5.615234375
13.809999900000001,-2.5498247146606445,-10.369287490844727,-1.036689281463623,43.51806640625,-28.1219482421875,3.11279296875
13.8299999,-2.454056739807129,-10.08437728881836,-0.42856210470199585,28.106689453125,-18.12744140625,0.30517578125
13.8499999,-2.169146776199341,-9.445125579833984,0.7230489253997803,-4.791259765625,1.9683837890625,-4.5166015625
13.8699999,-1.98958158493042,-9.042900085449219,1.678335428237915,-37.1246337890625,23.3917236328125,-8.1024169921875
13.889999900000001,-1.8698714971542358,-8.865729331970215,2.008735179901123,-49.072265625,31.280517578125,-5.18798828125
13.9099999,-1.9800047874450684,-9.107542991638184,1.4484920501708984,-36.3311767578125,15.8843994140625,1.46484375
13.9299999,-2.1811177730560303,-9.653421401977539,0.40701428055763245,-12.5885009765625,-6.3629150390625,3.2196044921875
13.9499999,-2.3989901542663574,-10.103530883789062,-0.49559974670410156,10.5133056640625,-19.287109375,0.335693359375
13.969999900000001,-2.4420857429504395,-10.36449909210205,-0.8786720037460327,16.29638671875,-18.157958984375,3.90625
13.9899999,-2.3942017555236816,-10.180145263671875,-0.5386953949928284,8.72802734375,-7.5531005859375,3.631591796875
14.0099999,-2.2457611560821533,-9.828198432922363,-0.05027823522686958,-9.09423828125,1.0223388671875,-0.1678466796875
14.0299999,-2.1284453868865967,-9.418789863586426,0.6871358752250671,-16.11328125,-1.03759765625,-3.84521484375
14.049999900000001,-1.944091796875,-9.162610054016113,1.1013327836990356,-20.660400390625,3.143310546875,-8.4381103515625
14.069999900000001,-2.0374655723571777,-9.373299598693848,1.1851298809051514,-28.7628173828125,21.087646484375,-4.9591064453125
14.0899999,-2.054224967956543,-9.57201862335205,0.9361328482627869,-18.585205078125,19.0887451171875,-0.5645751953125
14.1099999,-2.2912509441375732,-10.014945983886719,0.20350714027881622,1.4495849609375,-2.0904541015625,7.26318359375
14.129999900000001,-2.4612393379211426,-10.26394271850586,-0.47405192255973816,24.6429443359375,-15.68603515625,3.7841796875
14.149999900000001,-2.449268341064453,-10.278307914733887,-0.706289529800415,39.9627685546875,-22.0184326171875,-2.0599365234375
14.1699999,-2.403778553009033,-10.012551307678223,-0.45489832758903503,21.9879150390625,-6.6375732421875,-2.01416015625
14.1899999,-2.212242364883423,-9.521739959716797,0.009576806798577309,-6.5460205078125,10.2691650390625,-1.9378662109375
14.209999900000001,-2.188300371170044,-9.141061782836914,0.49799394607543945,-21.270751953125,9.3536376953125,-3.8604736328125
14.229999900000001,-2.1475989818573,-8.990227699279785,0.5602431893348694,-15.93017578125,-0.4119873046875,-9.0789794921875
14.2499999,-2.1595699787139893,-9.107542991638184,0.6105214357376099,-7.0037841796875,-5.3863525390625,-11.90185546875
14.2699999,-2.1332337856292725,-9.53849983215332,0.5434837937355042,-11.77978515625,7.476806640625,-3.0975341796875
14.289999900000002,-2.145204782485962,-9.885659217834473,0.35673606395721436,-14.5721435546875,16.632080078125,3.8299560546875
14.309999900000001,-2.1763293743133545,-10.225635528564453,0.016759412363171577,3.2501220703125,-1.46484375,7.26318359375
14.3299999,-2.2649147510528564,-10.362105369567871,-0.363918662071228,31.829833984375,-16.7083740234375,-0.0152587890625
14.3499999,-2.2625205516815186,-10.311826705932617,-0.3902548849582672,42.8009033203125,-19.317626953125,-3.5247802734375
14.3699999,-2.190694570541382,-10.050858497619629,-0.22505496442317963,17.9901123046875,-0.2899169921875,-0.1068115234375
14.389999900000001,-2.1356279850006104,-9.68933391571045,0.2059013396501541,-0.06103515625,6.988525390625,2.655029296875
14.4099999,-2.008735179901123,-9.282320022583008,0.6057330369949341,-5.3558349609375,-1.89208984375,-2.6092529296875
14.4299999,-2.032677173614502,-9.181763648986816,0.7972691655158997,-9.2010498046875,0.42724609375,-8.23974609375
14.4499999,-2.0159177780151367,-9.217676162719727,1.0007762908935547,-10.2081298828125,6.195068359375,-8.6517333984375
14.469999900000001,-2.049436569213867,-9.57201862335205,0.912190854549408,-16.05224609375,16.815185546875,-1.129150390625
14.4899999,-2.1380221843719482,-9.976638793945312,0.5913678407669067,-8.819580078125,10.223388671875,7.3394775390625
14.5099999,-2.231395959854126,-10.228029251098633,0.08619125932455063,16.0675048828125,-8.2550048828125,8.575439453125
14.5299999,-2.2888567447662354,-10.27591323852539,-0.1604115068912506,28.3203125,-12.9241943359375,2.7923583984375
14.549999900000001,-2.298433542251587,-10.046070098876953,-0.26815059781074524,11.749267578125,-5.218505859375,-0.9765625
14.569999900000001,-2.2577321529388428,-9.80904483795166,-0.07661445438861847,-3.6468505859375,1.5869140625,1.678466796875
14.5899999,-2.169146776199341,-9.478644371032715,0.17477671802043915,-4.852294921875,-2.9144287109375,1.52587890625
14.6099999,-2.1571757793426514,-9.370905876159668,0.49799394607543945,-3.84521484375,-8.1634521484375,-2.8839111328125
14.629999900000001,-2.013523578643799,-9.363722801208496,0.9385270476341248,-9.9639892578125,0.18310546875,-9.27734375
14.649999900000001,-1.9847931861877441,-9.509769439697266,1.2497732639312744,-21.881103515625,19.9432373046875,-3.5858154296875
14.6699999,-2.006340980529785,-9.852140426635742,1.1300631761550903,-19.8822021484375,24.96337890625,7.354736328125
14.6899999,-2.319981336593628,-10.347740173339844,-0.15322890877723694,38.9862060546875,-19.0277099609375,4.974365234375
14.709999900000001,-2.3918075561523438,-10.266336441040039,-0.4692635238170624,40.130615234375,-18.5089111328125,0.030517578125
14.729999900000001,-2.3702597618103027,-9.962273597717285,-0.3280056416988373,17.3187255859375,-3.875732421875,1.739501953125
14.7499999,-2.3247697353363037,-9.478644371032715,0.1843535304069519,-0.823974609375,4.6539306640625,2.349853515625
14.7699999,-2.118868589401245,-9.10993766784668,0.7326257228851318,-9.3231201171875,-0.5645751953125,-4.974365234375
14.789999900000002,-2.073378562927246,-8.971074104309082,1.0893617868423462,-18.4173583984375,5.06591796875,-9.9945068359375
14.809999900000001,-2.006340980529785,-9.071630477905273,1.280897855758667,-23.13232421875,16.0675048828125,-6.0272216796875
14.8299999,-2.008735179901123,-9.555258750915527,1.1563993692398071,-23.25439453125,17.02880859375,1.739501953125
14.8499999,-2.1356279850006104,-9.986215591430664,0.5961562395095825,-12.14599609375,8.087158203125,5.6915283203125
14.8699999,-2.3080103397369385,-10.311826705932617,0.07422025501728058,15.838623046875,-7.8582763671875,7.598876953125
14.889999900000001,-2.4229321479797363,-10.417171478271484,-0.44532153010368347,29.6173095703125,-14.46533203125,3.2958984375
14.9099999,-2.434903144836426,-10.132261276245117,-0.4357447028160095,26.18408203125,-14.3280029296875,-0.885009765625
14.9299999,-2.3558945655822754,-9.773131370544434,-0.0694318488240242,17.059326171875,-7.1868896484375,-0.885009765625
14.9499999,-2.1475989818573,-9.370905876159668,0.5841852426528931,4.180908203125,1.007080078125,-2.1820068359375
14.969999900000001,-2.0446481704711914,-9.17697525024414,1.1803414821624756,-11.871337890625,8.9874267578125,-5.2642822265625
14.9899999,-1.9632453918457031,-9.160215377807617,1.4532804489135742,-25.1617431640625,19.866943359375,-4.82177734375
15.0099999,-1.9943699836730957,-9.459490776062012,1.3407529592514038,-22.247314453125,15.899658203125,3.4332275390625
15.0299999,-2.1523873805999756,-9.725247383117676,0.6943184733390808,-11.4288330078125,7.476806640625,5.8135986328125
15.049999900000001,-2.276885747909546,-10.029311180114746,0.09576806426048279,7.171630859375,-5.096435546875,4.9285888671875
15.069999900000001,-2.4612393379211426,-10.15141487121582,-0.4381389021873474,14.3280029296875,-13.4429931640625,2.44140625
15.0899999,-2.4588451385498047,-10.019734382629395,-0.49559974670410156,12.0697021484375,-14.6636962890625,0.42724609375
15.1099999,-2.3750481605529785,-9.725247383117676,-0.15801730751991272,10.1776123046875,-6.7596435546875,0.152587890625
15.129999900000001,-2.2361843585968018,-9.378087997436523,0.4572925269603729,2.25830078125,-0.8697509765625,-5.9356689453125
15.149999900000001,-2.0159177780151367,-9.181763648986816,1.1061211824417114,-12.39013671875,7.3699951171875,-11.2457275390625
15.1699999,-1.9345149993896484,-9.184157371520996,1.4844050407409668,-23.3306884765625,20.5078125,-7.568359375
15.1899999,-1.968033790588379,-9.493009567260742,1.3838485479354858,-23.5137939453125,22.796630859375,3.47900390625
15.209999900000001,-2.094926595687866,-9.847352027893066,0.7230489253997803,-8.9569091796875,7.6904296875,4.241943359375
15.229999900000001,-2.3271639347076416,-10.20887565612793,-0.028730420395731926,16.1590576171875,-11.7950439453125,3.5552978515625
15.2499999,-2.4827871322631836,-10.371682167053223,-0.6512228846549988,32.65380859375,-19.9737548828125,2.044677734375
15.2699999,-2.4660277366638184,-10.235212326049805,-0.7015010714530945,36.80419921875,-17.0745849609375,-0.2593994140625
15.289999900000002,-2.346317768096924,-9.931148529052734,-0.24181437492370605,28.6407470703125,-9.2620849609375,-0.1983642578125
15.309999900000001,-2.118868589401245,-9.466673851013184,0.5937620401382446,7.9345703125,-0.42724609375,-5.279541015625
15.3299999,-1.9105730056762695,-9.14585018157959,1.3886369466781616,-18.1884765625,12.39013671875,-6.6680908203125
15.3499999,-1.8842366933822632,-8.966285705566406,1.8171991109848022,-36.0260009765625,26.1688232421875,-4.9285888671875
15.3699999,-1.9488801956176758,-9.222464561462402,1.6328455209732056,-34.5001220703125,20.08056640625,0
15.389999900000001,-2.1499931812286377,-9.581595420837402,0.8020575642585754,-16.204833984375,5.9356689453125,1.5869140625
15.4099999,-2.3798365592956543,-10.038887977600098,-0.1149216815829277,12.5732421875,-12.298583984375,6.1492919921875
15.4299999,-2.5067291259765625,-10.359710693359375,-0.7709329724311829,29.937744140625,-23.37646484375,2.105712890625
15.4499999,-2.4181437492370605,-10.259154319763184,-0.7445967197418213,32.1807861328125,-24.261474609375,-2.3345947265625
15.469999900000001,-2.293645143508911,-9.99100399017334,-0.021547814831137657,19.1802978515625,-9.2620849609375,-0.457763671875
15.4899999,-2.0422539710998535,-9.516951560974121,1.0103530883789062,-7.171630859375,9.765625,-2.50244140625
15.5099999,-1.8938134908676147,-9.205705642700195,1.7549498081207275,-31.494140625,23.2391357421875,-4.119873046875
15.5299999,-1.8579005002975464,-9.133879661560059,1.9177556037902832,-35.552978515625,26.4739990234375,-3.814697265625
15.549999900000001,-1.9704279899597168,-9.457097053527832,1.2665326595306396,-18.4326171875,12.8173828125,1.922607421875
15.569999900000001,-2.1164743900299072,-9.751583099365234,0.3208230137825012,7.293701171875,-5.2642822265625,2.044677734375
15.5899999,-2.3535003662109375,-10.20648193359375,-0.4644751250743866,23.25439453125,-17.913818359375,4.2877197265625
15.6099999,-2.4205379486083984,-10.189722061157227,-0.706289529800415,25.08544921875,-17.425537109375,-2.3040771484375
15.629999900000001,-2.4420857429504395,-10.012551307678223,-0.35434186458587646,19.10400390625,-8.209228515625,-2.13623046875
15.649999900000001,-2.3032219409942627,-9.658209800720215,0.45250412821769714,6.6680908203125,0.18310546875,-2.593994140625
15.6699999,-2.0877439975738525,-9.279925346374512,1.259350061416626,-14.1143798828125,9.2620849609375,-5.3863525390625
15.6899999,-1.9249382019042969,-9.193734169006348,1.702277421951294,-35.2325439453125,24.8870849609375,-4.364013671875
15.709999900000001,-1.8842366933822632,-9.272743225097656,1.558625340461731,-34.60693359375,26.9012451171875,-1.2054443359375
15.729999900000001,-2.03507137298584,-9.68933391571045,0.6847416758537292,-14.190673828125,8.5296630859375,2.0751953125
15.7499999,-2.233790159225464,-9.971850395202637,-0.17717093229293823,12.481689453125,-16.11328125,3.84521484375
15.7699999,-2.4229321479797363,-10.268731117248535,-0.8547300100326538,22.8118896484375,-24.0631103515625,4.791259765625
15.789999900000002,-2.427720546722412,-10.163386344909668,-0.7781155705451965,23.6968994140625,-18.0816650390625,-3.41796875
15.809999900000001,-2.2816741466522217,-9.93593692779541,-0.17477671802043915,14.404296875,-4.7607421875,-2.3345947265625
15.8299999,-2.075772762298584,-9.53849983215332,0.7445967197418213,-2.471923828125,3.2958984375,-1.7547607421875
15.8499999,-1.8818424940109253,-9.239224433898926,1.5059528350830078,-22.5982666015625,12.02392578125,-3.692626953125
15.869999900000002,-1.8291701078414917,-9.21288776397705,1.778891921043396,-36.62109375,26.9012451171875,-6.1187744140625
15.889999900000001,-1.9081788063049316,-9.452308654785156,1.3862427473068237,-27.8472900390625,21.7132568359375,-0.2593994140625
15.9099999,-2.161964178085327,-9.986215591430664,0.3998316824436188,-0.152587890625,-1.8463134765625,4.2877197265625
15.9299999,-2.3726539611816406,-10.304644584655762,-0.5123591423034668,31.92138671875,-21.8658447265625,7.7972412109375
15.9499999,-2.5498247146606445,-10.57040023803711,-0.933738648891449,46.7376708984375,-27.0843505859375,5.9967041015625
15.969999900000001,-2.425326347351074,-10.225635528564453,-0.6416460275650024,36.2701416015625,-15.838623046875,-3.326416015625
15.9899999,-2.3247697353363037,-9.801861763000488,0.15083470940589905,16.571044921875,1.2664794921875,0.1373291015625
16.0099999,-2.0183119773864746,-9.165003776550293,1.0582371950149536,-2.5177001953125,8.8653564453125,-0.335693359375
16.0299999,-1.8411411046981812,-8.81784439086914,1.7525556087493896,-25.1922607421875,9.9029541015625,-5.9051513671875
16.0499999,-1.6879122257232666,-8.779537200927734,1.9536685943603516,-47.210693359375,26.397705078125,-11.993408203125
16.0699999,-1.800439715385437,-9.157821655273438,1.4628572463989258,-48.3856201171875,28.8848876953125,0.9002685546875
16.089999900000002,-1.9967641830444336,-9.837775230407715,0.507570743560791,-25.0244140625,7.6446533203125,7.6141357421875
16.109999900000002,-2.315192937850952,-10.304644584655762,-0.6440402865409851,9.6588134765625,-20.20263671875,9.0179443359375
16.1299999,-2.5282769203186035,-10.608707427978516,-1.173158884048462,31.402587890625,-33.3404541015625,6.3629150390625
16.1499999,-2.4899697303771973,-10.378864288330078,-1.0558429956436157,27.923583984375,-19.5770263671875,-3.814697265625
16.1699999,-2.296039342880249,-10.007762908935547,-0.12689268589019775,15.19775390625,-3.9825439453125,0.152587890625
16.1899999,-2.0231003761291504,-9.38048267364502,0.9457096457481384,-7.7667236328125,10.8184814453125,-1.2359619140625
16.2099999,-1.8818424940109253,-9.081207275390625,1.6879122257232666,-32.5775146484375,20.5535888671875,-0.9918212890625
16.2299999,-1.845929503440857,-9.014169692993164,1.7070658206939697,-40.83251953125,25.4058837890625,-6.805419921875
16.249999900000002,-2.099714994430542,-9.363722801208496,0.9744400978088379,-22.15576171875,15.838623046875,-2.6702880859375
16.269999900000002,-2.276885747909546,-9.976638793945312,-0.08619125932455063,14.9993896484375,-12.8021240234375,5.3863525390625
16.2899999,-2.4899697303771973,-10.309432983398438,-0.8930372595787048,41.2139892578125,-27.16064453125,5.2032470703125
16.3099999,-2.4803929328918457,-10.441113471984863,-0.8906430602073669,43.7774658203125,-22.9644775390625,4.6234130859375
16.3299999,-2.2840683460235596,-10.08198356628418,-0.2106897532939911,20.4925537109375,-7.32421875,-2.532958984375
16.3499999,-2.1308395862579346,-9.66299819946289,0.5482721924781799,-7.1258544921875,12.786865234375,-2.9449462890625
16.3699999,-2.011129379272461,-9.301473617553711,1.2090718746185303,-13.00048828125,11.23046875,1.0528564453125
16.3899999,-1.9512743949890137,-8.975862503051758,1.4221558570861816,-16.021728515625,4.608154296875,0.3814697265625
16.4099999,-2.03507137298584,-9.08838939666748,1.2665326595306396,-34.3475341796875,10.8795166015625,-4.3792724609375
16.429999900000002,-2.073378562927246,-9.27034854888916,0.8667010068893433,-39.9169921875,18.7835693359375,-8.392333984375
16.4499999,-2.231395959854126,-9.852140426635742,0.16519992053508759,-15.7623291015625,5.9356689453125,5.706787109375
16.4699999,-2.38462495803833,-10.390835762023926,-0.5985504388809204,20.5841064453125,-15.167236328125,8.9263916015625
16.4899999,-2.516305923461914,-10.687716484069824,-1.0079588890075684,50.59814453125,-28.9306640625,6.8511962890625
16.5099999,-2.518700122833252,-10.556035041809082,-0.7182605266571045,52.6580810546875,-26.8707275390625,3.448486328125
16.5299999,-2.2912509441375732,-10.022128105163574,0.12449848651885986,29.0985107421875,-7.7972412109375,-1.6021728515625
16.5499999,-2.0925323963165283,-9.435548782348633,1.1180921792984009,-0.1220703125,15.6097412109375,-4.180908203125
16.5699999,-1.8507179021835327,-8.925583839416504,1.7166426181793213,-21.8505859375,21.942138671875,-2.7313232421875
16.589999900000002,-1.8986018896102905,-8.884882926940918,1.6903064250946045,-29.388427734375,16.082763671875,-1.7547607421875
16.609999900000002,-2.0254945755004883,-9.153033256530762,1.0271124839782715,-16.815185546875,8.8043212890625,-4.364013671875
16.6299999,-2.27209734916687,-9.59835433959961,0.3495534360408783,5.5694580078125,-7.354736328125,0.946044921875
16.6499999,-2.365471363067627,-9.96945571899414,-0.1412578970193863,15.045166015625,-11.444091796875,2.74658203125
16.6699999,-2.427720546722412,-10.110713958740234,-0.2346317619085312,10.68115234375,-3.936767578125,3.84521484375
16.6899999,-2.367865562438965,-9.998186111450195,0.07661445438861847,4.0130615234375,-2.3956298828125,2.7923583984375
16.7099999,-2.315192937850952,-9.830592155456543,0.2944868206977844,-1.6632080078125,-0.42724609375,-2.25830078125
16.7299999,-2.2673089504241943,-9.658209800720215,0.5410895943641663,5.9967041015625,-4.1046142578125,-3.5552978515625
16.749999900000002,-2.2409727573394775,-9.53849983215332,0.7757213711738586,5.218505859375,-4.1351318359375,-3.9215087890625
16.769999900000002,-2.1332337856292725,-9.469067573547363,1.0055646896362305,-9.0179443359375,5.55419921875,-1.5869140625
16.7899999,-2.1092917919158936,-9.514557838439941,1.1875240802764893,-20.93505859375,15.19775390625,-0.7781982421875
16.8099999,-2.1356279850006104,-9.660603523254395,1.0414776802062988,-16.021728515625,13.458251953125,-0.2899169921875
16.8299999,-2.2194249629974365,-9.864110946655273,0.5889736413955688,5.2490234375,1.46484375,2.7313232421875
16.8499999,-2.38462495803833,-10.086771965026855,0.009576806798577309,23.3612060546875,-9.2926025390625,2.7313232421875
16.8699999,-2.4396915435791016,-10.103530883789062,-0.33279404044151306,33.3251953125,-17.578125,2.197265625
16.8899999,-2.408566951751709,-9.940725326538086,-0.14365209639072418,32.440185546875,-17.547607421875,-1.8157958984375
16.9099999,-2.209848165512085,-9.68694019317627,0.47165772318840027,18.1732177734375,-4.0130615234375,-4.791259765625
16.929999900000002,-2.051830768585205,-9.296685218811035,1.2066776752471924,-9.033203125,15.6707763671875,-5.92041015625
16.9499999,-1.900996208190918,-9.172186851501465,1.6759412288665771,-26.8402099609375,20.8282470703125,-3.0975341796875
16.9699999,-1.9823989868164062,-9.193734169006348,1.6065093278884888,-25.7415771484375,16.448974609375,-4.08935546875
16.9899999,-2.118868589401245,-9.576807022094727,1.0438719987869263,-10.406494140625,4.3182373046875,-1.52587890625
17.0099999,-2.27209734916687,-9.864110946655273,0.42856210470199585,7.4462890625,-5.2337646484375,1.617431640625
17.0299999,-2.38462495803833,-10.137049674987793,-0.05027823522686958,12.7716064453125,-7.9345703125,6.0577392578125
17.0499999,-2.3511061668395996,-10.103530883789062,-0.043095629662275314,8.697509765625,-9.5367431640625,2.6397705078125
17.0699999,-2.31758713722229,-9.883264541625977,0.05027823522686958,3.9825439453125,-3.1585693359375,-5.584716796875
17.089999900000002,-2.2002713680267334,-9.742006301879883,0.42377370595932007,8.1939697265625,-3.7841796875,-3.9215087890625
17.109999900000002,-2.1547815799713135,-9.48343276977539,0.7757213711738586,6.011962890625,-5.31005859375,-3.41796875
17.1299999,-2.0614075660705566,-9.445125579833984,1.091755986213684,-10.833740234375,6.53076171875,-2.410888671875
17.1499999,-2.030282974243164,-9.48343276977539,1.3718775510787964,-19.775390625,11.749267578125,-0.54931640625
17.1699999,-2.078166961669922,-9.636661529541016,1.1779472827911377,-19.866943359375,11.53564453125,1.8157958984375
17.1899999,-2.1787235736846924,-9.849745750427246,0.7541735172271729,-2.13623046875,2.86865234375,6.591796875
17.2099999,-2.3056161403656006,-9.99339771270752,0.22266076505184174,18.5394287109375,-14.068603515625,5.035400390625
17.2299999,-2.3918075561523438,-9.981427192687988,-0.035913024097681046,24.4903564453125,-18.37158203125,-2.3345947265625
17.249999900000002,-2.2649147510528564,-9.797073364257812,0.3471592366695404,16.2353515625,-9.46044921875,-4.058837890625
17.269999900000002,-2.1595699787139893,-9.502586364746094,0.9409212470054626,-9.3994140625,10.3302001953125,-3.7689208984375
17.2899999,-2.013523578643799,-9.26795482635498,1.3766659498214722,-32.71484375,25.3143310546875,-2.685546875
17.3099999,-1.9943699836730957,-9.241618156433105,1.4389152526855469,-33.7982177734375,16.357421875,-2.685546875
17.3299999,-2.0805611610412598,-9.495404243469238,0.9528923034667969,-19.744873046875,1.8463134765625,-2.044677734375
17.3499999,-2.22660756111145,-9.921571731567383,0.21547815203666687,-3.35693359375,-1.8157958984375,0.9765625
17.3699999,-2.343923568725586,-10.302249908447266,-0.304063618183136,17.6849365234375,-11.6424560546875,5.645751953125
17.3899999,-2.43011474609375,-10.405200958251953,-0.4572925269603729,31.31103515625,-21.8505859375,5.9051513671875
17.409999900000003,-2.33913516998291,-10.108319282531738,-0.05027823522686958,27.3895263671875,-16.5252685546875,0.6103515625
17.429999900000002,-2.1571757793426514,-9.667786598205566,0.849941611289978,2.410888671875,2.044677734375,-2.777099609375
17.4499999,-1.9177556037902832,-9.217676162719727,1.501164436340332,-31.9061279296875,26.275634765625,-6.0577392578125
17.4699999,-1.889025092124939,-9.117119789123535,1.5514427423477173,-40.2984619140625,28.900146484375,-3.41796875
17.4899999,-1.9967641830444336,-9.368511199951172,0.9648633003234863,-10.498046875,3.936767578125,-0.579833984375
17.5099999,-2.2457611560821533,-9.871294021606445,0.12210428714752197,21.148681640625,-21.8963623046875,3.2958984375
17.5299999,-2.2433669567108154,-10.113107681274414,0.016759412363171577,25.665283203125,-22.003173828125,2.471923828125
17.5499999,-2.2840683460235596,-10.129867553710938,0.1604115068912506,-3.5247802734375,10.9710693359375,6.7138671875
17.5699999,-2.2146365642547607,-9.892841339111328,0.5315127968788147,-18.2342529296875,22.94921875,6.04248046875
17.589999900000002,-2.229001760482788,-9.586383819580078,0.5027823448181152,1.495361328125,-3.4637451171875,-0.1983642578125
17.609999900000002,-2.3247697353363037,-9.44752025604248,0.40222588181495667,16.5863037109375,-20.5841064453125,-4.0740966796875
17.6299999,-2.2146365642547607,-9.339780807495117,0.5530605912208557,3.6163330078125,-11.871337890625,-5.5389404296875
17.6499999,-2.145204782485962,-9.394847869873047,0.8212111592292786,-29.23583984375,21.54541015625,-4.7454833984375
17.6699999,-2.118868589401245,-9.552865028381348,0.9983820915222168,-29.2205810546875,23.5137939453125,1.9683837890625
17.6899999,-2.1356279850006104,-9.832986831665039,0.7350199222564697,-4.2572021484375,-1.434326171875,5.645751953125
17.7099999,-2.2864625453948975,-10.170568466186523,0.272938996553421,15.1214599609375,-15.07568359375,5.126953125
17.7299999,-2.2242133617401123,-10.199298858642578,0.13407529890537262,15.3961181640625,-8.026123046875,5.462646484375
17.749999900000002,-2.188300371170044,-9.90241813659668,0.4213795065879822,-6.0577392578125,5.0048828125,5.096435546875
17.769999900000002,-2.118868589401245,-9.519346237182617,0.6991068720817566,-42.29736328125,20.69091796875,2.25830078125
17.7899999,-2.296039342880249,-9.215282440185547,0.3232172429561615,-54.0924072265625,18.1732177734375,-0.244140625
17.8099999,-2.343923568725586,-9.342175483703613,0.047884032130241394,-11.8255615234375,-20.5841064453125,-2.9449462890625
17.8299999,-2.255337953567505,-9.516951560974121,0.05985504388809204,13.7939453125,-32.8369140625,-3.753662109375
17.8499999,-2.126051187515259,-9.773131370544434,0.43095630407333374,-25.8026123046875,21.78955078125,1.434326171875
17.8699999,-2.056619167327881,-9.864110946655273,0.6703764796257019,-62.7899169921875,54.229736328125,9.21630859375
17.8899999,-2.2673089504241943,-10.055646896362305,0.1412578970193863,-34.8358154296875,10.80322265625,11.932373046875
17.909999900000003,-2.535459518432617,-10.022128105163574,-0.9265560507774353,32.8369140625,-43.0450439453125,4.730224609375
17.929999900000002,-2.6168625354766846,-10.031704902648926,-1.1013327836990356,71.59423828125,-54.3365478515625,-2.9296875
17.9499999,-2.279279947280884,-9.586383819580078,-0.23702596127986908,26.885986328125,-0.396728515625,-7.9803466796875
17.9699999,-1.9752163887023926,-9.167398452758789,0.8164227604866028,-57.281494140625,62.347412109375,-3.11279296875
17.9899999,-1.9129672050476074,-8.846575736999512,1.1635819673538208,-82.550048828125,49.1790771484375,6.8817138671875
18.0099999,-2.1595699787139893,-9.01895809173584,0.13407529890537262,-51.81884765625,-8.4228515625,10.31494140625
18.0299999,-2.535459518432617,-9.265560150146484,-0.9600749015808105,-15.4571533203125,-37.017822265625,1.5106201171875
18.0499999,-2.6384103298187256,-9.75397777557373,-1.3623007535934448,-1.2969970703125,-29.4952392578125,-8.331298828125
18.0699999,-2.5019407272338867,-10.065223693847656,-0.8667010068893433,-6.5765380859375,9.58251953125,-8.4075927734375
18.089999900000002,-2.365471363067627,-10.460267066955566,-0.4118026793003082,-4.119873046875,25.0091552734375,5.2642822265625
18.109999900000002,-2.3080103397369385,-10.541669845581055,-0.2537853717803955,16.3726806640625,2.25830078125,15.0299072265625
18.1299999,-2.346317768096924,-10.338163375854492,-0.4572925269603729,25.634765625,-20.6756591796875,8.0718994140625
18.1499999,-2.5306711196899414,-10.014945983886719,-0.8643068075180054,5.7830810546875,-4.21142578125,0.823974609375
18.1699999,-2.387019157409668,-9.454702377319336,-0.5913678407669067,12.8173828125,-11.53564453125,-4.3792724609375
18.1899999,-2.3056161403656006,-9.057265281677246,-0.021547814831137657,7.7362060546875,-2.7313232421875,-6.8359375
18.2099999,-2.2673089504241943,-9.17697525024414,-0.12689268589019775,-30.975341796875,28.2745361328125,-3.0364990234375
18.2299999,-2.322375535964966,-9.334992408752441,-0.10055647045373917,-26.2603759765625,9.002685546875,8.6669921875
18.249999900000002,-2.4444799423217773,-9.588777542114258,-0.4884171485900879,-7.8125,-20.44677734375,7.7056884765625
18.269999900000002,-2.4588451385498047,-9.830592155456543,-0.9002198576927185,-9.9639892578125,-9.7808837890625,3.2196044921875
18.2899999,-2.1930887699127197,-9.787496566772461,-0.5123591423034668,-2.227783203125,-3.7689208984375,-1.5716552734375
18.3099999,-2.1308395862579346,-9.610325813293457,-0.07661445438861847,-9.7503662109375,17.2271728515625,-4.150390625
18.3299999,-2.142810583114624,-9.68694019317627,-0.21787235140800476,-28.839111328125,32.8521728515625,2.4261474609375
18.3499999,-2.5330653190612793,-9.921571731567383,-0.8379706144332886,-13.36669921875,-0.79345703125,13.1378173828125
18.3699999,-2.87064790725708,-10.08198356628418,-1.3551181554794312,26.275634765625,-41.9464111328125,14.9993896484375
18.3899999,-2.9448680877685547,-10.180145263671875,-1.4508862495422363,27.862548828125,-29.1290283203125,11.4898681640625
18.409999900000003,-2.806004285812378,-10.005369186401367,-0.9888052940368652,8.6517333984375,11.2762451171875,5.0506591796875
18.429999900000002,-2.494758129119873,-9.440337181091309,0.10534487664699554,14.46533203125,13.458251953125,0.946044921875
18.4499999,-2.3511061668395996,-9.14345645904541,0.20350714027881622,-8.5601806640625,20.1416015625,-3.5858154296875
18.4699999,-2.5761611461639404,-9.232041358947754,-0.49799394607543945,10.3912353515625,-34.698486328125,6.622314453125
18.4899999,-2.8371291160583496,-9.682151794433594,-1.0582371950149536,-1.5411376953125,-11.8865966796875,6.8359375
18.5099999,-2.8227639198303223,-9.9000244140625,-0.8906430602073669,-10.284423828125,19.6075439453125,8.11767578125
18.5299999,-2.6216509342193604,-9.854534149169922,-0.24181437492370605,27.2369384765625,-5.828857421875,7.293701171875
18.5499999,-2.6599581241607666,-9.911994934082031,-0.33039984107017517,20.44677734375,7.0343017578125,3.6163330078125
18.5699999,-2.612074136734009,-9.785101890563965,-0.21308395266532898,14.4500732421875,10.6658935546875,5.79833984375
18.589999900000002,-2.6144683361053467,-9.5624418258667,-0.2537853717803955,16.693115234375,-3.2196044921875,4.669189453125
18.609999900000002,-2.7030537128448486,-9.421183586120605,-0.4572925269603729,1.556396484375,1.7547607421875,1.2664794921875
18.6299999,-2.7437551021575928,-9.263166427612305,-0.4908113479614258,-4.0435791015625,2.9754638671875,0.2593994140625
18.6499999,-2.762908697128296,-9.21288776397705,-0.47165772318840027,-3.0670166015625,-2.1209716796875,-1.0528564453125
18.6699999,-2.7940332889556885,-9.32302188873291,-0.47884035110473633,-3.7078857421875,1.2664794921875,-0.152587890625
18.6899999,-2.7892448902130127,-9.476250648498535,-0.395043283700943,0.946044921875,1.28173828125,1.5716552734375
18.7099999,-2.765302896499634,-9.57201862335205,-0.3016694188117981,3.662109375,-1.007080078125,1.434326171875
18.7299999,-2.7892448902130127,-9.66299819946289,-0.3232172429561615,-0.1678466796875,3.173828125,0.732421875
18.749999900000002,-2.765302896499634,-9.57441234588623,-0.26336219906806946,-0.1220703125,0.7476806640625,-1.46484375
18.769999900000002,-2.762908697128296,-9.500192642211914,-0.304063618183136,-2.227783203125,-0.244140625,-4.1961669921875
18.7899999,-2.760514497756958,-9.493009567260742,-0.3519476354122162,-4.852294921875,1.800537109375,-4.7607421875
18.8099999,-2.7461493015289307,-9.536105155944824,-0.3423708379268646,-1.89208984375,0.3662109375,-2.50244140625
18.8299999,-2.741360902786255,-9.651026725769043,-0.33518823981285095,-0.0762939453125,0.457763671875,0.9765625
18.8499999,-2.7533318996429443,-9.765948295593262,-0.36152446269989014,-0.6561279296875,3.0975341796875,2.044677734375
18.8699999,-2.7437551021575928,-9.797073364257812,-0.2992752194404602,3.7689208984375,1.0986328125,2.0294189453125
18.8899999,-2.7676970958709717,-9.787496566772461,-0.38067805767059326,5.4473876953125,1.129150390625,2.5177001953125
18.909999900000003,-2.7437551021575928,-9.603142738342285,-0.2968810200691223,5.8441162109375,-1.7547607421875,1.556396484375
18.929999900000002,-2.806004285812378,-9.478644371032715,-0.586579442024231,0.5950927734375,-5.8441162109375,-0.2593994140625
18.9499999,-2.760514497756958,-9.21288776397705,-0.47405192255973816,-8.60595703125,-10.711669921875,-3.662109375
18.9699999,-2.779668092727661,-9.186552047729492,-0.6727706789970398,-18.24951171875,-2.9754638671875,-9.70458984375
18.9899999,-2.6886885166168213,-9.296685218811035,-0.4141969084739685,-6.4239501953125,-4.608154296875,-6.9580078125
19.0099999,-2.671929121017456,-9.648633003234863,-0.22744916379451752,3.265380859375,2.8076171875,-2.899169921875
19.0299999,-2.6384103298187256,-9.947908401489258,-0.014365210197865963,11.5509033203125,8.4075927734375,3.23486328125
19.0499999,-2.669534921646118,-10.034099578857422,0.009576806798577309,16.54052734375,5.0201416015625,3.6163330078125
19.0699999,-2.698265314102173,-9.816226959228516,-0.12210428714752197,6.1492919921875,2.593994140625,-2.25830078125
19.089999900000002,-2.717418909072876,-9.409213066101074,-0.3878606855869293,-5.7220458984375,-0.030517578125,-9.33837890625
19.109999900000002,-2.719813108444214,-9.100360870361328,-0.5913678407669067,-7.4615478515625,-3.96728515625,-13.7176513671875
19.1299999,-2.7222073078155518,-9.095572471618652,-0.6991068720817566,-6.34765625,-6.6680908203125,-12.9547119140625
19.1499999,-2.7006595134735107,-9.418789863586426,-0.6177040338516235,-6.4849853515625,-6.7291259765625,-7.476806640625
19.1699999,-2.6862943172454834,-9.895236015319824,-0.507570743560791,-4.8828125,-2.3040771484375,1.9378662109375
19.1899999,-2.626439332962036,-10.230423927307129,-0.27054479718208313,3.4637451171875,-1.129150390625,8.4228515625
19.2099999,-2.5665841102600098,-10.290278434753418,-0.07900865375995636,7.598876953125,0.9307861328125,6.6375732421875
19.2299999,-2.564189910888672,-10.132261276245117,-0.11013327538967133,4.638671875,7.8887939453125,1.2359619140625
19.249999900000002,-2.5474305152893066,-9.799467086791992,-0.07182604819536209,6.3629150390625,1.4495849609375,-0.640869140625
19.269999900000002,-2.607285737991333,-9.670180320739746,-0.21787235140800476,-0.5035400390625,-0.0457763671875,1.40380859375
19.2899999,-2.6839001178741455,-9.763554573059082,-0.38307225704193115,-8.8958740234375,3.143310546875,7.8277587890625
19.3099999,-2.698265314102173,-9.785101890563965,-0.3974374830722809,-5.18798828125,-1.4190673828125,15.228271484375
19.3299999,-2.7030537128448486,-9.6989107131958,-0.3974374830722809,-3.570556640625,-0.9613037109375,11.6424560546875
19.3499999,-2.669534921646118,-9.349357604980469,-0.38067805767059326,-6.439208984375,5.5694580078125,-0.4730224609375
19.3699999,-2.6240451335906982,-9.004592895507812,-0.26575639843940735,0.1678466796875,3.8909912109375,-13.519287109375
19.3899999,-2.647987127304077,-8.949525833129883,-0.2968810200691223,6.4544677734375,3.7841796875,-14.0838623046875
19.409999900000003,-2.6815059185028076,-9.26795482635498,-0.29209262132644653,4.39453125,2.5177001953125,-3.814697265625
19.429999900000002,-2.7222073078155518,-9.710882186889648,-0.35434186458587646,-3.8604736328125,1.7242431640625,6.1187744140625
19.4499999,-2.7557260990142822,-10.02452278137207,-0.40940847992897034,-5.0506591796875,2.410888671875,10.0555419921875
19.4699999,-2.760514497756958,-10.086771965026855,-0.3758896589279175,1.2969970703125,0.30517578125,6.16455078125
19.4899999,-2.765302896499634,-9.890447616577148,-0.33039984107017517,1.129150390625,2.6397705078125,3.2501220703125
19.5099999,-2.8395233154296875,-9.63187313079834,-0.26575639843940735,-2.5482177734375,7.7056884765625,2.2125244140625
19.5299999,-2.827552318572998,-9.47146224975586,-0.31124621629714966,0.06103515625,6.5155029296875,-1.4190673828125
19.5499999,-2.868253707885742,-9.564835548400879,-0.395043283700943,15.5487060546875,-2.410888671875,-0.7781982421875
19.5699999,-2.782062292098999,-9.706093788146973,-0.4692635238170624,36.3922119140625,-8.11767578125,1.251220703125
19.589999900000002,-2.7030537128448486,-9.852140426635742,-0.3064578175544739,43.0908203125,-4.364013671875,4.5166015625
19.609999900000002,-2.6815059185028076,-9.923966407775879,-0.2801215946674347,36.346435546875,3.5552978515625,0.30517578125
19.6299999,-2.691082715988159,-9.746794700622559,-0.06224924325942993,43.1671142578125,-2.197265625,-1.8463134765625
19.6499999,-2.8203697204589844,-9.643844604492188,-0.0694318488240242,41.259765625,-6.683349609375,2.0294189453125
19.6699999,-2.7940332889556885,-9.493009567260742,0.1412578970193863,26.2908935546875,-4.9896240234375,5.096435546875
19.6899999,-2.8634653091430664,-9.512163162231445,0.21308395266532898,5.462646484375,7.14111328125,3.7384033203125
19.7099999,-2.80361008644104,-9.53849983215332,0.33518823981285095,5.37109375,4.33349609375,3.9215087890625
19.7299999,-2.82515811920166,-9.526528358459473,0.4213795065879822,22.8118896484375,-6.5155029296875,3.2196044921875
19.749999900000002,-2.8155810832977295,-9.502586364746094,0.4381389021873474,31.646728515625,-5.340576171875,1.708984375
19.769999900000002,-2.8658595085144043,-9.435548782348633,0.6392518281936646,31.7230224609375,2.166748046875,-4.119873046875
19.7899999,-2.8227639198303223,-9.41639518737793,0.933738648891449,20.233154296875,8.5906982421875,-6.103515625
19.8099999,-2.894589900970459,-9.481039047241211,0.9026140570640564,4.5928955078125,13.8397216796875,-0.762939453125
19.8299999,-2.896984100341797,-9.493009567260742,0.8882488012313843,4.913330078125,-0.0762939453125,3.1280517578125
19.8499999,-2.875436305999756,-9.509769439697266,0.7757213711738586,5.401611328125,-9.246826171875,-1.220703125
19.8699999,-2.832340717315674,-9.476250648498535,0.6703764796257019,1.251220703125,1.3275146484375,-4.0130615234375
19.8899999,-2.7126305103302,-9.39245319366455,1.0127472877502441,3.35693359375,4.1351318359375,-1.89208984375
19.909999900000003,-2.652775526046753,-9.363722801208496,1.0558429956436157,-7.7056884765625,13.1683349609375,-0.1678466796875
19.929999900000002,-2.80361008644104,-9.342175483703613,0.9840168952941895,-12.7105712890625,15.533447265625,4.3792724609375
19.9499999,-2.9017724990844727,-9.282320022583008,0.7589619159698486,-4.7454833984375,-2.8076171875,1.861572265625
19.9699999,-3.1076738834381104,-9.313444137573242,0.4668693244457245,-4.8980712890625,-10.2081298828125,-3.326416015625
19.9899999,-3.1268274784088135,-9.334992408752441,0.5530605912208557,-11.7950439453125,-1.5106201171875,-4.69970703125
