# Time (seconds),Accel_X,Accel_Y,Accel_Z,Gyro_X,Gyro_Y,Gyro_Z
0.0099999,-9.509769439697266,-1.4987702369689941,-0.3758896589279175,2.7923583984375,-9.82666015625,8.026123046875
0.029999900000000003,-9.421183586120605,-1.6759412288665771,-0.3232172429561615,9.4757080078125,7.26318359375,7.6751708984375
0.0499999,-9.514557838439941,-1.7980455160140991,-0.395043283700943,17.6239013671875,8.0718994140625,7.8887939453125
0.0699999,-9.732429504394531,-1.8914192914962769,-0.5626373887062073,23.040771484375,9.674072265625,2.410888671875
0.08999990000000001,-9.99339771270752,-1.9321208000183105,-0.7134721279144287,26.7486572265625,12.4664306640625,-4.302978515625
0.10999990000000001,-10.17296314239502,-1.944091796875,-0.7996633648872375,29.6478271484375,12.9852294921875,-8.026123046875
0.1299999,-10.218452453613281,-1.9536685943603516,-0.7637503147125244,31.982421875,8.3465576171875,-6.622314453125
0.14999990000000002,-10.165780067443848,-1.922544002532959,-0.6153098344802856,29.0374755859375,7.01904296875,-1.0833740234375
0.1699999,-10.029311180114746,-1.8555063009262085,-0.36152446269989014,24.078369140625,10.6658935546875,1.495361328125
0.1899999,-9.895236015319824,-1.7118542194366455,-0.047884032130241394,18.6004638671875,8.3160400390625,3.9825439453125
0.20999990000000002,-9.785101890563965,-1.4915876388549805,0.24181437492370605,12.2528076171875,3.1280517578125,8.6517333984375
0.2299999,-9.701305389404297,-1.2449848651885986,0.47405192255973816,5.8135986328125,-0.6866455078125,11.6119384765625
0.2499999,-9.66539192199707,-1.0007762908935547,0.6153098344802856,1.5411376953125,-1.373291015625,12.14599609375
0.2699999,-9.66299819946289,-0.7805097699165344,0.6823474764823914,0.1220703125,-2.2430419921875,11.3372802734375
0.28999990000000003,-9.691728591918945,-0.6248866319656372,0.689530074596405,-2.8533935546875,-1.4495849609375,9.002685546875
0.3099999,-9.770736694335938,-0.5578489899635315,0.6392518281936646,-6.988525390625,1.251220703125,7.8277587890625
0.3299999,-9.931148529052734,-0.5674257874488831,0.5530605912208557,-7.50732421875,-0.2899169921875,8.148193359375
0.34999990000000003,-10.249577522277832,-0.6512228846549988,0.4405331015586853,-6.011962890625,-5.9967041015625,6.4697265625
0.3699999,-10.527304649353027,-0.8212111592292786,0.31842881441116333,-6.04248046875,-2.5482177734375,3.9520263671875
0.3899999,-10.797849655151367,-0.933738648891449,0.14844051003456116,-4.2724609375,1.2664794921875,5.5999755859375
0.40999990000000003,-10.83855152130127,-1.0749965906143188,-0.016759412363171577,1.220703125,-10.162353515625,4.33349609375
0.4299999,-10.721235275268555,-1.1994950771331787,-0.19871874153614044,9.4451904296875,-26.885986328125,5.5389404296875
0.4499999,-10.503362655639648,-1.290474772453308,-0.26815059781074524,19.989013671875,-34.698486328125,13.519287109375
0.4699999,-10.290278434753418,-1.3407529592514038,-0.19871874153614044,26.5655517578125,-29.4036865234375,16.54052734375
0.4899999,-10.137049674987793,-1.2761094570159912,0.009576806798577309,25.87890625,-21.2860107421875,11.6424560546875
0.5099999,-10.010157585144043,-1.1013327836990356,0.2944868206977844,20.477294921875,-22.857666015625,5.0506591796875
0.5299999,-9.825803756713867,-0.8619126081466675,0.586579442024231,12.664794921875,-23.6053466796875,2.6397705078125
0.5499999,-9.53849983215332,-0.6009446382522583,0.8355764150619507,1.8310546875,-8.7127685546875,2.7923583984375
0.5699999,-9.141061782836914,-0.3974374830722809,0.9696516990661621,-10.43701171875,15.7623291015625,2.8839111328125
0.5899998999999999,-8.774748802185059,-0.23702596127986908,0.9528923034667969,-20.7366943359375,29.0374755859375,5.3863525390625
0.6099998999999999,-8.78193187713623,-0.14604631066322327,0.7541735172271729,-26.2908935546875,28.86962890625,6.9732666015625
0.6299999,-9.246406555175781,-0.22505496442317963,0.47405192255973816,-23.4527587890625,13.0767822265625,0.823974609375
0.6499999,-9.90241813659668,-0.45010992884635925,0.17717093229293823,-20.7061767578125,0.9002685546875,-2.2125244140625
0.6699999,-10.541669845581055,-0.689530074596405,-0.043095629662275314,-14.9688720703125,4.0435791015625,8.1329345703125
0.6899999,-10.809821128845215,-0.9552865028381348,-0.19871874153614044,-7.0648193359375,-1.03759765625,7.4310302734375
0.7099999,-10.706870079040527,-1.091755986213684,-0.3064578175544739,2.471923828125,-6.6680908203125,1.9378662109375
0.7299998999999999,-10.457873344421387,-1.1180921792984009,-0.29209262132644653,9.2926025390625,-9.3841552734375,0.8544921875
0.7499998999999999,-10.213664054870605,-1.0749965906143188,-0.14844051003456116,7.1258544921875,-10.3912353515625,1.922607421875
0.7699999,-10.010157585144043,-0.9864110946655273,0.12689268589019775,1.0528564453125,-6.4697265625,4.94384765625
0.7899999,-9.86889934539795,-0.871489405632019,0.4357447028160095,-4.364013671875,-1.0833740234375,8.087158203125
0.8099999,-9.804255485534668,-0.7422025203704834,0.6847416758537292,-12.7410888671875,0.7171630859375,8.544921875
0.8299999,-9.785101890563965,-0.6560112833976746,0.8092401623725891,-21.05712890625,1.3580322265625,9.6588134765625
0.8499998999999999,-9.818621635437012,-0.6224924325942993,0.8307880163192749,-26.397705078125,2.3956298828125,11.3525390625
0.8699998999999999,-9.873687744140625,-0.6775590777397156,0.7158663272857666,-28.4576416015625,3.47900390625,12.51220703125
0.8899999,-9.93354320526123,-0.7350199222564697,0.5267243981361389,-25.543212890625,2.4566650390625,13.7786865234375
0.9099999,-9.99100399017334,-0.7733271718025208,0.2825157940387726,-16.0369873046875,-0.3662109375,14.4500732421875
0.9299999,-10.031704902648926,-0.6991068720817566,0.09816227108240128,-6.89697265625,-2.8076171875,12.786865234375
0.9499999,-10.041281700134277,-0.5386953949928284,0.035913024097681046,-6.6680908203125,-3.3721923828125,10.772705078125
0.9699998999999999,-10.036493301391602,-0.3064578175544739,0.11013327538967133,-15.5181884765625,-2.6702880859375,8.4991455078125
0.9899998999999999,-9.971850395202637,-0.13407529890537262,0.35913026332855225,-25.421142578125,-0.9765625,6.53076171875
1.0099999,-9.883264541625977,0.05027823522686958,0.5363011956214905,-30.8380126953125,2.7618408203125,5.2337646484375
1.0299999,-9.883264541625977,0.0933738648891449,0.6512228846549988,-28.472900390625,4.4403076171875,5.8441162109375
1.0499999,-9.849745750427246,0.08619125932455063,0.6488286852836609,-21.3623046875,4.791259765625,5.1116943359375
1.0699999,-9.938331604003906,0.011971008032560349,0.4812345504760742,-12.0697021484375,5.0048828125,5.950927734375
1.0899999,-10.055646896362305,-0.11252748221158981,0.2561795711517334,0.7781982421875,0.701904296875,3.8909912109375
1.1099999,-10.070012092590332,-0.26336219906806946,0.08140286058187485,10.0555419921875,-5.5084228515625,0.42724609375
1.1299999,-10.089165687561035,-0.3232172429561615,-0.0694318488240242,7.4005126953125,-4.3792724609375,-3.4027099609375
1.1499999,-10.000580787658691,-0.3447650372982025,-0.023942016065120697,1.64794921875,-3.4332275390625,-5.6915283203125
1.1699998999999999,-10.007762908935547,-0.40222588181495667,0.08140286058187485,-3.4942626953125,-2.2125244140625,-1.64794921875
1.1899998999999999,-9.916783332824707,-0.33997663855552673,0.20350714027881622,-6.5460205078125,2.9754638671875,2.593994140625
1.2099999,-10.02452278137207,-0.2753331959247589,0.4668693244457245,-4.8675537109375,1.4495849609375,6.9732666015625
1.2299999,-9.952696800231934,-0.1867477297782898,0.8020575642585754,-6.3323974609375,-3.5400390625,2.74658203125
1.2499999,-9.93593692779541,-0.07182604819536209,1.048660397529602,-15.2587890625,8.758544921875,-4.5013427734375
1.2699999,-9.916783332824707,-0.11252748221158981,1.1803414821624756,-16.0064697265625,18.4478759765625,-5.7525634765625
1.2899999,-9.861717224121094,-0.20350714027881622,1.0007762908935547,-8.2855224609375,13.092041015625,-3.2196044921875
1.3099999,-9.907206535339355,-0.3232172429561615,0.5003881454467773,-4.45556640625,14.0533447265625,0.91552734375
1.3299999,-10.055646896362305,-0.507570743560791,-0.13407529890537262,2.9144287109375,10.6048583984375,5.0201416015625
1.3499999,-10.158597946166992,-0.49320554733276367,-0.6799532771110535,16.9219970703125,-5.340576171875,2.38037109375
1.3699999,-10.237606048583984,-0.5339069962501526,-1.0558429956436157,22.735595703125,-15.3656005859375,-3.23486328125
1.3899999,-10.249577522277832,-0.5027823448181152,-1.213860273361206,22.4609375,-15.7012939453125,-6.4239501953125
1.4099999,-10.158597946166992,-0.3519476354122162,-0.9744400978088379,23.8494873046875,-17.608642578125,-5.18798828125
1.4299998999999999,-10.046070098876953,-0.22026655077934265,-0.49320554733276367,15.106201171875,-14.83154296875,-3.997802734375
1.4499999,-9.940725326538086,0,0.1388636976480484,-4.8980712890625,-10.3912353515625,1.4495849609375
1.4699999,-9.914389610290527,0.0454898327589035,0.7086837291717529,-15.7012939453125,-7.7056884765625,3.997802734375
1.4899999,-9.86889934539795,0.043095629662275314,1.0127472877502441,-12.6495361328125,-8.0108642578125,-3.1890869140625
1.5099999,-9.921571731567383,-0.13168109953403473,1.0199298858642578,-5.6304931640625,-7.4462890625,-6.8817138671875
1.5299999,-9.93354320526123,-0.3495534360408783,0.7637503147125244,6.2408447265625,-8.392333984375,-5.8441162109375
1.5499999,-9.971850395202637,-0.5195417404174805,0.4357447028160095,15.0299072265625,-10.1776123046875,-3.387451171875
1.5699999,-9.995792388916016,-0.646434485912323,0.1867477297782898,16.17431640625,-12.3138427734375,0.946044921875
1.5899999,-10.053253173828125,-0.6057330369949341,0.1173158809542656,12.7410888671875,-17.8680419921875,4.3182373046875
1.6099999,-10.062829971313477,-0.5889736413955688,0.2513911724090576,6.988525390625,-21.1944580078125,1.28173828125
1.6299999,-10.02452278137207,-0.5626373887062073,0.5147533416748047,2.593994140625,-17.5323486328125,-0.8087158203125
1.6499999,-9.947908401489258,-0.4620809257030487,1.05105459690094,0.274658203125,-9.3841552734375,0.8392333984375
1.6699999,-9.749189376831055,-0.2753331959247589,1.6759412288665771,-12.14599609375,-1.8310546875,2.0294189453125
1.6899998999999999,-9.648633003234863,0.002394201699644327,2.2601263523101807,-34.6527099609375,14.404296875,2.166748046875
1.7099999,-9.615114212036133,0.2753331959247589,2.5282769203186035,-46.1883544921875,24.444580078125,3.0975341796875
1.7299999,-9.646238327026367,0.3423708379268646,2.3582887649536133,-41.6412353515625,20.111083984375,0.946044921875
1.7499999,-9.758766174316406,0.07900865375995636,1.5969325304031372,-28.7933349609375,14.1448974609375,-4.57763671875
1.7699999,-9.952696800231934,-0.45250412821769714,0.6488286852836609,-7.080078125,12.725830078125,-3.4027099609375
1.7899999,-10.050858497619629,-0.9672574996948242,-0.29209262132644653,14.9078369140625,4.33349609375,0.79345703125
1.8099999,-10.18493366241455,-1.2617442607879639,-0.8786720037460327,24.35302734375,-3.4027099609375,4.33349609375
1.8299999,-10.256759643554688,-1.259350061416626,-1.1492167711257935,22.796630859375,-9.674072265625,9.2315673828125
1.8499999,-10.280701637268066,-1.0199298858642578,-1.0199298858642578,24.10888671875,-16.2506103515625,9.918212890625
1.8699999,-10.189722061157227,-0.6584054827690125,-0.6344634294509888,26.42822265625,-23.590087890625,3.96728515625
1.8899999,-10.067618370056152,-0.33039984107017517,-0.08140286058187485,21.514892578125,-22.3846435546875,0.732421875
1.9099999,-9.947908401489258,-0.023942016065120697,0.5267243981361389,13.2598876953125,-13.7786865234375,-0.54931640625
1.9299998999999999,-9.773131370544434,0.21547815203666687,1.1563993692398071,1.251220703125,-7.049560546875,-0.6103515625
1.9499999,-9.744400978088379,0.33758243918418884,1.6041151285171509,-14.373779296875,-1.190185546875,3.997802734375
1.9699999,-9.801861763000488,0.35673606395721436,1.7812861204147339,-20.8587646484375,0.0457763671875,6.195068359375
1.9899999,-9.80904483795166,0.19153612852096558,1.723825216293335,-13.36669921875,-3.570556640625,3.4942626953125
2.0099999,-9.904812812805176,-0.0694318488240242,1.50355863571167,-3.7078857421875,-7.6141357421875,0.0152587890625
2.0299999,-9.895236015319824,-0.24181437492370605,1.3503297567367554,-0.6103515625,-2.6092529296875,-0.6866455078125
2.0499999,-9.864110946655273,-0.3232172429561615,1.3886369466781616,-6.9732666015625,4.1351318359375,-1.8463134765625
2.0699999,-9.801861763000488,-0.1867477297782898,1.5203180313110352,-22.918701171875,12.87841796875,-1.739501953125
2.0899999,-9.794678688049316,-0.026336219161748886,1.558625340461731,-34.97314453125,19.6075439453125,2.4566650390625
2.1099999,-9.823410034179688,0.1149216815829277,1.4987702369689941,-32.16552734375,14.404296875,3.3111572265625
2.1299999,-9.880870819091797,0.014365210197865963,1.1659762859344482,-24.3072509765625,8.636474609375,-2.105712890625
2.1499999,-9.983820915222168,-0.21308395266532898,0.7230489253997803,-10.162353515625,9.0484619140625,-4.4708251953125
2.1699999,-10.04846477508545,-0.4836287498474121,0.33997663855552673,6.34765625,7.598876953125,-4.7607421875
2.1899999,-10.005369186401367,-0.6560112833976746,0.038307227194309235,12.3291015625,3.265380859375,-4.3792724609375
2.2099999,-10.091560363769531,-0.768538773059845,-0.13168109953403473,8.8348388671875,2.0599365234375,1.3885498046875
2.2299999,-10.055646896362305,-0.7733271718025208,-0.26096799969673157,9.613037109375,-0.8392333984375,6.805419921875
2.2499999,-10.093954086303711,-0.730231523513794,-0.24660277366638184,20.3857421875,-12.3138427734375,7.3699951171875
2.2699999,-10.132261276245117,-0.6368576288223267,-0.272938996553421,26.5655517578125,-20.263671875,2.5482177734375
2.2899999,-10.065223693847656,-0.5650315880775452,-0.12210428714752197,28.8543701171875,-19.6685791015625,0.18310546875
2.3099999,-10.06043529510498,-0.31842881441116333,0.31124621629714966,25.299072265625,-15.6707763671875,-1.2054443359375
2.3299999,-9.859322547912598,0,1.0319008827209473,4.4403076171875,-10.68115234375,1.15966796875
2.3499999,-9.799467086791992,0.24660277366638184,1.7357962131500244,-29.022216796875,4.364013671875,4.6539306640625
2.3699999,-9.6989107131958,0.4405331015586853,2.2457611560821533,-39.61181640625,12.3748779296875,6.53076171875
2.3899999,-9.727641105651855,0.37828385829925537,2.3319525718688965,-31.79931640625,7.2784423828125,5.7220458984375
2.4099999,-9.816226959228516,0.07900865375995636,1.9105730056762695,-22.8118896484375,4.302978515625,3.72314453125
2.4299999,-9.909601211547852,-0.2753331959247589,1.2258312702178955,-8.148193359375,5.6610107421875,3.570556640625
2.4499999,-9.998186111450195,-0.5650315880775452,0.6105214357376099,4.94384765625,2.197265625,3.1280517578125
2.4699999,-9.998186111450195,-0.5889736413955688,0.22505496442317963,8.1787109375,-3.143310546875,5.1116943359375
2.4899999,-10.017339706420898,-0.4165911078453064,0.09816227108240128,-1.8310546875,-1.007080078125,7.720947265625
2.5099999,-10.074800491333008,-0.08379705995321274,0.20350714027881622,-3.23486328125,-1.495361328125,5.31005859375
2.5299999,-10.029311180114746,0.1867477297782898,0.395043283700943,4.4708251953125,-8.758544921875,-0.7476806640625
2.5499999,-10.050858497619629,0.33518823981285095,0.6129156351089478,8.23974609375,-9.21630859375,-6.1492919921875
2.5699999,-9.976638793945312,0.3687070608139038,0.8906430602073669,7.3089599609375,-2.716064453125,-8.8958740234375
2.5899999,-9.895236015319824,0.22266076505184174,1.1851298809051514,2.38037109375,4.39453125,-8.270263671875
2.6099999,-9.804255485534668,0.181959331035614,1.599326729774475,-8.4686279296875,7.3089599609375,-3.0517578125
2.6299999,-9.761159896850586,0.011971008032560349,1.8339585065841675,-24.139404296875,14.678955078125,2.6397705078125
2.6499999,-9.773131370544434,-0.08379705995321274,1.9129672050476074,-26.9317626953125,18.5546875,4.2572021484375
2.6699999,-9.787496566772461,-0.2346317619085312,1.7118542194366455,-19.3023681640625,15.8233642578125,2.2735595703125
2.6899999,-9.8784761428833,-0.38307225704193115,1.2617442607879639,-7.8277587890625,12.1917724609375,-3.1585693359375
2.7099999,-9.93354320526123,-0.4620809257030487,0.7015010714530945,3.9825439453125,10.4827880859375,-4.241943359375
2.7299999,-10.0580415725708,-0.42377370595932007,0.2561795711517334,8.1024169921875,10.4522705078125,-3.4027099609375
2.7499999,-10.072406768798828,-0.2968810200691223,-0.05027823522686958,2.3956298828125,7.1563720703125,-1.15966796875
2.7699999,-10.139444351196289,-0.009576806798577309,-0.2537853717803955,-3.7994384765625,-2.7923583984375,0.5035400390625
2.7899999,-10.139444351196289,-0.05746084079146385,-0.31842881441116333,5.5999755859375,-10.2386474609375,-3.5552978515625
2.8099999,-10.093954086303711,-0.16759411990642548,-0.18914192914962769,14.3280029296875,-15.5487060546875,-5.584716796875
2.8299999,-10.046070098876953,-0.3064578175544739,0.031124621629714966,13.5650634765625,-13.214111328125,-5.5084228515625
2.8499999,-9.96945571899414,-0.31603461503982544,0.45010992884635925,2.9449462890625,-7.7362060546875,-2.3193359375
2.8699999,-9.923966407775879,-0.31603461503982544,0.9217676520347595,-11.3983154296875,-1.7852783203125,0.9918212890625
2.8899999,-9.852140426635742,-0.2106897532939911,1.3623007535934448,-17.5018310546875,2.3345947265625,4.7760009765625
2.9099999,-9.856928825378418,-0.17717093229293823,1.5442601442337036,-17.76123046875,2.7923583984375,5.7220458984375
2.9299999,-9.832986831665039,-0.1843535304069519,1.5442601442337036,-14.4195556640625,2.62451171875,3.3721923828125
2.9499999,-9.832986831665039,-0.24660277366638184,1.3215993642807007,-5.3558349609375,1.3580322265625,1.0528564453125
2.9699999,-9.919178009033203,-0.26815059781074524,0.9648633003234863,2.471923828125,0.1983642578125,-4.94384765625
2.9899999,-9.883264541625977,-0.2585737705230713,0.7110779285430908,6.439208984375,1.312255859375,-3.2196044921875
3.0099999,-9.950302124023438,-0.29209262132644653,0.4141969084739685,2.2430419921875,2.3040771484375,3.4637451171875
3.0299999,-9.976638793945312,-0.1628057211637497,0.38546648621559143,3.41796875,-0.48828125,2.0904541015625
3.0499999,-9.883264541625977,0.004788403399288654,0.5961562395095825,-3.60107421875,-3.6773681640625,3.3416748046875
3.0699999,-9.926360130310059,0.17477671802043915,0.9002198576927185,-27.1759033203125,2.7618408203125,-0.18310546875
3.0899999,-9.816226959228516,0.43095630407333374,1.3623007535934448,-44.9066162109375,11.7645263671875,-3.9520263671875
3.1099999,-9.751583099365234,0.3519476354122162,1.6112977266311646,-53.955078125,13.519287109375,-5.4168701171875
3.1299999,-9.734824180603027,0.1364694982767105,1.556231141090393,-44.891357421875,18.4326171875,-5.9051513671875
3.1499999,-9.837775230407715,-0.4572925269603729,1.158793568611145,-18.12744140625,14.6331787109375,-0.48828125
3.1699999,-9.955090522766113,-0.8547300100326538,0.6919242739677429,-0.6256103515625,12.969970703125,3.5552978515625
3.1899999,-10.137049674987793,-1.3263877630233765,-0.07900865375995636,1.617431640625,8.453369140625,9.368896484375
3.2099999,-10.299856185913086,-1.3862427473068237,-0.8355764150619507,24.993896484375,-6.5765380859375,8.6822509765625
3.2299999,-10.426748275756836,-1.256955862045288,-1.5705963373184204,61.065673828125,-24.658203125,4.5318603515625
3.2499999,-10.498574256896973,-0.9457096457481384,-2.0207061767578125,77.2705078125,-36.68212890625,0.5035400390625
3.2699999,-10.383652687072754,-0.4118026793003082,-1.8579005002975464,74.03564453125,-46.4935302734375,-4.8828125
3.2899999,-10.251971244812012,0.28730419278144836,-0.8259995579719543,53.985595703125,-41.5496826171875,-6.805419921875
3.3099999,-9.8784761428833,0.9169792532920837,0.5913678407669067,11.138916015625,-23.101806640625,-7.2021484375
3.3299999000000002,-9.66539192199707,1.237802267074585,2.075772762298584,-21.97265625,-5.3558349609375,-6.317138671875
3.3499999,-9.519346237182617,1.1683704853057861,3.026270866394043,-23.590087890625,-4.4708251953125,-5.3253173828125
3.3699999,-9.533711433410645,0.5817909836769104,3.138798475265503,-9.1400146484375,-2.288818359375,-5.462646484375
3.3899999,-9.619902610778809,-0.21547815203666687,2.628833532333374,8.4686279296875,-1.6937255859375,-2.7618408203125
3.4099999,-9.715670585632324,-0.7972691655158997,2.027888774871826,20.294189453125,-4.3487548828125,-1.007080078125
3.4299999,-9.782708168029785,-0.9983820915222168,1.6376339197158813,12.939453125,-3.5858154296875,3.72314453125
3.4499999,-9.804255485534668,-0.8547300100326538,1.534683346748352,-13.824462890625,8.270263671875,6.2103271484375
3.4699999,-9.86889934539795,-0.5123591423034668,1.6112977266311646,-23.5748291015625,12.3138427734375,7.598876953125
3.4899999,-9.859322547912598,-0.17717093229293823,1.5658079385757446,-14.7247314453125,4.39453125,4.1351318359375
3.5099999,-9.923966407775879,0.016759412363171577,1.403002142906189,-4.8828125,4.058837890625,0.823974609375
3.5299999,-9.919178009033203,0.08858546614646912,1.1563993692398071,-0.946044921875,5.67626953125,-4.33349609375
3.5499999,-9.971850395202637,0.19393034279346466,1.1300631761550903,-1.6326904296875,9.70458984375,-7.8125
3.5699999,-9.861717224121094,0.3016694188117981,1.3311761617660522,-12.847900390625,12.6800537109375,-4.7454833984375
3.5899999,-9.873687744140625,0.31842881441116333,1.5131354331970215,-36.0260009765625,20.3857421875,-0.4425048828125
3.6099999,-9.80904483795166,0.2753331959247589,1.6352397203445435,-37.65869140625,22.4761962890625,-2.288818359375
3.6299999,-9.792284965515137,0.038307227194309235,1.4508862495422363,-22.430419921875,19.5159912109375,-4.8370361328125
3.6499999,-9.847352027893066,-0.3016694188117981,1.0582371950149536,-7.6751708984375,14.495849609375,-5.4779052734375
3.6699999,-9.931148529052734,-0.6991068720817566,0.4812345504760742,3.8299560546875,11.8560791015625,-7.50732421875
3.6899999,-9.99100399017334,-0.9959878921508789,-0.0071826050989329815,16.4947509765625,9.2926025390625,-4.1046142578125
3.7099999,-10.11550235748291,-1.091755986213684,-0.2513911724090576,20.32470703125,3.8604736328125,3.9520263671875
3.7299999,-10.098742485046387,-1.0199298858642578,-0.33758243918418884,12.1307373046875,-2.227783203125,8.331298828125
3.7499999,-10.17296314239502,-0.6607996821403503,-0.17477671802043915,8.1329345703125,-4.82177734375,4.08935546875
3.7699999,-10.15141487121582,-0.3471592366695404,0.047884032130241394,8.7738037109375,-4.3487548828125,-1.1749267578125
3.7899999,-10.098742485046387,-0.009576806798577309,0.27054479718208313,13.6260986328125,-8.331298828125,-7.415771484375
3.8099999,-10.062829971313477,0.08858546614646912,0.586579442024231,14.923095703125,-7.99560546875,-9.8724365234375
3.8299999000000002,-9.9000244140625,0.031124621629714966,0.950498104095459,4.6539306640625,0.8392333984375,-5.126953125
3.8499999,-9.825803756713867,-0.15322890877723694,1.3192051649093628,-5.889892578125,8.544921875,3.570556640625
3.8699999,-9.739612579345703,-0.3758896589279175,1.5705963373184204,-6.4239501953125,6.04248046875,6.89697265625
3.8899999,-9.780313491821289,-0.49799394607543945,1.403002142906189,-7.110595703125,5.4473876953125,4.4708251953125
3.9099999,-9.84256362915039,-0.646434485912323,0.9720458984375,4.8675537109375,4.058837890625,2.0599365234375
3.9299999,-9.938331604003906,-0.6153098344802856,0.48602294921875,24.5513916015625,-4.2572021484375,-3.90625
3.9499999,-10.002974510192871,-0.6727706789970398,0.10055647045373917,30.8837890625,-6.4239501953125,-2.7008056640625
3.9699999,-10.017339706420898,-0.5602431893348694,0.0694318488240242,26.336669921875,-2.8533935546875,4.45556640625
3.9899999,-9.979032516479492,-0.4429273009300232,0.37828385829925537,20.9503173828125,-2.960205078125,7.904052734375
4.0099999,-9.979032516479492,-0.13407529890537262,0.8834604024887085,9.3994140625,-3.875732421875,3.8909912109375
4.029999900000001,-9.959878921508789,0.12689268589019775,1.2042834758758545,-10.3302001953125,5.859375,0.06103515625
4.0499999,-9.90241813659668,0.24899697303771973,1.359906554222107,-8.6212158203125,6.988525390625,-2.838134765625
4.069999900000001,-9.964667320251465,0.06703764945268631,1.2737152576446533,7.1868896484375,4.1656494140625,-7.75146484375
4.0899999000000005,-9.888052940368652,-0.2992752194404602,0.9026140570640564,24.9176025390625,5.92041015625,-3.2196044921875
4.1099999,-9.959878921508789,-0.6799532771110535,0.6368576288223267,40.71044921875,5.4168701171875,6.6986083984375
4.1299999000000005,-9.895236015319824,-0.8595184087753296,0.4165911078453064,50.628662109375,-2.1514892578125,5.8441162109375
4.1499999,-10.014945983886719,-0.7996633648872375,0.30885201692581177,48.2330322265625,-1.2054443359375,3.84521484375
4.1699999000000005,-9.959878921508789,-0.40701428055763245,0.4405331015586853,35.888671875,-1.1444091796875,1.0528564453125
4.1899999,-10.014945983886719,-0.014365210197865963,0.6871358752250671,22.6898193359375,-0.4119873046875,-2.8076171875
4.209999900000001,-10.002974510192871,0.3232172429561615,0.9768342971801758,13.8397216796875,5.828857421875,-8.0718994140625
4.2299999,-9.979032516479492,0.42616790533065796,1.1563993692398071,13.0462646484375,12.939453125,-6.195068359375
4.249999900000001,-9.995792388916016,0.2298433631658554,1.1252747774124146,19.5465087890625,12.6495361328125,-0.457763671875
4.2699999,-9.947908401489258,-0.11013327538967133,0.9241618514060974,31.2347412109375,7.537841796875,1.861572265625
4.289999900000001,-10.017339706420898,-0.5195417404174805,0.47405192255973816,46.5850830078125,4.852294921875,1.8768310546875
4.3099999,-10.038887977600098,-0.6823474764823914,0.1173158809542656,58.7921142578125,-1.9683837890625,-0.4730224609375
4.329999900000001,-10.002974510192871,-0.6584054827690125,-0.09576806426048279,61.5386962890625,-7.232666015625,-3.204345703125
4.3499999,-10.034099578857422,-0.4118026793003082,0.05027823522686958,52.6580810546875,-4.1656494140625,-6.7138671875
4.369999900000001,-9.888052940368652,-0.05985504388809204,0.4836287498474121,30.4107666015625,5.645751953125,-3.47900390625
4.3899999,-9.854534149169922,0.19393034279346466,1.0414776802062988,6.744384765625,12.176513671875,2.899169921875
4.409999900000001,-9.773131370544434,0.3256114423274994,1.357512354850769,-1.983642578125,13.0615234375,3.1280517578125
4.4299999,-9.876082420349121,0.2585737705230713,1.2665326595306396,6.591796875,13.9312744140625,-0.2288818359375
4.449999900000001,-10.012551307678223,0.16759411990642548,0.8834604024887085,20.965576171875,6.5460205078125,-3.204345703125
4.4699999,-10.038887977600098,-0.035913024097681046,0.3663128614425659,31.31103515625,-0.9002685546875,-7.354736328125
4.489999900000001,-10.101137161254883,-0.19632454216480255,0.10055647045373917,32.3333740234375,-0.823974609375,-7.5531005859375
4.5099999,-10.036493301391602,-0.3016694188117981,0.15083470940589905,22.2015380859375,8.2855224609375,0.67138671875
4.529999900000001,-9.928754806518555,-0.3878606855869293,0.3998316824436188,9.8114013671875,9.307861328125,9.5062255859375
4.5499999,-9.947908401489258,-0.3926490843296051,0.5817909836769104,4.4403076171875,7.8277587890625,7.1563720703125
4.569999900000001,-9.959878921508789,-0.23942017555236816,0.5674257874488831,11.7034912109375,6.500244140625,2.7923583984375
4.5899999000000005,-9.983820915222168,-0.0454898327589035,0.44771572947502136,14.95361328125,1.4190673828125,0.67138671875
4.609999900000001,-10.053253173828125,0.16519992053508759,0.28969839215278625,12.8173828125,-0.732421875,-6.1798095703125
4.6299999000000005,-9.986215591430664,0.33518823981285095,0.3471592366695404,4.9591064453125,3.143310546875,-8.0718994140625
4.6499999,-10.002974510192871,0.2801215946674347,0.4141969084739685,-7.50732421875,11.71875,-0.1983642578125
4.6699999000000005,-9.880870819091797,0.047884032130241394,0.49320554733276367,-9.246826171875,7.01904296875,4.7760009765625
4.6899999,-9.967061996459961,-0.26815059781074524,0.33039984107017517,0.4730224609375,1.922607421875,3.5552978515625
4.709999900000001,-10.031704902648926,-0.42377370595932007,0.11013327538967133,16.6015625,-1.6632080078125,3.6163330078125
4.7299999,-10.146626472473145,-0.4836287498474121,-0.19871874153614044,19.4244384765625,-7.4310302734375,0.9765625
4.749999900000001,-10.218452453613281,-0.2801215946674347,-0.3208230137825012,17.1966552734375,-11.0931396484375,-4.9285888671875
4.7699999,-10.11789608001709,-0.0694318488240242,-0.12689268589019775,10.4827880859375,-6.805419921875,-4.974365234375
4.789999900000001,-10.077195167541504,0.009576806798577309,0.07661445438861847,-1.89208984375,1.1444091796875,3.3416748046875
4.8099999,-9.890447616577148,-0.05746084079146385,0.4572925269603729,-5.950927734375,-2.685546875,8.270263671875
4.829999900000001,-9.93593692779541,-0.26575639843940735,0.4692635238170624,-3.6163330078125,-8.6822509765625,7.171630859375
4.8499999,-9.928754806518555,-0.38307225704193115,0.4405331015586853,5.6915283203125,-9.2620849609375,9.8419189453125
4.869999900000001,-10.000580787658691,-0.21787235140800476,0.42377370595932007,4.5013427734375,-12.2222900390625,8.819580078125
4.8899999,-9.995792388916016,-0.004788403399288654,0.5554547905921936,-6.89697265625,-9.27734375,0.762939453125
4.909999900000001,-9.8784761428833,0.29209262132644653,0.8523358106613159,-18.798828125,2.13623046875,-1.1138916015625
4.9299999,-9.911994934082031,0.4357447028160095,1.070208191871643,-19.47021484375,9.4146728515625,4.45556640625
4.949999900000001,-9.821015357971191,0.2944868206977844,1.091755986213684,-5.584716796875,4.119873046875,5.18798828125
4.9699999,-9.952696800231934,0.1364694982767105,0.7781155705451965,11.810302734375,-4.547119140625,0.30517578125
4.989999900000001,-10.06043529510498,0.043095629662275314,0.33279404044151306,27.8167724609375,-6.622314453125,-0.518798828125
5.0099999,-10.074800491333008,0.15083470940589905,0.1628057211637497,29.9072265625,-11.3372802734375,-1.739501953125
5.029999900000001,-10.010157585144043,0.47644615173339844,0.47165772318840027,3.509521484375,-4.7149658203125,-9.1094970703125
5.0499999,-9.8784761428833,0.790086567401886,0.9959878921508789,-33.721923828125,14.34326171875,-13.24462890625
5.069999900000001,-9.792284965515137,0.8475474119186401,1.5634137392044067,-48.5687255859375,26.0009765625,-6.9580078125
5.0899999000000005,-9.744400978088379,0.5817909836769104,1.6735470294952393,-34.8663330078125,20.355224609375,-1.800537109375
5.109999900000001,-9.864110946655273,-0.016759412363171577,1.0654197931289673,-12.8631591796875,7.87353515625,-3.5858154296875
5.1299999000000005,-10.000580787658691,-0.5482721924781799,0.20111294090747833,10.6353759765625,2.899169921875,-3.3721923828125
5.1499999,-10.189722061157227,-0.9816226959228516,-0.8020575642585754,37.1551513671875,-11.7645263671875,-1.46484375
5.1699999000000005,-10.18493366241455,-1.0438719987869263,-1.2066776752471924,45.22705078125,-22.8118896484375,-2.838134765625
5.1899999,-10.24239444732666,-0.9145850539207458,-1.3072341680526733,24.7650146484375,-19.3023681640625,-1.0528564453125
5.209999900000001,-10.06043529510498,-0.6200982332229614,-0.7134721279144287,12.63427734375,-12.5885009765625,5.889892578125
5.2299999,-9.964667320251465,-0.15083470940589905,0.1843535304069519,3.6468505859375,-14.4195556640625,11.932373046875
5.249999900000001,-9.761159896850586,0.2944868206977844,1.0678139925003052,-23.2391357421875,-12.02392578125,8.2550048828125
5.2699999,-9.806650161743164,0.6057330369949341,1.6352397203445435,-44.647216796875,1.800537109375,3.2806396484375
5.289999900000001,-9.648633003234863,0.8331822156906128,2.0398597717285156,-36.651611328125,1.6326904296875,1.28173828125
5.3099999,-9.713275909423828,0.7829039692878723,2.078166961669922,-32.1197509765625,3.2196044921875,-5.9051513671875
5.329999900000001,-9.773131370544434,0.3974374830722809,1.7597382068634033,-34.4085693359375,13.24462890625,-3.9215087890625
5.3499999,-9.785101890563965,0.033518824726343155,1.4389152526855469,-16.3421630859375,14.068603515625,2.01416015625
5.369999900000001,-10.070012092590332,-0.47405192255973816,0.6799532771110535,12.8631591796875,8.0413818359375,5.4779052734375
5.3899999,-10.120290756225586,-0.7661445140838623,-0.12210428714752197,40.2069091796875,-6.4849853515625,1.800537109375
5.409999900000001,-10.271124839782715,-0.7398083209991455,-0.6057330369949341,54.2755126953125,-15.6402587890625,-3.509521484375
5.4299999,-10.266336441040039,-0.3663128614425659,-0.629675030708313,40.3900146484375,-15.228271484375,-3.4637451171875
5.449999900000001,-10.163386344909668,0.15083470940589905,-0.16759411990642548,10.345458984375,-9.33837890625,-4.1351318359375
5.4699999,-10.02452278137207,0.6823474764823914,0.730231523513794,-8.0108642578125,-4.39453125,-6.561279296875
5.489999900000001,-9.775525093078613,1.0199298858642578,1.6974890232086182,-31.1126708984375,6.6070556640625,-12.3138427734375
5.5099999,-9.710882186889648,0.8882488012313843,2.188300371170044,-54.962158203125,26.6265869140625,-8.6517333984375
5.529999900000001,-9.622296333312988,0.40462008118629456,2.10210919380188,-42.4041748046875,23.5137939453125,0.946044921875
5.5499999,-9.78989028930664,-0.31124621629714966,1.3024457693099976,3.7384033203125,6.0577392578125,0.8544921875
5.569999900000001,-10.014945983886719,-0.9888052940368652,0.10295066982507706,40.0848388671875,-5.279541015625,0.4730224609375
5.5899999000000005,-10.168174743652344,-1.1683704853057861,-0.7948749661445618,44.73876953125,-14.923095703125,2.3193359375
5.609999900000001,-10.285490036010742,-0.8882488012313843,-0.9552865028381348,31.7840576171875,-19.10400390625,0.1373291015625
5.6299999000000005,-10.089165687561035,-0.16759411990642548,-0.2753331959247589,-1.556396484375,-12.451171875,-4.4708251953125
5.6499999,-9.947908401489258,0.4908113479614258,0.8762778043746948,-45.7305908203125,7.99560546875,-7.0953369140625
5.6699999000000005,-9.794678688049316,0.7398083209991455,1.6328455209732056,-63.5223388671875,22.6287841796875,0.762939453125
5.6899999,-9.710882186889648,0.5027823448181152,1.8507179021835327,-36.56005859375,10.498046875,3.7384033203125
5.709999900000001,-9.959878921508789,-0.24181437492370605,0.9696516990661621,10.3302001953125,-2.13623046875,-1.495361328125
5.7299999,-10.110713958740234,-0.9097966551780701,-0.12449848651885986,57.3577880859375,-17.0440673828125,0.8544921875
5.749999900000001,-10.27591323852539,-1.1540051698684692,-0.8978256583213806,75.3631591796875,-28.6865234375,2.5634765625
5.7699999,-10.201693534851074,-0.6320692300796509,-0.5315127968788147,47.271728515625,-27.923583984375,1.77001953125
5.789999900000001,-9.8784761428833,0.27054479718208313,0.727837324142456,-25.115966796875,-3.6773681640625,-7.415771484375
5.8099999,-9.782708168029785,1.0749965906143188,2.008735179901123,-85.1898193359375,30.426025390625,-5.37109375
5.829999900000001,-9.53849983215332,1.2617442607879639,2.6791117191314697,-70.2056884765625,24.96337890625,2.288818359375
5.8499999,-9.804255485534668,0.7015010714530945,2.051830768585205,-17.8985595703125,6.1187744140625,-3.021240234375
5.869999900000001,-9.976638793945312,-0.2849099934101105,0.7182605266571045,31.8756103515625,-7.50732421875,-5.0811767578125
5.8899999,-10.180145263671875,-1.0558429956436157,-0.5386953949928284,60.0433349609375,-19.0887451171875,-1.6021728515625
5.909999900000001,-10.180145263671875,-1.2186486721038818,-0.8523358106613159,56.1676025390625,-22.9034423828125,1.3580322265625
5.9299999,-9.964667320251465,-0.7565677165985107,-0.11013327538967133,10.6201171875,-12.51220703125,0.5645751953125
5.949999900000001,-9.804255485534668,-0.026336219161748886,1.1061211824417114,-53.03955078125,18.1427001953125,-2.0294189453125
5.9699999,-9.706093788146973,0.6536170840263367,2.123656988143921,-71.502685546875,28.8543701171875,4.69970703125
5.989999900000001,-9.708487510681152,0.7374141216278076,2.2002713680267334,-44.3267822265625,13.7176513671875,1.0986328125
6.0099999,-10.02691650390625,0.395043283700943,1.3694833517074585,-5.828857421875,2.62451171875,-7.537841796875
6.029999900000001,-10.089165687561035,-0.2322375625371933,0.2106897532939911,28.717041015625,-10.6353759765625,-7.3394775390625
6.0499999,-10.247182846069336,-0.6775590777397156,-0.5841852426528931,46.966552734375,-18.5089111328125,-6.40869140625
6.069999900000001,-10.11550235748291,-0.8595184087753296,-0.5817909836769104,38.2843017578125,-18.890380859375,-0.5950927734375
6.0899999000000005,-9.962273597717285,-0.6224924325942993,0.13168109953403473,-0.091552734375,-4.364013671875,0.3509521484375
6.109999900000001,-9.859322547912598,-0.2801215946674347,1.048660397529602,-29.96826171875,10.528564453125,4.364013671875
6.1299999000000005,-9.715670585632324,0.08379705995321274,1.7932571172714233,-31.768798828125,8.30078125,7.1868896484375
6.149999900000001,-9.794678688049316,0.19393034279346466,1.7884687185287476,-25.6805419921875,5.218505859375,-0.8544921875
6.1699999000000005,-9.86650562286377,0.11971008777618408,1.3239935636520386,-7.26318359375,-1.8768310546875,-4.8980712890625
6.1899999,-9.938331604003906,-0.023942016065120697,0.7924807667732239,11.1083984375,-6.6986083984375,-7.0953369140625
6.209999900000001,-10.010157585144043,-0.2537853717803955,0.28730419278144836,17.15087890625,-7.9498291015625,-3.875732421875
6.2299999,-10.019734382629395,-0.47884035110473633,0.26336219906806946,11.138916015625,-5.462646484375,0.67138671875
6.249999900000001,-9.950302124023438,-0.5817909836769104,0.49320554733276367,2.288818359375,-4.058837890625,2.777099609375
6.2699999,-9.876082420349121,-0.5315127968788147,1.048660397529602,-11.8865966796875,0.9918212890625,9.6893310546875
6.289999900000001,-9.888052940368652,-0.31124621629714966,1.3192051649093628,-31.4483642578125,8.636474609375,9.002685546875
6.3099999,-9.859322547912598,-0.028730420395731926,1.436521053314209,-29.47998046875,6.0577392578125,1.220703125
6.329999900000001,-9.909601211547852,0.16519992053508759,1.3192051649093628,-16.41845703125,-2.655029296875,-1.739501953125
6.3499999,-9.907206535339355,0.22744916379451752,1.0534487962722778,-11.3067626953125,-1.4495849609375,-6.8359375
6.369999900000001,-9.923966407775879,0.10773907601833344,1.0869675874710083,-13.336181640625,7.7667236328125,-4.2572021484375
6.3899999,-9.895236015319824,-0.06464344263076782,1.1563993692398071,-22.369384765625,11.5509033203125,0.7476806640625
6.409999900000001,-9.96945571899414,-0.363918662071228,0.9097966551780701,-23.3001708984375,13.2293701171875,4.33349609375
6.4299999,-10.08198356628418,-0.646434485912323,0.5027823448181152,13.6871337890625,-2.044677734375,2.6092529296875
6.449999900000001,-10.122684478759766,-0.790086567401886,-0.05746084079146385,44.342041015625,-13.7786865234375,-0.0457763671875
6.4699999,-10.199298858642578,-0.8236053586006165,-0.47405192255973816,45.6085205078125,-17.7764892578125,-1.7852783203125
6.489999900000001,-10.194510459899902,-0.4836287498474121,-0.3663128614425659,39.1998291015625,-17.8375244140625,-3.0059814453125
6.5099999,-9.99339771270752,0.08379705995321274,0.6368576288223267,24.3682861328125,-17.1051025390625,-5.37109375
6.529999900000001,-9.682151794433594,0.7350199222564697,1.9991583824157715,-39.3218994140625,9.3231201171875,-9.5672607421875
6.5499999,-9.421183586120605,0.8643068075180054,3.179499864578247,-81.4971923828125,40.069580078125,4.1656494140625
6.569999900000001,-9.6989107131958,0.17477671802043915,1.9512743949890137,-13.092041015625,16.387939453125,-0.4119873046875
6.5899999000000005,-10.077195167541504,-0.7781155705451965,-0.08619125932455063,40.71044921875,-3.814697265625,-6.28662109375
6.609999900000001,-10.309432983398438,-1.4532804489135742,-1.8267759084701538,79.315185546875,-28.045654296875,-5.645751953125
6.6299999000000005,-10.486603736877441,-1.5418659448623657,-2.425326347351074,90.0421142578125,-40.1458740234375,-5.67626953125
6.649999900000001,-10.259154319763184,-1.1348515748977661,-1.4939818382263184,55.48095703125,-32.562255859375,-0.518798828125
6.6699999000000005,-9.885659217834473,-0.3926490843296051,0.507570743560791,-26.0162353515625,-3.6163330078125,4.669189453125
6.6899999,-9.677363395690918,0.2537853717803955,2.3104045391082764,-88.470458984375,27.557373046875,13.6260986328125
6.709999900000001,-9.473855972290039,0.5315127968788147,3.24414324760437,-72.0977783203125,22.6593017578125,17.02880859375
6.7299999,-9.732429504394531,0.33758243918418884,2.698265314102173,-22.76611328125,6.561279296875,6.6680908203125
6.749999900000001,-10.007762908935547,-0.05267243832349777,1.357512354850769,15.7470703125,-6.5155029296875,0.30517578125
6.7699999,-10.201693534851074,-0.44532153010368347,0.14844051003456116,38.4674072265625,-14.4195556640625,0.0457763671875
6.789999900000001,-10.290278434753418,-0.5626373887062073,-0.272938996553421,40.435791015625,-18.24951171875,1.5106201171875
6.8099999,-10.077195167541504,-0.5410895943641663,0.19871874153614044,17.730712890625,-5.5694580078125,3.875732421875
6.829999900000001,-9.907206535339355,-0.23942017555236816,0.9074024558067322,-5.9814453125,12.3748779296875,4.180908203125
6.8499999,-9.739612579345703,-0.07900865375995636,1.6519991159439087,-1.9683837890625,14.373779296875,2.4871826171875
6.869999900000001,-9.706093788146973,0.12928688526153564,1.86508309841156,5.5084228515625,10.0250244140625,2.4566650390625
6.8899999,-9.847352027893066,0.12449848651885986,1.647210717201233,3.8909912109375,9.2010498046875,6.5460205078125
6.909999900000001,-9.904812812805176,0.08379705995321274,1.2665326595306396,0.54931640625,12.8631591796875,6.4697265625
6.9299999,-9.955090522766113,0.028730420395731926,0.8643068075180054,0.7781982421875,7.9345703125,3.7994384765625
6.949999900000001,-9.986215591430664,-0.028730420395731926,0.5363011956214905,5.5694580078125,4.0740966796875,3.173828125
6.9699999,-10.074800491333008,-0.05746084079146385,0.3447650372982025,10.92529296875,2.655029296875,0.7781982421875
6.989999900000001,-10.27591323852539,-0.08140286058187485,0.3447650372982025,13.4429931640625,1.6632080078125,-0.1220703125
7.0099999,-10.802638053894043,-0.08140286058187485,0.45010992884635925,12.51220703125,1.708984375,-0.6866455078125
7.029999900000001,-11.334151268005371,-0.05746084079146385,0.5746083855628967,12.1002197265625,2.349853515625,-5.4779052734375
7.0499999,-11.894393920898438,0.043095629662275314,0.6248866319656372,13.1072998046875,0.579833984375,-7.4310302734375
7.069999900000001,-12.1194486618042,0.17717093229293823,0.5722141861915588,13.458251953125,-5.3253173828125,-11.0931396484375
7.0899999000000005,-12.011710166931152,0.33039984107017517,0.4812345504760742,13.2598876953125,-9.2010498046875,-14.0533447265625
7.109999900000001,-11.583148002624512,0.4596867263317108,0.43335050344467163,14.1143798828125,-10.5133056640625,-16.9219970703125
7.1299999000000005,-10.912771224975586,0.5410895943641663,0.49799394607543945,17.0745849609375,-11.627197265625,-15.655517578125
7.149999900000001,-10.163386344909668,0.5722141861915588,0.6584054827690125,17.364501953125,-7.598876953125,-8.514404296875
7.1699999000000005,-9.41639518737793,0.5339069962501526,0.8810662031173706,14.312744140625,-1.678466796875,-0.5035400390625
7.1899999,-8.772355079650879,0.4429273009300232,1.1540051698684692,10.55908203125,-0.1678466796875,2.5177001953125
7.209999900000001,-8.317456245422363,0.3280056416988373,1.4077905416488647,6.2713623046875,3.3111572265625,-0.9002685546875
7.2299999,-8.061277389526367,0.19871874153614044,1.601720929145813,-0.213623046875,5.79833984375,-3.7078857421875
7.249999900000001,-7.9176249504089355,0.08379705995321274,1.699883222579956,-7.4310302734375,2.288818359375,-0.640869140625
7.2699999,-7.841010570526123,-0.023942016065120697,1.6950948238372803,-14.617919921875,1.28173828125,6.4849853515625
7.289999900000001,-7.8745293617248535,-0.11013327538967133,1.580173134803772,-19.8974609375,8.5296630859375,12.7716064453125
7.3099999,-8.070854187011719,-0.181959331035614,1.3766659498214722,-22.0947265625,15.411376953125,12.481689453125
7.329999900000001,-8.44195556640625,-0.26096799969673157,1.113303780555725,-20.263671875,16.5252685546875,3.692626953125
7.3499999,-8.935160636901855,-0.35434186458587646,0.8188169598579407,-14.70947265625,12.3748779296875,-3.326416015625
7.369999900000001,-9.445125579833984,-0.4572925269603729,0.5506663918495178,-8.48388671875,4.852294921875,-0.0762939453125
7.3899999,-9.86650562286377,-0.5650315880775452,0.36152446269989014,-4.1961669921875,-0.762939453125,6.011962890625
7.409999900000001,-10.1753568649292,-0.629675030708313,0.2777273952960968,-1.953125,-0.8697509765625,4.1961669921875
7.4299999,-10.333374977111816,-0.6512228846549988,0.2825157940387726,-1.03759765625,4.180908203125,-4.45556640625
7.449999900000001,-10.374075889587402,-0.6536170840263367,0.3208230137825012,-0.9765625,8.5601806640625,-8.3465576171875
7.4699999,-10.321403503417969,-0.646434485912323,0.3734954595565796,0.9307861328125,5.645751953125,-1.800537109375
7.489999900000001,-10.204087257385254,-0.6368576288223267,0.43335050344467163,3.814697265625,-3.265380859375,7.9345703125
7.5099999,-10.113107681274414,-0.5841852426528931,0.5195417404174805,3.96728515625,-7.904052734375,12.8936767578125
7.529999900000001,-10.055646896362305,-0.47644615173339844,0.6224924325942993,0.579833984375,-3.7994384765625,9.3841552734375
7.5499999,-10.002974510192871,-0.33279404044151306,0.7350199222564697,-3.204345703125,1.8768310546875,3.0517578125
7.569999900000001,-9.979032516479492,-0.19153612852096558,0.8092401623725891,-7.01904296875,6.256103515625,1.495361328125
7.5899999000000005,-9.955090522766113,-0.1173158809542656,0.8236053586006165,-11.0015869140625,7.0037841796875,3.173828125
7.609999900000001,-9.93593692779541,-0.10773907601833344,0.7948749661445618,-13.85498046875,1.678466796875,4.8675537109375
7.6299999000000005,-9.883264541625977,-0.1604115068912506,0.7254431247711182,-14.70947265625,0.4119873046875,3.936767578125
7.649999900000001,-10.08198356628418,-0.2585737705230713,0.629675030708313,-12.02392578125,8.0413818359375,0.8544921875
7.6699999000000005,-10.14902114868164,-0.33997663855552673,0.5291185975074768,-5.1422119140625,6.5155029296875,-10.8489990234375
7.6899999,-10.548852920532227,-0.4620809257030487,0.3758896589279175,2.8533935546875,1.1749267578125,-5.06591796875
7.709999900000001,-10.498574256896973,-0.47644615173339844,0.23942017555236816,9.368896484375,3.2958984375,4.9896240234375
7.7299999,-10.563218116760254,-0.42856210470199585,0.15083470940589905,14.58740234375,-1.1444091796875,3.875732421875
7.749999900000001,-10.335768699645996,-0.3926490843296051,0.17956513166427612,15.5181884765625,-2.3956298828125,-0.335693359375
7.7699999,-10.14902114868164,-0.26815059781074524,0.33758243918418884,9.002685546875,0.0762939453125,2.716064453125
7.789999900000001,-10.031704902648926,-0.17477671802043915,0.5506663918495178,-0.1220703125,0.9002685546875,7.0343017578125
7.8099999,-9.947908401489258,-0.043095629662275314,0.7086837291717529,-6.7291259765625,0.79345703125,6.6375732421875
7.829999900000001,-9.90241813659668,0.11252748221158981,0.6991068720817566,-8.331298828125,0.7781982421875,3.7841796875
7.8499999,-9.952696800231934,0.31364041566848755,0.6200982332229614,-6.2713623046875,-1.7242431640625,0.9002685546875
7.869999900000001,-10.02691650390625,0.4692635238170624,0.4908113479614258,-5.1422119140625,-4.486083984375,-1.1138916015625
7.8899999,-10.08437728881836,0.5626373887062073,0.4908113479614258,-5.4779052734375,-5.523681640625,-2.593994140625
7.909999900000001,-10.053253173828125,0.4620809257030487,0.6248866319656372,-12.3138427734375,-3.997802734375,-2.2735595703125
7.9299999,-9.95748519897461,0.26815059781074524,0.8140285611152649,-22.491455078125,0.1678466796875,-0.2288818359375
7.949999900000001,-9.888052940368652,0.028730420395731926,1.0630255937576294,-24.3377685546875,3.0975341796875,2.471923828125
7.9699999,-9.9000244140625,-0.1867477297782898,1.139639973640442,-18.5546875,3.47900390625,2.8839111328125
7.989999900000001,-9.90241813659668,-0.4118026793003082,0.9792284965515137,-6.53076171875,1.5411376953125,2.38037109375
8.0099999,-10.002974510192871,-0.507570743560791,0.5889736413955688,10.8642578125,-0.2899169921875,2.1514892578125
8.0299999,-10.029311180114746,-0.5889736413955688,0.14604631066322327,29.876708984375,-8.4686279296875,-0.8697509765625
8.049999900000001,-10.036493301391602,-0.4620809257030487,-0.19153612852096558,35.552978515625,-9.09423828125,1.03759765625
8.069999900000001,-10.120290756225586,-0.1604115068912506,-0.28969839215278625,25.9246826171875,-9.46044921875,5.9967041015625
8.0899999,-10.098742485046387,0.2849099934101105,-0.019153613597154617,14.251708984375,-18.6920166015625,4.2572021484375
8.1099999,-10.005369186401367,0.7206547260284424,0.38546648621559143,0.946044921875,-16.3116455078125,-4.608154296875
8.129999900000001,-9.995792388916016,0.8954314589500427,0.7541735172271729,-6.805419921875,-9.5672607421875,-11.6729736328125
8.149999900000001,-9.919178009033203,0.8571242094039917,1.1444283723831177,-3.1890869140625,-8.7738037109375,-13.7939453125
8.1699999,-9.861717224121094,0.5913678407669067,1.436521053314209,-2.227783203125,-5.4931640625,-7.537841796875
8.1899999,-9.923966407775879,0.11971008777618408,1.6352397203445435,-10.8489990234375,2.410888671875,0.9613037109375
8.2099999,-9.847352027893066,-0.28969839215278625,1.7142484188079834,-8.1329345703125,1.15966796875,2.044677734375
8.229999900000001,-9.854534149169922,-0.5793967843055725,1.7094600200653076,-1.4495849609375,-0.244140625,0.152587890625
8.2499999,-9.832986831665039,-0.7661445140838623,1.5155296325683594,0.6256103515625,1.5869140625,0.9918212890625
8.2699999,-9.890447616577148,-0.6991068720817566,1.2282254695892334,5.31005859375,4.7760009765625,0.7781982421875
8.2899999,-9.876082420349121,-0.4572925269603729,1.0462661981582642,7.110595703125,4.486083984375,1.2359619140625
8.309999900000001,-10.012551307678223,-0.1364694982767105,0.768538773059845,-0.42724609375,7.7362060546875,4.9896240234375
8.3299999,-10.022128105163574,0.2777273952960968,0.933738648891449,-8.636474609375,1.617431640625,5.9967041015625
8.3499999,-9.950302124023438,0.6775590777397156,1.1324573755264282,-24.0325927734375,4.8980712890625,-3.7384033203125
8.3699999,-9.892841339111328,0.8140285611152649,1.37906014919281,-34.1033935546875,13.671875,-9.796142578125
8.389999900000001,-9.821015357971191,0.811634361743927,1.5418659448623657,-27.64892578125,19.4854736328125,-10.345458984375
8.4099999,-9.703699111938477,0.524330198764801,1.3718775510787964,-17.425537109375,17.852783203125,-10.2996826171875
8.4299999,-9.806650161743164,0.06224924325942993,0.9433154463768005,-13.580322265625,16.5863037109375,-3.2501220703125
8.4499999,-9.931148529052734,-0.4165911078453064,0.45010992884635925,-6.9427490234375,9.1705322265625,4.1961669921875
8.469999900000001,-9.952696800231934,-0.7948749661445618,-0.09816227108240128,7.568359375,-0.2593994140625,-1.0986328125
8.4899999,-10.165780067443848,-1.113303780555725,-0.6105214357376099,21.8963623046875,-9.21630859375,-0.9307861328125
8.5099999,-10.125079154968262,-1.1252747774124146,-0.7541735172271729,29.3731689453125,-15.9759521484375,2.62451171875
8.5299999,-10.077195167541504,-0.9097966551780701,-0.5147533416748047,19.744873046875,-15.19775390625,7.1258544921875
8.549999900000001,-9.962273597717285,-0.45010992884635925,0.090979665517807,-4.8370361328125,-10.25390625,11.23046875
8.569999900000001,-9.854534149169922,0.15562310814857483,0.9888052940368652,-26.3214111328125,-4.302978515625,12.8936767578125
8.5899999,-9.749189376831055,0.7038952708244324,1.7310078144073486,-46.5087890625,-0.213623046875,5.035400390625
8.6099999,-9.797073364257812,0.9145850539207458,2.166752576828003,-56.5948486328125,6.561279296875,1.15966796875
8.629999900000001,-9.770736694335938,0.706289529800415,1.987187385559082,-43.212890625,11.90185546875,-2.166748046875
8.649999900000001,-10.014945983886719,0.1412578970193863,1.3503297567367554,-0.274658203125,4.0740966796875,-2.99072265625
8.6699999,-10.091560363769531,-0.5985504388809204,0.2801215946674347,41.9158935546875,-2.01416015625,2.1820068359375
8.6899999,-10.3549222946167,-1.0103530883789062,-0.5722141861915588,67.4896240234375,-13.671875,8.331298828125
8.709999900000001,-10.345345497131348,-1.0414776802062988,-1.048660397529602,76.6448974609375,-28.01513671875,4.6234130859375
8.729999900000001,-10.362105369567871,-0.5650315880775452,-0.9265560507774353,69.51904296875,-28.289794921875,-0.579833984375
8.7499999,-10.096348762512207,0.08858546614646912,-0.26336219906806946,49.13330078125,-26.06201171875,-4.852294921875
8.7699999,-9.959878921508789,0.8331822156906128,0.9433154463768005,21.0723876953125,-16.387939453125,-8.209228515625
8.7899999,-9.653421401977539,1.4389152526855469,2.212242364883423,-23.2086181640625,0.9613037109375,-5.5084228515625
8.809999900000001,-9.5408935546875,1.5658079385757446,3.2345664501190186,-64.3157958984375,21.4385986328125,-2.4566650390625
8.8299999,-9.495404243469238,1.3215993642807007,3.6343982219696045,-64.208984375,21.942138671875,-2.197265625
8.8499999,-9.576807022094727,0.6823474764823914,3.141192674636841,-37.3687744140625,20.1263427734375,-3.90625
8.8699999,-9.744400978088379,-0.20111294090747833,2.0207061767578125,-4.5928955078125,15.838623046875,-3.5247802734375
8.889999900000001,-9.931148529052734,-0.8954314589500427,0.7948749661445618,24.59716796875,7.3394775390625,-5.7373046875
8.9099999,-9.998186111450195,-1.0678139925003052,-0.05985504388809204,35.6597900390625,2.1209716796875,-0.640869140625
8.9299999,-10.129867553710938,-0.9409212470054626,-0.48602294921875,17.791748046875,4.669189453125,4.5318603515625
8.9499999,-10.146626472473145,-0.3926490843296051,-0.35913026332855225,0.6256103515625,-0.06103515625,1.8768310546875
8.969999900000001,-10.14902114868164,0.10055647045373917,-0.17477671802043915,-1.9378662109375,-5.218505859375,-3.509521484375
8.9899999,-10.168174743652344,0.3687070608139038,0.17238251864910126,5.1727294921875,-8.1024169921875,-6.4239501953125
9.0099999,-9.998186111450195,0.47165772318840027,0.5315127968788147,9.1400146484375,-8.331298828125,-10.7269287109375
9.0299999,-9.940725326538086,0.4405331015586853,1.0630255937576294,0.4119873046875,-0.54931640625,-8.3465576171875
9.049999900000001,-9.765948295593262,0.3471592366695404,1.6304513216018677,-21.5911865234375,9.3231201171875,-2.9296875
9.069999900000001,-9.734824180603027,0.1867477297782898,1.9321208000183105,-35.125732421875,15.9149169921875,0.732421875
9.0899999,-9.765948295593262,0.028730420395731926,1.946485996246338,-23.5748291015625,10.43701171875,-1.0833740234375
9.1099999,-9.883264541625977,-0.3064578175544739,1.5298948287963867,-6.4544677734375,8.4991455078125,-4.4708251953125
9.129999900000001,-10.007762908935547,-0.5195417404174805,0.8020575642585754,12.8936767578125,3.1280517578125,-7.1868896484375
9.149999900000001,-10.163386344909668,-0.7326257228851318,0.22266076505184174,28.7933349609375,-0.579833984375,-6.561279296875
9.1699999,-10.103530883789062,-0.7254431247711182,-0.18914192914962769,30.82275390625,-3.1890869140625,-1.8768310546875
9.1899999,-10.170568466186523,-0.4812345504760742,-0.19153612852096558,16.6778564453125,-4.058837890625,2.62451171875
9.209999900000001,-10.067618370056152,-0.2298433631658554,0.1173158809542656,3.7994384765625,-6.7138671875,0.3662109375
9.229999900000001,-10.055646896362305,0.11252748221158981,0.4836287498474121,-2.0751953125,-6.6070556640625,-3.814697265625
9.2499999,-9.96945571899414,0.18914192914962769,0.849941611289978,0.6561279296875,-6.927490234375,-6.9427490234375
9.2699999,-9.907206535339355,0.1149216815829277,1.091755986213684,3.570556640625,-2.4261474609375,-9.70458984375
9.2899999,-9.832986831665039,-0.05027823522686958,1.2880805730819702,-0.1983642578125,3.2806396484375,-3.96728515625
9.309999900000001,-9.78989028930664,-0.21308395266532898,1.4724340438842773,-7.2479248046875,5.645751953125,2.3345947265625
9.3299999,-9.854534149169922,-0.3519476354122162,1.479616641998291,-9.21630859375,4.2724609375,4.1351318359375
9.3499999,-9.883264541625977,-0.40462008118629456,1.3407529592514038,-7.6751708984375,3.41796875,2.197265625
9.3699999,-9.99339771270752,-0.4213795065879822,1.0414776802062988,-3.35693359375,1.15966796875,-1.4495849609375
9.389999900000001,-9.96945571899414,-0.48602294921875,0.7206547260284424,5.1727294921875,-1.4801025390625,-4.7607421875
9.4099999,-9.986215591430664,-0.4692635238170624,0.47884035110473633,10.223388671875,-0.3509521484375,-1.312255859375
9.4299999,-9.950302124023438,-0.3447650372982025,0.44771572947502136,5.859375,0.1678466796875,0.9002685546875
9.4499999,-9.952696800231934,-0.23942017555236816,0.5530605912208557,-1.5716552734375,-0.9002685546875,2.4566650390625
9.469999900000001,-9.971850395202637,-0.05985504388809204,0.7254431247711182,-6.6680908203125,-3.0059814453125,1.7547607421875
9.4899999,-9.979032516479492,0,0.8762778043746948,-8.7127685546875,-2.7618408203125,-1.922607421875
9.5099999,-9.95748519897461,-0.1149216815829277,0.9289502501487732,-4.608154296875,-3.082275390625,-5.7373046875
9.5299999,-9.96945571899414,-0.2561795711517334,0.9696516990661621,2.227783203125,0.30517578125,-4.547119140625
9.549999900000001,-9.907206535339355,-0.44771572947502136,0.9576807022094727,3.143310546875,1.2054443359375,2.25830078125
9.569999900000001,-9.967061996459961,-0.569819986820221,0.9289502501487732,0.3509521484375,1.1138916015625,7.4310302734375
9.5899999,-9.979032516479492,-0.5003881454467773,0.9672574996948242,0.0152587890625,-2.7618408203125,6.6986083984375
9.6099999,-10.000580787658691,-0.2968810200691223,0.9864110946655273,-1.617431640625,-3.265380859375,2.532958984375
9.629999900000001,-9.974244117736816,-0.13168109953403473,0.912190854549408,-4.364013671875,-3.8909912109375,-2.5177001953125
9.649999900000001,-9.955090522766113,-0.004788403399288654,0.9600749015808105,-1.556396484375,-2.1209716796875,-6.9732666015625
9.6699999,-9.880870819091797,-0.043095629662275314,0.9648633003234863,3.6163330078125,1.1749267578125,-4.058837890625
9.6899999,-9.9000244140625,-0.11013327538967133,1.0558429956436157,1.4495849609375,3.204345703125,0.2899169921875
9.709999900000001,-9.90241813659668,-0.19632454216480255,1.0893617868423462,-2.288818359375,2.197265625,2.9754638671875
9.729999900000001,-9.979032516479492,-0.17238251864910126,1.1252747774124146,-0.091552734375,0.091552734375,1.190185546875
9.7499999,-9.974244117736816,-0.20111294090747833,1.0773907899856567,2.99072265625,-0.9307861328125,-1.6937255859375
9.7699999,-9.947908401489258,-0.1604115068912506,1.0797849893569946,1.8463134765625,-0.396728515625,-6.0577392578125
9.7899999,-9.950302124023438,-0.16998831927776337,1.1420341730117798,-2.5634765625,6.7596435546875,-6.8817138671875
9.809999900000001,-9.837775230407715,-0.11971008777618408,1.2737152576446533,-8.72802734375,9.7503662109375,-2.6702880859375
9.8299999,-9.876082420349121,-0.08619125932455063,1.3527239561080933,-16.5252685546875,12.0697021484375,1.0833740234375
9.8499999,-9.9000244140625,-0.10534487664699554,1.335964560508728,-21.759033203125,10.7574462890625,0.762939453125
9.8699999,-9.931148529052734,-0.1628057211637497,1.0869675874710083,-17.8375244140625,9.4757080078125,-1.0986328125
9.889999900000001,-9.99339771270752,-0.363918662071228,0.7374141216278076,-5.126953125,2.99072265625,-2.50244140625
9.9099999,-10.014945983886719,-0.569819986820221,0.29209262132644653,7.3394775390625,-0.732421875,-4.3182373046875
9.9299999,-10.007762908935547,-0.7661445140838623,0.043095629662275314,12.8021240234375,-0.2593994140625,-0.4425048828125
9.9499999,-10.034099578857422,-0.751779317855835,0.07182604819536209,6.500244140625,-0.885009765625,5.0811767578125
9.969999900000001,-9.921571731567383,-0.6057330369949341,0.31364041566848755,-7.232666015625,-2.6397705078125,9.124755859375
9.9899999,-9.950302124023438,-0.38067805767059326,0.5722141861915588,-13.092041015625,-4.0130615234375,6.4544677734375
10.0099999,-9.926360130310059,-0.033518824726343155,0.9026140570640564,-14.678955078125,-3.509521484375,1.861572265625
10.0299999,-9.916783332824707,-0.0071826050989329815,0.933738648891449,-15.80810546875,-4.8065185546875,-2.5482177734375
10.049999900000001,-9.916783332824707,0.090979665517807,1.0845733880996704,-9.27734375,-2.5482177734375,-5.2947998046875
10.069999900000001,-9.967061996459961,-0.08619125932455063,0.9816226959228516,-9.4146728515625,4.669189453125,1.3885498046875
10.0899999,-9.859322547912598,-0.2537853717803955,0.9169792532920837,-10.101318359375,1.495361328125,3.7384033203125
10.1099999,-9.974244117736816,-0.5554547905921936,0.7015010714530945,1.4190673828125,-2.899169921875,4.7760009765625
10.129999900000001,-10.055646896362305,-0.7158663272857666,0.40940847992897034,23.86474609375,-8.6212158203125,4.6539306640625
10.149999900000001,-10.125079154968262,-0.8882488012313843,0.13407529890537262,40.5120849609375,-13.1072998046875,6.011962890625
10.1699999,-10.194510459899902,-0.7326257228851318,0.016759412363171577,46.905517578125,-19.6075439453125,-0.48828125
10.1899999,-10.11789608001709,-0.44771572947502136,0.2801215946674347,43.45703125,-16.448974609375,-5.7220458984375
10.209999900000001,-9.979032516479492,0.047884032130241394,0.8020575642585754,22.2320556640625,-5.462646484375,-4.0283203125
10.229999900000001,-9.854534149169922,0.4596867263317108,1.525106430053711,-6.317138671875,3.8604736328125,2.38037109375
10.2499999,-9.6989107131958,0.6560112833976746,2.0829553604125977,-21.3775634765625,3.631591796875,1.89208984375
10.2699999,-9.732429504394531,0.6224924325942993,2.207453966140747,-19.6380615234375,6.65283203125,-2.685546875
10.2899999,-9.749189376831055,0.21547815203666687,1.9752163887023926,-8.3160400390625,6.9732666015625,-2.8839111328125
10.309999900000001,-9.84256362915039,-0.10055647045373917,1.5825673341751099,2.4261474609375,2.105712890625,-5.096435546875
10.3299999,-9.976638793945312,-0.4644751250743866,1.2114660739898682,-21.5301513671875,15.838623046875,-0.1678466796875
10.3499999,-9.926360130310059,-0.4572925269603729,1.2090718746185303,-34.576416015625,16.0369873046875,7.2479248046875
10.3699999,-9.974244117736816,-0.3711012601852417,0.9552865028381348,-25.81787109375,7.3394775390625,6.04248046875
10.389999900000001,-10.06043529510498,-0.35673606395721436,0.5817909836769104,-7.4615478515625,3.1280517578125,3.35693359375
10.4099999,-10.067618370056152,-0.42377370595932007,0.038307227194309235,8.72802734375,-6.40869140625,-0.5340576171875
10.4299999,-10.134655952453613,-0.4429273009300232,-0.21547815203666687,21.3165283203125,-11.932373046875,-5.37109375
10.4499999,-10.036493301391602,-0.43095630407333374,-0.13407529890537262,19.8516845703125,-7.9803466796875,-2.5787353515625
10.469999900000001,-9.971850395202637,-0.24420857429504395,0.33039984107017517,2.9449462890625,-1.7242431640625,4.425048828125
10.4899999,-9.68933391571045,-0.028730420395731926,1.0534487962722778,-12.2528076171875,-0.8087158203125,4.5318603515625
10.5099999,-9.677363395690918,0.28969839215278625,1.7573440074920654,-30.7769775390625,6.6375732421875,1.40380859375
10.5299999,-9.648633003234863,0.4357447028160095,2.1092917919158936,-43.609619140625,14.3280029296875,0.030517578125
10.549999900000001,-9.768342971801758,0.3687070608139038,2.142810583114624,-40.6494140625,14.3280029296875,-3.47900390625
10.569999900000001,-9.952696800231934,0.0694318488240242,1.6089035272598267,-21.8505859375,13.7939453125,-11.1083984375
10.5899999,-10.098742485046387,-0.45010992884635925,0.8547300100326538,7.4462890625,10.1470947265625,-6.5155029296875
10.6099999,-10.20648193359375,-0.9959878921508789,-0.05027823522686958,34.8052978515625,0.6256103515625,3.3111572265625
10.629999900000001,-10.280701637268066,-1.4413094520568848,-0.7493851184844971,59.0667724609375,-15.9912109375,4.3792724609375
10.649999900000001,-10.338163375854492,-1.3311761617660522,-0.9816226959228516,68.8018798828125,-23.0255126953125,2.5177001953125
10.6699999,-10.254365921020508,-0.9289502501487732,-0.7326257228851318,52.764892578125,-22.735595703125,2.9296875
10.6899999,-10.122684478759766,-0.038307227194309235,0.272938996553421,24.0631103515625,-19.6075439453125,-2.716064453125
10.709999900000001,-9.78989028930664,0.7493851184844971,1.522712230682373,-19.5770263671875,-3.8299560546875,-9.3536376953125
10.729999900000001,-9.639056205749512,1.2066776752471924,2.58813214302063,-60.699462890625,21.514892578125,-5.5389404296875
10.7499999,-9.493009567260742,1.0558429956436157,3.0885202884674072,-65.24658203125,23.529052734375,3.5552978515625
10.7699999,-9.600749015808105,0.4213795065879822,2.5713725090026855,-37.9791259765625,12.3443603515625,1.8768310546875
10.7899999,-9.864110946655273,-0.4141969084739685,1.414973258972168,3.5858154296875,5.7373046875,1.678466796875
10.809999900000001,-10.08437728881836,-1.05105459690094,0.14604631066322327,34.9578857421875,-8.6517333984375,3.4637451171875
10.8299999,-10.225635528564453,-1.2210428714752197,-0.5434837937355042,44.49462890625,-18.707275390625,-1.9073486328125
10.8499999,-10.194510459899902,-0.9959878921508789,-0.5339069962501526,26.702880859375,-11.0626220703125,-4.94384765625
10.8699999,-10.129867553710938,-0.47405192255973816,0.16519992053508759,-1.434326171875,2.0751953125,3.265380859375
10.889999900000001,-9.921571731567383,-0.1173158809542656,0.9648633003234863,-16.6168212890625,1.8157958984375,7.659912109375
10.9099999,-9.904812812805176,0.19632454216480255,1.5538369417190552,-17.730712890625,0.1220703125,0.7781982421875
10.9299999,-9.873687744140625,0.22266076505184174,1.6519991159439087,-9.0179443359375,2.25830078125,-1.5106201171875
10.9499999,-9.883264541625977,0.1843535304069519,1.5179238319396973,2.3956298828125,-1.46484375,-4.058837890625
10.969999900000001,-9.854534149169922,0.11013327538967133,1.338358759880066,5.9051513671875,-3.0059814453125,-7.2021484375
10.9899999,-9.81143856048584,-0.06464344263076782,1.2234370708465576,-3.7994384765625,7.9193115234375,-4.9285888671875
11.0099999,-9.816226959228516,-0.3064578175544739,1.1085153818130493,-10.6048583984375,10.7879638671875,5.92041015625
11.0299999,-9.86650562286377,-0.5027823448181152,0.9696516990661621,-4.913330078125,0.0457763671875,8.148193359375
11.049999900000001,-10.002974510192871,-0.6440402865409851,0.6368576288223267,3.8604736328125,-4.0283203125,3.5247802734375
11.069999900000001,-10.070012092590332,-0.5147533416748047,0.49320554733276367,10.833740234375,-7.2021484375,2.1514892578125
11.0899999,-9.981427192687988,-0.17238251864910126,0.7565677165985107,2.0599365234375,-5.67626953125,-1.8768310546875
11.1099999,-9.849745750427246,0.2298433631658554,1.192312479019165,-28.6102294921875,6.8511962890625,-6.4239501953125
11.129999900000001,-9.720458984375,0.47165772318840027,1.7525556087493896,-51.1016845703125,21.8353271484375,-2.7618408203125
11.149999900000001,-9.569623947143555,0.4141969084739685,2.0614075660705566,-49.4537353515625,19.989013671875,3.9825439453125
11.1699999,-9.679757118225098,0.07422025501728058,1.9488801956176758,-45.4254150390625,17.4102783203125,4.119873046875
11.1899999,-9.892841339111328,-0.272938996553421,1.1659762859344482,-43.9910888671875,22.39990234375,5.218505859375
11.209999900000001,-10.06043529510498,-0.629675030708313,0.17238251864910126,-12.9547119140625,4.39453125,6.927490234375
11.229999900000001,-10.323798179626465,-0.9217676520347595,-0.7948749661445618,31.036376953125,-21.7437744140625,-10.6048583984375
11.2499999,-10.402806282043457,-1.0869675874710083,-1.3623007535934448,62.9119873046875,-23.01025390625,-13.24462890625
11.2699999,-10.374075889587402,-1.1540051698684692,-1.2832920551300049,71.1669921875,-13.885498046875,5.4779052734375
11.2899999,-10.299856185913086,-0.8786720037460327,-0.5722141861915588,61.34033203125,-18.5089111328125,8.7738037109375
11.309999900000001,-10.14902114868164,-0.2777273952960968,0.629675030708313,41.4581298828125,-20.2484130859375,1.251220703125
11.3299999,-9.981427192687988,0.2992752194404602,1.6974890232086182,-1.64794921875,-1.40380859375,-3.448486328125
11.3499999,-9.835380554199219,0.7158663272857666,2.765302896499634,-25.6500244140625,12.9547119140625,-2.105712890625
11.3699999,-9.674968719482422,0.5889736413955688,2.80361008644104,-13.0767822265625,12.0849609375,-3.265380859375
11.389999900000001,-9.694122314453125,0.17717093229293823,2.540247917175293,11.3067626953125,5.645751953125,1.3275146484375
11.4099999,-9.674968719482422,-0.2992752194404602,1.7477672100067139,13.7786865234375,7.2021484375,6.591796875
11.4299999,-9.787496566772461,-0.6224924325942993,1.2042834758758545,-1.89208984375,8.2244873046875,11.962890625
11.4499999,-9.823410034179688,-0.6153098344802856,0.8690952062606812,-18.0206298828125,10.894775390625,12.51220703125
11.469999900000001,-9.904812812805176,-0.38546648621559143,0.5889736413955688,-22.3846435546875,11.8865966796875,10.2996826171875
11.4899999,-9.971850395202637,-0.05985504388809204,0.2992752194404602,-14.46533203125,4.3487548828125,3.0364990234375
11.5099999,-10.089165687561035,0.2082955539226532,0.06464344263076782,-5.5694580078125,-4.0283203125,-0.1373291015625
11.5299999,-10.177751541137695,0.33997663855552673,0.011971008032560349,-3.72314453125,-3.41796875,1.8157958984375
11.549999900000001,-10.156203269958496,0.33518823981285095,0.21308395266532898,-5.0506591796875,-2.6092529296875,3.0517578125
11.569999900000001,-10.067618370056152,0.2298433631658554,0.6248866319656372,-4.94384765625,-2.38037109375,4.0283203125
11.5899999,-9.926360130310059,0.10773907601833344,1.0773907899856567,-5.67626953125,0.5645751953125,3.936767578125
11.6099999,-9.864110946655273,0.016759412363171577,1.45806884765625,-7.87353515625,6.072998046875,5.126953125
11.629999900000001,-10.043676376342773,-0.031124621629714966,1.6519991159439087,-8.392333984375,10.7574462890625,4.2724609375
11.649999900000001,-10.704475402832031,-0.12689268589019775,1.6184803247451782,-4.33349609375,8.514404296875,-6.3323974609375
11.6699999,-11.252747535705566,-0.08140286058187485,1.2234370708465576,1.556396484375,4.791259765625,-22.2320556640625
11.6899999,-12.090718269348145,-0.08140286058187485,0.6560112833976746,8.270263671875,4.913330078125,-9.27734375
11.709999900000001,-12.442666053771973,-0.009576806798577309,0.016759412363171577,12.8326416015625,-6.103515625,-16.7999267578125
11.729999900000001,-12.322956085205078,0.031124621629714966,-0.3495534360408783,13.0157470703125,-29.96826171875,-22.3541259765625
11.7499999,-11.738770484924316,0.026336219161748886,-0.38067805767059326,11.260986328125,-34.5458984375,-17.9901123046875
11.7699999,-10.797849655151367,0.0071826050989329815,-0.09816227108240128,11.1541748046875,-7.14111328125,-3.7994384765625
11.7899999,-9.737217903137207,0.035913024097681046,0.2825157940387726,7.843017578125,10.25390625,6.3934326171875
11.809999900000001,-8.83939266204834,0.1173158809542656,0.5434837937355042,3.0975341796875,15.93017578125,5.584716796875
11.8299999,-8.2312650680542,0.22026655077934265,0.5722141861915588,0.762939453125,19.34814453125,-0.3662109375
11.8499999,-7.8529815673828125,0.26336219906806946,0.3926490843296051,-0.5950927734375,19.0582275390625,-5.8746337890625
11.8699999,-7.599195957183838,0.17717093229293823,0.05985504388809204,2.99072265625,23.62060546875,-8.1787109375
11.889999900000001,-7.438784599304199,-0.038307227194309235,-0.3016694188117981,9.3231201171875,30.5938720703125,-3.875732421875
11.9099999,-7.467514991760254,-0.33758243918418884,-0.5841852426528931,14.5416259765625,34.24072265625,5.4931640625
11.9299999,-7.7643961906433105,-0.6248866319656372,-0.6751648783683777,19.1650390625,31.585693359375,11.1541748046875
11.9499999,-8.329427719116211,-0.849941611289978,-0.5386953949928284,21.42333984375,30.181884765625,8.148193359375
11.969999900000001,-9.078812599182129,-0.9552865028381348,-0.22505496442317963,21.2554931640625,32.5927734375,2.593994140625
11.9899999,-9.828198432922363,-0.9552865028381348,0.17477671802043915,20.0958251953125,27.587890625,-0.4425048828125
12.0099999,-10.400412559509277,-0.8906430602073669,0.5434837937355042,18.5699462890625,16.7388916015625,-2.99072265625
12.0299999,-10.723628997802734,-0.790086567401886,0.8403648138046265,16.6778564453125,10.345458984375,-3.41796875
12.049999900000001,-10.845733642578125,-0.6823474764823914,0.993593692779541,12.481689453125,13.641357421875,-0.4425048828125
12.069999900000001,-10.759542465209961,-0.6009446382522583,1.05105459690094,8.0413818359375,15.869140625,-0.732421875
12.0899999,-10.584765434265137,-0.5602431893348694,1.015141487121582,5.7220458984375,13.8397216796875,-4.302978515625
12.1099999,-10.400412559509277,-0.5506663918495178,0.9265560507774353,7.293701171875,8.85009765625,-5.31005859375
12.129999900000001,-10.256759643554688,-0.5602431893348694,0.8451532125473022,9.4146728515625,0.091552734375,-3.753662109375
12.149999900000001,-10.120290756225586,-0.5554547905921936,0.7852981686592102,10.162353515625,-10.101318359375,-3.7078857421875
12.1699999,-9.986215591430664,-0.5051765441894531,0.7781155705451965,9.3841552734375,-15.2740478515625,-3.6163330078125
12.1899999,-9.859322547912598,-0.40222588181495667,0.790086567401886,6.072998046875,-11.8865966796875,-0.8087158203125
12.209999900000001,-9.696516990661621,-0.26096799969673157,0.8140285611152649,0.4425048828125,-8.11767578125,1.1138916015625
12.229999900000001,-9.555258750915527,-0.10295066982507706,0.8212111592292786,-5.9051513671875,-6.4544677734375,2.3956298828125
12.2499999,-9.469067573547363,0.06224924325942993,0.7709329724311829,-9.674072265625,-5.462646484375,6.9122314453125
12.2699999,-9.469067573547363,0.2082955539226532,0.667982280254364,-11.2457275390625,-5.3253173828125,8.6212158203125
12.289999900000002,-9.938331604003906,0.31124621629714966,0.47165772318840027,-12.7105712890625,-0.7476806640625,-2.532958984375
12.309999900000001,-10.441113471984863,0.3016694188117981,0.22266076505184174,-9.9334716796875,9.1705322265625,-11.2762451171875
12.3299999,-10.94150161743164,0.31124621629714966,-0.090979665517807,-3.96728515625,9.2620849609375,0.1678466796875
12.3499999,-11.137825965881348,0.24181437492370605,-0.37828385829925537,-1.6326904296875,-0.3662109375,1.312255859375
12.3699999,-10.752359390258789,0.1364694982767105,-0.5841852426528931,-1.0833740234375,-6.1798095703125,-6.3934326171875
12.389999900000001,-10.338163375854492,-0.047884032130241394,-0.608127236366272,-1.495361328125,-6.4849853515625,-6.2103271484375
12.4099999,-10.014945983886719,-0.2849099934101105,-0.47884035110473633,-1.861572265625,-5.37109375,-5.1422119140625
12.4299999,-9.923966407775879,-0.5770025849342346,-0.24899697303771973,-4.547119140625,-5.2337646484375,0.3509521484375
12.4499999,-9.945513725280762,-0.7781155705451965,-0.05985504388809204,-5.7220458984375,-4.241943359375,5.8441162109375
12.469999900000001,-9.96945571899414,-0.871489405632019,0.040701430290937424,-1.40380859375,-6.561279296875,5.6304931640625
12.4899999,-9.962273597717285,-0.8379706144332886,0.047884032130241394,4.302978515625,-9.6435546875,4.8828125
12.5099999,-9.955090522766113,-0.706289529800415,0.06464344263076782,8.4991455078125,-10.07080078125,5.615234375
12.5299999,-9.974244117736816,-0.47644615173339844,0.14844051003456116,8.48388671875,-9.7503662109375,5.5084228515625
12.549999900000001,-9.971850395202637,-0.1867477297782898,0.33039984107017517,2.8228759765625,-9.0484619140625,3.2806396484375
12.569999900000001,-9.93593692779541,0.090979665517807,0.5770025849342346,-9.2010498046875,-5.096435546875,0.0762939453125
12.5899999,-9.883264541625977,0.31364041566848755,0.8451532125473022,-20.782470703125,1.0528564453125,-1.373291015625
12.6099999,-9.885659217834473,0.3758896589279175,0.9624691009521484,-27.587890625,3.8299560546875,-2.777099609375
12.629999900000001,-9.8784761428833,0.29209262132644653,0.8547300100326538,-24.90234375,4.7454833984375,-1.3885498046875
12.649999900000001,-9.921571731567383,-0.021547814831137657,0.5267243981361389,-9.2926025390625,1.739501953125,1.617431640625
12.6699999,-9.976638793945312,-0.2753331959247589,0.1843535304069519,10.31494140625,-4.791259765625,0.3662109375
12.6899999,-10.029311180114746,-0.569819986820221,-0.08858546614646912,19.6075439453125,-7.9803466796875,-0.18310546875
12.709999900000001,-10.070012092590332,-0.7182605266571045,-0.033518824726343155,17.5323486328125,-7.4920654296875,3.6773681640625
12.729999900000001,-10.019734382629395,-0.7565677165985107,0.19632454216480255,9.0484619140625,-8.1024169921875,6.378173828125
12.7499999,-9.938331604003906,-0.6440402865409851,0.5626373887062073,-2.6397705078125,-3.4637451171875,3.8299560546875
12.7699999,-9.859322547912598,-0.4572925269603729,0.871489405632019,-12.5579833984375,1.7852783203125,0.1983642578125
12.789999900000002,-9.818621635437012,-0.19153612852096558,1.0654197931289673,-19.805908203125,7.537841796875,1.7242431640625
12.809999900000001,-9.86650562286377,0.07661445438861847,1.1324573755264282,-29.78515625,9.5062255859375,4.2724609375
12.8299999,-9.914389610290527,0.2059013396501541,0.9672574996948242,-40.95458984375,13.763427734375,6.4849853515625
12.8499999,-10.04846477508545,0.038307227194309235,0.4572925269603729,-30.94482421875,10.833740234375,6.988525390625
12.8699999,-10.1753568649292,-0.29209262132644653,-0.2944868206977844,5.615234375,-3.662109375,7.415771484375
12.889999900000001,-10.309432983398438,-0.6392518281936646,-1.094150185585022,41.7022705078125,-18.280029296875,7.4462890625
12.9099999,-10.393229484558105,-0.8379706144332886,-1.5753847360610962,51.45263671875,-27.7862548828125,4.913330078125
12.9299999,-10.33098030090332,-0.7254431247711182,-1.5442601442337036,45.5322265625,-29.78515625,-0.946044921875
12.9499999,-10.14902114868164,-0.3423708379268646,-0.7781155705451965,37.017822265625,-29.7698974609375,-1.8463134765625
12.969999900000001,-9.8784761428833,0.17956513166427612,0.4118026793003082,8.8653564453125,-17.8985595703125,5.31005859375
12.9899999,-9.648633003234863,0.667982280254364,1.6879122257232666,-27.2674560546875,3.204345703125,6.1798095703125
13.0099999,-9.548076629638672,0.933738648891449,2.6216509342193604,-38.02490234375,13.458251953125,3.9520263671875
13.0299999,-9.526528358459473,0.9983820915222168,2.911349296569824,-25.726318359375,11.2762451171875,-3.6773681640625
13.049999900000001,-9.679757118225098,0.7326257228851318,2.6001031398773193,-10.8489990234375,12.0391845703125,-5.828857421875
13.069999900000001,-9.78989028930664,0.31603461503982544,1.886630892753601,-3.9825439453125,15.472412109375,-7.6904296875
13.0899999,-9.86650562286377,-0.002394201699644327,1.2210428714752197,-2.471923828125,16.937255859375,-9.09423828125
13.1099999,-9.890447616577148,-0.20111294090747833,0.7038952708244324,-6.866455078125,16.815185546875,-5.8441162109375
13.129999900000001,-9.955090522766113,-0.20350714027881622,0.31842881441116333,-18.85986328125,21.3165283203125,-1.373291015625
13.149999900000001,-10.072406768798828,-0.08858546614646912,0.14844051003456116,-22.216796875,17.364501953125,0.2593994140625
13.1699999,-10.055646896362305,-0.0454898327589035,-0.08858546614646912,-20.08056640625,10.3302001953125,-5.67626953125
13.1899999,-10.144232749938965,-0.13407529890537262,-0.2825157940387726,-12.786865234375,7.8582763671875,-6.2255859375
13.209999900000001,-10.005369186401367,-0.3495534360408783,-0.5099649429321289,-0.701904296875,2.5787353515625,-6.866455078125
13.229999900000001,-10.012551307678223,-0.5793967843055725,-0.6607996821403503,6.134033203125,-2.5787353515625,-4.7149658203125
13.2499999,-9.974244117736816,-0.7398083209991455,-0.6584054827690125,3.143310546875,-1.556396484375,-0.9002685546875
13.2699999,-10.110713958740234,-0.7398083209991455,-0.5267243981361389,-5.0811767578125,-1.5106201171875,6.988525390625
13.289999900000002,-10.163386344909668,-0.689530074596405,-0.40940847992897034,-2.01416015625,-7.0953369140625,9.3841552734375
13.309999900000001,-10.232817649841309,-0.608127236366272,-0.45010992884635925,13.824462890625,-15.31982421875,3.7384033203125
13.3299999,-10.271124839782715,-0.5171475410461426,-0.4429273009300232,34.6221923828125,-22.8271484375,0.518798828125
13.3499999,-10.11789608001709,-0.38307225704193115,-0.2753331959247589,41.7022705078125,-25.6195068359375,-1.4190673828125
13.3699999,-9.981427192687988,-0.06464344263076782,0.3519476354122162,24.5361328125,-18.61572265625,-0.762939453125
13.389999900000001,-9.730035781860352,0.3016694188117981,1.2282254695892334,-11.260986328125,-2.5482177734375,0.0457763671875
13.4099999,-9.679757118225098,0.6248866319656372,1.9632453918457031,-38.6199951171875,13.73291015625,1.434326171875
13.4299999,-9.641449928283691,0.8571242094039917,2.389413356781006,-39.886474609375,15.9759521484375,2.410888671875
13.4499999,-9.727641105651855,0.6847416758537292,2.1715409755706787,-30.8990478515625,12.298583984375,-5.340576171875
13.469999900000001,-9.864110946655273,0.3256114423274994,1.5705963373184204,-14.129638671875,12.8326416015625,-9.857177734375
13.4899999,-9.9000244140625,-0.08858546614646912,0.8355764150619507,4.608154296875,11.71875,-10.6201171875
13.5099999,-9.974244117736816,-0.5291185975074768,0.14604631066322327,15.594482421875,6.7901611328125,-7.1563720703125
13.5299999,-9.95748519897461,-0.7805097699165344,-0.26336219906806946,11.1236572265625,5.9661865234375,-3.8299560546875
13.549999900000001,-10.02691650390625,-0.8906430602073669,-0.5219359993934631,1.2054443359375,7.87353515625,4.69970703125
13.569999900000001,-10.062829971313477,-0.8930372595787048,-0.5674257874488831,4.7454833984375,-0.5035400390625,7.8582763671875
13.5899999,-10.146626472473145,-0.7326257228851318,-0.5722141861915588,10.9100341796875,-9.1552734375,2.410888671875
13.6099999,-10.146626472473145,-0.6224924325942993,-0.5674257874488831,14.801025390625,-12.0697021484375,0.4730224609375
13.629999900000001,-10.074800491333008,-0.3064578175544739,-0.24899697303771973,14.4195556640625,-10.467529296875,-1.0986328125
13.649999900000001,-9.979032516479492,-0.07182604819536209,0.1843535304069519,1.03759765625,-6.5460205078125,0.1373291015625
13.6699999,-9.847352027893066,0.15562310814857483,0.7996633648872375,-24.139404296875,1.3427734375,1.0833740234375
13.6899999,-9.871294021606445,0.27054479718208313,1.2425906658172607,-40.8782958984375,11.627197265625,5.767822265625
13.709999900000001,-9.80904483795166,0.2537853717803955,1.53707754611969,-37.8570556640625,9.735107421875,9.674072265625
13.729999900000001,-9.907206535339355,0.15083470940589905,1.4197616577148438,-36.1175537109375,9.3994140625,5.0506591796875
13.7499999,-9.830592155456543,0.014365210197865963,1.0797849893569946,-30.1666259765625,10.5438232421875,1.4190673828125
13.7699999,-9.907206535339355,-0.17238251864910126,0.6153098344802856,-19.0887451171875,10.589599609375,0.06103515625
13.789999900000002,-9.988609313964844,-0.30885201692581177,0.14365209639072418,-7.9803466796875,3.631591796875,-0.823974609375
13.809999900000001,-10.007762908935547,-0.507570743560791,-0.4668693244457245,-2.5787353515625,4.974365234375,2.6397705078125
13.8299999,-10.187328338623047,-0.6967126727104187,-1.039083480834961,21.9268798828125,-2.5482177734375,4.8370361328125
13.8499999,-10.225635528564453,-0.6991068720817566,-1.4197616577148438,51.483154296875,-20.0958251953125,4.7454833984375
13.8699999,-10.247182846069336,-0.6057330369949341,-1.5753847360610962,61.767578125,-31.1431884765625,0.9613037109375
13.889999900000001,-10.225635528564453,-0.31603461503982544,-1.05105459690094,52.0172119140625,-28.01513671875,-1.6326904296875
13.9099999,-10.050858497619629,0.07422025501728058,-0.08858546614646912,25.4669189453125,-21.8963623046875,-4.608154296875
13.9299999,-9.873687744140625,0.4884171485900879,1.2282254695892334,-6.622314453125,-10.2691650390625,-7.568359375
13.9499999,-9.576807022094727,0.828393816947937,2.4444799423217773,-39.886474609375,9.796142578125,-4.638671875
13.969999900000001,-9.495404243469238,0.933738648891449,3.2082302570343018,-69.7479248046875,31.7535400390625,-0.213623046875
13.9899999,-9.526528358459473,0.7326257228851318,3.0621838569641113,-70.2972412109375,33.5693359375,4.4097900390625
14.0099999,-9.66539192199707,0.14365209639072418,2.030282974243164,-29.449462890625,20.9808349609375,3.72314453125
14.0299999,-10.014945983886719,-0.5147533416748047,0.4668693244457245,24.3682861328125,6.3629150390625,1.7242431640625
14.049999900000001,-10.213664054870605,-1.1109095811843872,-1.0797849893569946,50.6439208984375,-7.9498291015625,-1.3885498046875
14.069999900000001,-10.362105369567871,-1.2018892765045166,-1.9512743949890137,55.6793212890625,-20.1416015625,-4.08935546875
14.0899999,-10.295066833496094,-0.8667010068893433,-1.8698714971542358,42.96875,-20.6451416015625,-2.2125244140625
14.1099999,-10.201693534851074,-0.21787235140800476,-1.070208191871643,7.8887939453125,-11.383056640625,-0.8392333984375
14.129999900000001,-10.038887977600098,0.35913026332855225,0.014365210197865963,-20.782470703125,-3.448486328125,0.4425048828125
14.149999900000001,-9.945513725280762,0.5626373887062073,1.2976573705673218,-1.1749267578125,-2.01416015625,-4.1656494140625
14.1699999,-9.895236015319824,0.15322890877723694,1.2258312702178955,17.7764892578125,-4.5318603515625,-4.547119140625
14.1899999,-9.86650562286377,-0.23942017555236816,1.015141487121582,22.2625732421875,-7.659912109375,-6.8359375
14.209999900000001,-9.81143856048584,-0.44771572947502136,0.9169792532920837,15.7318115234375,-4.547119140625,-3.2501220703125
14.229999900000001,-9.794678688049316,-0.49320554733276367,0.9768342971801758,-5.37109375,5.18798828125,1.6021728515625
14.2499999,-9.852140426635742,-0.3208230137825012,1.094150185585022,-20.9197998046875,9.6282958984375,5.31005859375
14.2699999,-9.914389610290527,-0.05746084079146385,1.1013327836990356,-18.5089111328125,4.425048828125,1.5411376953125
14.289999900000002,-10.065223693847656,0.12210428714752197,0.8547300100326538,-8.0718994140625,3.4942626953125,-4.2724609375
14.309999900000001,-10.072406768798828,0.12210428714752197,0.5913678407669067,2.50244140625,0.1983642578125,-4.6234130859375
14.3299999,-9.931148529052734,0.08379705995321274,0.4429273009300232,2.349853515625,-3.0059814453125,-9.58251953125
14.3499999,-9.883264541625977,-0.1364694982767105,0.5099649429321289,-7.7667236328125,2.62451171875,-8.1787109375
14.3699999,-9.770736694335938,-0.2944868206977844,0.7038952708244324,-23.0255126953125,12.1002197265625,-1.861572265625
14.389999900000001,-9.768342971801758,-0.47644615173339844,0.811634361743927,-26.397705078125,16.17431640625,4.45556640625
14.4099999,-9.931148529052734,-0.524330198764801,0.8164227604866028,-16.265869140625,10.162353515625,8.209228515625
14.4299999,-9.955090522766113,-0.545877993106842,0.5003881454467773,-5.6610107421875,4.45556640625,0.9765625
14.4499999,-10.1753568649292,-0.5051765441894531,0.19632454216480255,4.0435791015625,1.89208984375,-1.3275146484375
14.469999900000001,-10.182539939880371,-0.5913678407669067,-0.3208230137825012,13.5040283203125,-2.8076171875,-4.9285888671875
14.4899999,-10.290278434753418,-0.6368576288223267,-0.7350199222564697,39.4744873046875,-12.4969482421875,-5.584716796875
14.5099999,-10.168174743652344,-0.5889736413955688,-0.751779317855835,52.581787109375,-19.8822021484375,-2.685546875
14.5299999,-10.132261276245117,-0.3711012601852417,-0.37828385829925537,22.64404296875,-10.589599609375,-0.3204345703125
14.549999900000001,-10.02452278137207,-0.035913024097681046,0.2992752194404602,-11.505126953125,-0.79345703125,3.082275390625
14.569999900000001,-9.943120002746582,0.21308395266532898,0.9552865028381348,-14.16015625,-3.753662109375,1.3885498046875
14.5899999,-9.959878921508789,0.27054479718208313,1.2641384601593018,-2.01416015625,-2.3040771484375,-4.39453125
14.6099999,-9.919178009033203,0.17717093229293823,1.280897855758667,4.08935546875,-1.6632080078125,-4.7607421875
14.629999900000001,-9.940725326538086,0.021547814831137657,1.1635819673538208,4.180908203125,-0.3662109375,-8.331298828125
14.649999900000001,-9.883264541625977,-0.0933738648891449,1.1994950771331787,2.4566650390625,3.1585693359375,-9.033203125
14.6699999,-9.895236015319824,-0.1412578970193863,1.2713210582733154,-12.3291015625,12.0391845703125,-8.30078125
14.6899999,-9.96945571899414,-0.17238251864910126,1.1779472827911377,-22.0184326171875,18.646240234375,-2.2125244140625
14.709999900000001,-10.065223693847656,-0.22744916379451752,0.9672574996948242,-10.6658935546875,10.528564453125,-3.5858154296875
14.729999900000001,-10.216058731079102,-0.272938996553421,0.5219359993934631,6.1492919921875,4.1656494140625,-6.439208984375
14.7499999,-10.220847129821777,-0.47405192255973816,-0.181959331035614,15.350341796875,0.4730224609375,-8.8653564453125
14.7699999,-10.211270332336426,-0.706289529800415,-0.569819986820221,34.2254638671875,-5.706787109375,-12.1307373046875
14.789999900000002,-10.091560363769531,-0.9648633003234863,-0.7398083209991455,49.13330078125,-14.3890380859375,-9.21630859375
14.809999900000001,-9.981427192687988,-1.1013327836990356,-0.44771572947502136,37.04833984375,-12.5732421875,-1.3275146484375
14.8299999,-9.904812812805176,-1.0630255937576294,0.1867477297782898,15.625,-1.64794921875,6.0577392578125
14.8499999,-9.837775230407715,-0.8690952062606812,0.9409212470054626,0.30517578125,2.960205078125,10.833740234375
14.8699999,-9.919178009033203,-0.5650315880775452,1.4652514457702637,-10.101318359375,8.3160400390625,3.7078857421875
14.889999900000001,-10.1753568649292,-0.3878606855869293,1.6615760326385498,-11.53564453125,12.9241943359375,1.6632080078125
14.9099999,-10.529699325561523,-0.2992752194404602,1.4628572463989258,-8.6212158203125,12.9852294921875,2.0294189453125
14.9299999,-10.970232009887695,-0.2992752194404602,0.9744400978088379,-3.021240234375,10.6964111328125,2.838134765625
14.9499999,-11.310209274291992,-0.3232172429561615,0.3758896589279175,4.08935546875,4.1656494140625,-1.373291015625
14.969999900000001,-11.441889762878418,-0.2944868206977844,-0.15322890877723694,9.8876953125,-0.5645751953125,-8.636474609375
14.9899999,-11.23598861694336,-0.21787235140800476,-0.4884171485900879,12.054443359375,0.579833984375,-13.0462646484375
15.0099999,-10.714052200317383,-0.11971008777618408,-0.5985504388809204,8.7432861328125,3.570556640625,-11.199951171875
15.0299999,-9.96945571899414,-0.043095629662275314,-0.5147533416748047,3.7841796875,9.6282958984375,-6.561279296875
15.049999900000001,-9.157821655273438,-0.05267243832349777,-0.3256114423274994,-2.3345947265625,18.1427001953125,-4.08935546875
15.069999900000001,-8.482656478881836,-0.1412578970193863,-0.11971008777618408,-8.1634521484375,25.1312255859375,1.03759765625
15.0899999,-8.085219383239746,-0.26815059781074524,0.014365210197865963,-9.58251953125,27.984619140625,8.026123046875
15.1099999,-8.006210327148438,-0.42856210470199585,0.06703764945268631,-6.6070556640625,22.4609375,10.5438232421875
15.129999900000001,-8.281543731689453,-0.5434837937355042,0.047884032130241394,-1.251220703125,12.39013671875,10.8184814453125
15.149999900000001,-8.760383605957031,-0.6224924325942993,0.035913024097681046,3.3111572265625,3.936767578125,9.9639892578125
15.1699999,-9.30386734008789,-0.6655880808830261,0.07661445438861847,5.096435546875,3.5400390625,7.659912109375
15.1899999,-9.773131370544434,-0.6847416758537292,0.1628057211637497,6.591796875,7.4615478515625,4.3792724609375
15.209999900000001,-10.105925559997559,-0.6871358752250671,0.26336219906806946,7.9803466796875,6.195068359375,3.9215087890625
15.229999900000001,-10.304644584655762,-0.6847416758537292,0.3423708379268646,7.7667236328125,0.8697509765625,6.1187744140625
15.2499999,-10.374075889587402,-0.6943184733390808,0.3926490843296051,6.4849853515625,-1.617431640625,4.0740966796875
15.2699999,-10.342951774597168,-0.6991068720817566,0.4381389021873474,5.218505859375,-0.2288818359375,-0.9918212890625
15.289999900000002,-10.251971244812012,-0.6847416758537292,0.47405192255973816,3.5247802734375,3.2806396484375,-3.997802734375
15.309999900000001,-10.11550235748291,-0.6536170840263367,0.5051765441894531,1.373291015625,2.9296875,-5.0506591796875
15.3299999,-9.959878921508789,-0.6033388376235962,0.5195417404174805,-0.5950927734375,-2.227783203125,-3.7841796875
15.3499999,-9.81143856048584,-0.5482721924781799,0.5315127968788147,-2.25830078125,-9.490966796875,1.0223388671875
15.3699999,-9.751583099365234,-0.4908113479614258,0.5386953949928284,-4.5318603515625,-12.4969482421875,6.28662109375
15.389999900000001,-9.744400978088379,-0.4405331015586853,0.5434837937355042,-5.9661865234375,-11.8865966796875,5.55419921875
15.4099999,-9.813833236694336,-0.3902548849582672,0.5363011956214905,-7.1868896484375,-11.383056640625,1.46484375
15.4299999,-9.909601211547852,-0.3208230137825012,0.5003881454467773,-8.5601806640625,-12.0391845703125,1.708984375
15.4499999,-9.995792388916016,-0.22744916379451752,0.45010992884635925,-10.43701171875,-11.5966796875,5.3558349609375
15.469999900000001,-10.144232749938965,-0.20111294090747833,0.31124621629714966,-13.458251953125,-2.3193359375,3.5247802734375
15.4899999,-10.311826705932617,-0.12928688526153564,0.12689268589019775,-12.1917724609375,14.22119140625,-5.126953125
15.5099999,-10.45547866821289,-0.12449848651885986,-0.12689268589019775,-6.0272216796875,8.453369140625,4.852294921875
15.5299999,-10.515334129333496,-0.1149216815829277,-0.35913026332855225,-2.777099609375,0.8544921875,5.0506591796875
15.549999900000001,-10.38604736328125,-0.10055647045373917,-0.5434837937355042,1.52587890625,-2.3040771484375,1.739501953125
15.569999900000001,-10.165780067443848,-0.13407529890537262,-0.5793967843055725,4.7760009765625,-6.9122314453125,1.7242431640625
15.5899999,-9.995792388916016,-0.19632454216480255,-0.5410895943641663,6.2255859375,-6.0882568359375,-1.220703125
15.6099999,-9.950302124023438,-0.2944868206977844,-0.3663128614425659,5.096435546875,-5.7525634765625,-3.2196044921875
15.629999900000001,-9.950302124023438,-0.3519476354122162,-0.1364694982767105,2.0751953125,-7.0953369140625,4.180908203125
15.649999900000001,-10.005369186401367,-0.3519476354122162,0.15322890877723694,-2.685546875,-6.6680908203125,4.8065185546875
15.6699999,-10.007762908935547,-0.31842881441116333,0.4405331015586853,-6.4239501953125,-5.2947998046875,2.227783203125
15.6899999,-9.967061996459961,-0.2585737705230713,0.6655880808830261,-8.11767578125,-1.190185546875,2.105712890625
15.709999900000001,-9.938331604003906,-0.22744916379451752,0.8044517636299133,-8.3160400390625,1.495361328125,3.8299560546875
15.729999900000001,-9.916783332824707,-0.2106897532939911,0.8020575642585754,-8.0108642578125,1.4190673828125,3.9825439453125
15.7499999,-9.892841339111328,-0.19393034279346466,0.7086837291717529,-5.9356689453125,1.8463134765625,2.2430419921875
15.7699999,-9.888052940368652,-0.16759411990642548,0.569819986820221,-4.1351318359375,2.4261474609375,0.885009765625
15.789999900000002,-9.907206535339355,-0.15083470940589905,0.4381389021873474,-3.692626953125,2.044677734375,0.42724609375
15.809999900000001,-9.923966407775879,-0.13168109953403473,0.33039984107017517,-3.2958984375,2.197265625,0.335693359375
15.8299999,-9.959878921508789,-0.10773907601833344,0.26096799969673157,-2.7313232421875,2.777099609375,0.1678466796875
15.8499999,-9.988609313964844,-0.08140286058187485,0.2106897532939911,-3.0059814453125,2.5634765625,-1.0223388671875
15.869999900000002,-10.022128105163574,-0.0071826050989329815,0.17956513166427612,-3.9825439453125,1.9989013671875,-2.01416015625
15.889999900000001,-10.046070098876953,0.031124621629714966,0.16759411990642548,-4.5166015625,1.4801025390625,-3.265380859375
15.9099999,-10.050858497619629,0.05985504388809204,0.26575639843940735,-6.3934326171875,1.373291015625,-4.1351318359375
15.9299999,-10.029311180114746,0.002394201699644327,0.4141969084739685,-11.0321044921875,4.57763671875,-3.3416748046875
15.9499999,-9.998186111450195,-0.08140286058187485,0.49799394607543945,13.946533203125,19.6380615234375,5.9967041015625
15.969999900000001,-9.945513725280762,-0.21547815203666687,0.4429273009300232,8.2244873046875,21.5301513671875,10.0860595703125
15.9899999,-9.96945571899414,-0.4812345504760742,0.19632454216480255,-1.0986328125,11.3677978515625,3.47900390625
16.0099999,-9.955090522766113,-0.7757213711738586,-0.24660277366638184,5.4168701171875,5.523681640625,5.6610107421875
16.0299999,-10.02452278137207,-1.0223240852355957,-0.7134721279144287,26.2603759765625,-2.3651123046875,13.2598876953125
16.0499999,-10.077195167541504,-1.094150185585022,-1.0007762908935547,45.5780029296875,-12.20703125,16.143798828125
16.0699999,-10.132261276245117,-0.871489405632019,-1.0773907899856567,44.4488525390625,-21.3623046875,11.23046875
16.089999900000002,-10.141838073730469,-0.33997663855552673,-0.7422025203704834,33.905029296875,-21.240234375,6.683349609375
16.109999900000002,-10.036493301391602,0.3447650372982025,-0.016759412363171577,13.2293701171875,-12.87841796875,0.8544921875
16.1299999,-9.911994934082031,0.950498104095459,0.8140285611152649,-14.58740234375,-1.40380859375,-6.8511962890625
16.1499999,-9.732429504394531,1.2425906658172607,1.4915876388549805,-32.745361328125,11.749267578125,-9.3536376953125
16.1699999,-9.684545516967773,1.2186486721038818,1.7525556087493896,-36.0565185546875,18.1732177734375,-4.1656494140625
16.1899999,-9.763554573059082,0.7541735172271729,1.5203180313110352,-27.8472900390625,14.739990234375,2.9144287109375
16.2099999,-9.885659217834473,0.11013327538967133,0.8834604024887085,-8.23974609375,7.26318359375,1.6021728515625
16.2299999,-10.06043529510498,-0.5746083855628967,0.1173158809542656,16.7999267578125,-1.64794921875,-0.091552734375
16.249999900000002,-10.093954086303711,-1.015141487121582,-0.49799394607543945,32.89794921875,-6.4697265625,1.2359619140625
16.269999900000002,-10.120290756225586,-1.1324573755264282,-0.8834604024887085,32.77587890625,-6.7901611328125,2.410888671875
16.2899999,-10.070012092590332,-0.8475474119186401,-0.8882488012313843,23.3154296875,-6.2103271484375,1.5716552734375
16.3099999,-10.137049674987793,-0.21787235140800476,-0.5386953949928284,6.7291259765625,-3.5247802734375,5.5694580078125
16.3299999,-10.0580415725708,0.4381389021873474,0.05506663769483566,-13.7939453125,-0.6866455078125,6.256103515625
16.3499999,-10.02691650390625,0.9600749015808105,0.6033388376235962,-29.4952392578125,1.4190673828125,-2.716064453125
16.3699999,-9.919178009033203,1.05105459690094,0.933738648891449,-27.191162109375,4.638671875,-9.7198486328125
16.3899999,-9.852140426635742,0.7350199222564697,0.9744400978088379,-13.946533203125,5.584716796875,-11.0321044921875
16.4099999,-9.804255485534668,0.17956513166427612,0.7374141216278076,-2.7313232421875,5.31005859375,-4.5318603515625
16.429999900000002,-9.873687744140625,-0.42616790533065796,0.37828385829925537,2.50244140625,7.5531005859375,2.2735595703125
16.4499999,-9.96945571899414,-0.7757213711738586,0.08858546614646912,8.1939697265625,7.0953369140625,9.94873046875
16.4699999,-10.019734382629395,-0.8547300100326538,-0.12449848651885986,11.3372802734375,-0.0457763671875,11.5966796875
16.4899999,-10.089165687561035,-0.6344634294509888,-0.19393034279346466,6.866455078125,-4.5623779296875,7.171630859375
16.5099999,-10.062829971313477,-0.40222588181495667,-0.1843535304069519,0.7171630859375,-2.532958984375,1.9683837890625
16.5299999,-10.04846477508545,-0.06224924325942993,0.009576806798577309,-2.8839111328125,1.7242431640625,1.28173828125
16.5499999,-9.93593692779541,0.15562310814857483,0.21308395266532898,-9.9639892578125,4.791259765625,1.7547607421875
16.5699999,-9.976638793945312,0.30885201692581177,0.363918662071228,-19.1192626953125,10.589599609375,7.38525390625
16.589999900000002,-9.93354320526123,0.28969839215278625,0.3734954595565796,-20.0042724609375,8.2855224609375,10.8489990234375
16.609999900000002,-9.99100399017334,0.22266076505184174,0.2346317619085312,-10.8489990234375,1.9989013671875,9.1400146484375
16.6299999,-9.986215591430664,0.06464344263076782,0.014365210197865963,-0.9307861328125,-3.936767578125,6.4849853515625
16.6499999,-9.974244117736816,0.05027823522686958,-0.1412578970193863,0.457763671875,-2.349853515625,2.685546875
16.6699999,-9.99339771270752,0.0694318488240242,-0.1628057211637497,-2.8076171875,0.1983642578125,1.2054443359375
16.6899999,-9.952696800231934,0.2537853717803955,-0.10534487664699554,-7.4920654296875,4.852294921875,0.3814697265625
16.7099999,-10.053253173828125,0.40462008118629456,-0.043095629662275314,-7.659912109375,6.3934326171875,5.18798828125
16.7299999,-10.038887977600098,0.5291185975074768,-0.035913024097681046,-3.021240234375,0.79345703125,4.608154296875
16.749999900000002,-10.067618370056152,0.5123591423034668,-0.028730420395731926,2.7923583984375,-4.058837890625,-0.518798828125
16.769999900000002,-10.04846477508545,0.33279404044151306,-0.0454898327589035,7.26318359375,-5.035400390625,-3.5858154296875
16.7899999,-9.971850395202637,0.12689268589019775,-0.002394201699644327,8.514404296875,-3.11279296875,-2.3956298828125
16.8099999,-9.897629737854004,-0.016759412363171577,0.10534487664699554,5.31005859375,1.6326904296875,-0.9002685546875
16.8299999,-9.861717224121094,-0.038307227194309235,0.19393034279346466,0.244140625,4.7607421875,0.091552734375
16.8499999,-9.880870819091797,0.0071826050989329815,0.272938996553421,-2.4566650390625,5.79833984375,5.279541015625
16.8699999,-9.919178009033203,0.14844051003456116,0.24420857429504395,-4.8065185546875,2.105712890625,8.4381103515625
16.8899999,-10.007762908935547,0.17477671802043915,0.12689268589019775,-5.4931640625,-1.800537109375,4.180908203125
16.9099999,-10.086771965026855,0.14365209639072418,-0.004788403399288654,-1.5869140625,-4.0130615234375,-0.06103515625
16.929999900000002,-10.02691650390625,0.09816227108240128,-0.014365210197865963,3.1585693359375,-2.7923583984375,1.0223388671875
16.9499999,-9.988609313964844,0.090979665517807,0.05506663769483566,-5.1116943359375,2.105712890625,7.232666015625
16.9699999,-9.967061996459961,0.08140286058187485,0.13407529890537262,-18.2342529296875,7.293701171875,9.7808837890625
16.9899999,-9.95748519897461,0.1364694982767105,0.12928688526153564,-15.960693359375,7.4310302734375,12.0849609375
17.0099999,-10.014945983886719,0.2585737705230713,0.028730420395731926,-5.462646484375,-1.983642578125,13.946533203125
17.0299999,-10.053253173828125,0.4908113479614258,-0.06464344263076782,-1.46484375,-6.3934326171875,9.429931640625
17.0499999,-9.950302124023438,0.7015010714530945,-0.11252748221158981,-3.1280517578125,-5.645751953125,1.46484375
17.0699999,-9.873687744140625,0.9576807022094727,0.12449848651885986,-5.2337646484375,-0.396728515625,-5.0811767578125
17.089999900000002,-9.761159896850586,1.0319008827209473,0.28969839215278625,-14.678955078125,3.662109375,-6.866455078125
17.109999900000002,-9.823410034179688,0.993593692779541,0.5722141861915588,-22.0947265625,10.8795166015625,-2.74658203125
17.1299999,-9.885659217834473,0.6703764796257019,0.5051765441894531,-19.683837890625,12.4053955078125,1.6021728515625
17.1499999,-10.072406768798828,0.2801215946674347,0.24660277366638184,0.7781982421875,8.3770751953125,3.3721923828125
17.1699999,-10.168174743652344,-0.2059013396501541,-0.33997663855552673,32.928466796875,-4.3792724609375,2.349853515625
17.1899999,-10.251971244812012,-0.5171475410461426,-0.9097966551780701,58.0291748046875,-15.838623046875,2.593994140625
17.2099999,-10.273519515991211,-0.5051765441894531,-1.292868971824646,64.4378662109375,-21.8658447265625,-0.9307861328125
17.2299999,-10.216058731079102,-0.10055647045373917,-1.2449848651885986,48.8739013671875,-19.7601318359375,-1.9073486328125
17.249999900000002,-10.072406768798828,0.49320554733276367,-0.751779317855835,20.6451416015625,-14.16015625,-0.18310546875
17.269999900000002,-9.904812812805176,1.0845733880996704,-0.033518824726343155,-4.5928955078125,-6.9122314453125,2.3040771484375
17.2899999,-9.888052940368652,1.2665326595306396,0.6033388376235962,-13.824462890625,-6.3323974609375,-0.30517578125
17.3099999,-9.852140426635742,1.0869675874710083,1.0223240852355957,-6.0272216796875,-7.0037841796875,-1.678466796875
17.3299999,-9.86889934539795,0.6775590777397156,1.2330138683319092,5.462646484375,-7.720947265625,2.838134765625
17.3499999,-9.804255485534668,0.33518823981285095,1.3694833517074585,5.3253173828125,-1.1444091796875,3.1890869140625
17.3699999,-9.703699111938477,0.28969839215278625,1.4987702369689941,-9.1705322265625,10.833740234375,-0.885009765625
17.3899999,-9.674968719482422,0.5386953949928284,1.556231141090393,-29.23583984375,22.4456787109375,-3.5858154296875
17.409999900000003,-9.725247383117676,0.8355764150619507,1.3455413579940796,-38.9862060546875,25.0244140625,-0.1373291015625
17.429999900000002,-9.943120002746582,0.9145850539207458,0.7254431247711182,-29.4952392578125,16.17431640625,0.8697509765625
17.4499999,-10.096348762512207,0.6775590777397156,-0.1364694982767105,-1.89208984375,6.0577392578125,-6.1187744140625
17.4699999,-10.218452453613281,0.26336219906806946,-0.9959878921508789,29.4189453125,-9.1400146484375,-5.401611328125
17.4899999,-10.271124839782715,-0.05267243832349777,-1.5155296325683594,42.2821044921875,-15.7318115234375,-2.44140625
17.5099999,-10.156203269958496,-0.14365209639072418,-1.4724340438842773,30.2581787109375,-12.8021240234375,-1.46484375
17.5299999,-10.086771965026855,0.028730420395731926,-0.9409212470054626,9.2620849609375,-7.5836181640625,0.6256103515625
17.5499999,-9.93593692779541,0.3280056416988373,-0.16759411990642548,-4.8065185546875,-3.6773681640625,4.852294921875
17.5699999,-9.871294021606445,0.5674257874488831,0.5817909836769104,-14.58740234375,-1.9378662109375,6.805419921875
17.589999900000002,-9.832986831665039,0.6631938815116882,1.0247182846069336,-19.439697265625,1.129150390625,0.0152587890625
17.609999900000002,-9.763554573059082,0.6105214357376099,1.2761094570159912,-14.434814453125,1.800537109375,-2.197265625
17.6299999,-9.720458984375,0.608127236366272,1.3718775510787964,-12.4053955078125,6.28662109375,-1.983642578125
17.6499999,-9.607931137084961,0.7374141216278076,1.4508862495422363,-26.9775390625,16.05224609375,-3.5552978515625
17.6699999,-9.691728591918945,0.9217676520347595,1.5418659448623657,-52.490234375,27.89306640625,-1.678466796875
17.6899999,-9.643844604492188,1.1228805780410767,1.4484920501708984,-71.533203125,35.8734130859375,-0.3662109375
17.7099999,-9.677363395690918,1.292868971824646,1.2856862545013428,-69.2138671875,32.9742431640625,-1.678466796875
17.7299999,-9.885659217834473,1.1540051698684692,0.7469909191131592,-66.253662109375,35.33935546875,-6.16455078125
17.749999900000002,-9.907206535339355,0.7110779285430908,-0.026336219161748886,-56.060791015625,32.470703125,-11.0626220703125
17.769999900000002,-10.196905136108398,0.038307227194309235,-1.0534487962722778,-12.39013671875,19.59228515625,-7.659912109375
17.7899999,-10.347740173339844,-0.7374141216278076,-2.1308395862579346,45.7916259765625,2.9144287109375,-1.3885498046875
17.8099999,-10.465055465698242,-1.292868971824646,-3.0382418632507324,78.9947509765625,-9.09423828125,2.5787353515625
17.8299999,-10.515334129333496,-1.3120225667953491,-3.421314239501953,89.3402099609375,-20.93505859375,7.0648193359375
17.8499999,-10.445901870727539,-0.7565677165985107,-3.098097085952759,83.953857421875,-34.088134765625,7.9803466796875
17.8699999,-10.323798179626465,0.05985504388809204,-2.296039342880249,61.004638671875,-36.041259765625,2.2125244140625
17.8899999,-10.093954086303711,0.8427590131759644,-1.015141487121582,32.8826904296875,-28.8848876953125,-3.143310546875
17.909999900000003,-9.66299819946289,1.525106430053711,1.4915876388549805,-19.0887451171875,-7.8582763671875,-7.3699951171875
17.929999900000002,-9.531316757202148,1.3431471586227417,2.2194249629974365,-31.2042236328125,10.8795166015625,-2.899169921875
17.9499999,-9.493009567260742,0.9457096457481384,2.408566951751709,-35.8123779296875,21.7132568359375,3.7841796875
17.9699999,-9.514557838439941,0.42616790533065796,1.968033790588379,-28.778076171875,19.256591796875,8.331298828125
17.9899999,-9.787496566772461,0.05027823522686958,0.9696516990661621,-6.4239501953125,10.101318359375,6.1798095703125
18.0099999,-10.041281700134277,-0.1628057211637497,-0.16759411990642548,25.5279541015625,-0.2288818359375,0.79345703125
18.0299999,-10.287884712219238,-0.11252748221158981,-1.0749965906143188,40.46630859375,-14.007568359375,-3.662109375
18.0499999,-10.316615104675293,0.14604631066322327,-1.4413094520568848,28.8238525390625,-16.326904296875,-8.5601806640625
18.0699999,-10.170568466186523,0.44532153010368347,-1.1348515748977661,6.591796875,-8.9874267578125,-7.7362060546875
18.089999900000002,-10.02691650390625,0.6177040338516235,-0.4620809257030487,-14.556884765625,1.9378662109375,-5.584716796875
18.109999900000002,-9.871294021606445,0.507570743560791,0.1412578970193863,-18.73779296875,4.6539306640625,1.6632080078125
18.1299999,-9.890447616577148,0.21787235140800476,0.363918662071228,-1.800537109375,-0.823974609375,6.561279296875
18.1499999,-10.053253173828125,-0.1843535304069519,0.1412578970193863,24.2919921875,-7.659912109375,6.622314453125
18.1699999,-10.086771965026855,-0.2801215946674347,-0.10295066982507706,43.02978515625,-16.265869140625,5.6304931640625
18.1899999,-10.079588890075684,-0.08858546614646912,-0.11013327538967133,33.4320068359375,-17.2119140625,1.03759765625
18.2099999,-9.947908401489258,0.4213795065879822,0.1843535304069519,0.762939453125,-3.8909912109375,-3.448486328125
18.2299999,-9.828198432922363,0.9672574996948242,0.7254431247711182,-26.7181396484375,9.4757080078125,-5.4473876953125
18.249999900000002,-9.818621635437012,1.1659762859344482,0.9624691009521484,-30.6549072265625,12.6800537109375,-1.5106201171875
18.269999900000002,-9.84256362915039,1.0295066833496094,0.8738836050033569,-13.97705078125,4.94384765625,-1.3580322265625
18.2899999,-10.012551307678223,0.5841852426528931,0.3902548849582672,13.48876953125,-0.7781982421875,-0.0457763671875
18.3099999,-10.04846477508545,0.07900865375995636,-0.09576806426048279,34.4696044921875,-7.843017578125,0.8392333984375
18.3299999,-10.072406768798828,-0.043095629662275314,-0.3758896589279175,32.073974609375,-11.749267578125,-2.8839111328125
18.3499999,-10.031704902648926,0.05985504388809204,-0.31603461503982544,11.3677978515625,-5.4931640625,-8.148193359375
18.3699999,-9.96945571899414,0.38067805767059326,0.0454898327589035,-8.8958740234375,4.8675537109375,-8.2244873046875
18.3899999,-9.964667320251465,0.629675030708313,0.395043283700943,-17.0440673828125,8.9874267578125,-1.953125
18.409999900000003,-9.938331604003906,0.5530605912208557,0.5171475410461426,-11.23046875,4.3487548828125,-2.3651123046875
18.429999900000002,-9.998186111450195,0.35673606395721436,0.38067805767059326,-0.1220703125,0.6256103515625,-1.4190673828125
18.4499999,-10.014945983886719,0.033518824726343155,0.14604631066322327,11.5509033203125,-4.3487548828125,-1.2664794921875
18.4699999,-9.995792388916016,-0.15083470940589905,-0.08619125932455063,15.594482421875,-8.392333984375,-2.777099609375
18.4899999,-9.979032516479492,-0.20111294090747833,-0.1173158809542656,8.0413818359375,-4.4097900390625,-3.326416015625
18.5099999,-9.928754806518555,-0.08619125932455063,-0.05985504388809204,0.396728515625,2.227783203125,-0.7171630859375
18.5299999,-9.976638793945312,0.11013327538967133,0.0454898327589035,1.9073486328125,1.739501953125,4.150390625
18.5499999,-10.010157585144043,0.33758243918418884,0.15801730751991272,4.5013427734375,-3.9215087890625,2.7008056640625
18.5699999,-10.086771965026855,0.3902548849582672,0.17956513166427612,4.791259765625,-4.7454833984375,0.030517578125
18.589999900000002,-10.067618370056152,0.4620809257030487,0.2753331959247589,3.2501220703125,-5.0506591796875,-2.471923828125
18.609999900000002,-9.995792388916016,0.3734954595565796,0.3687070608139038,0.3509521484375,-4.1046142578125,-4.9591064453125
18.6299999,-9.888052940368652,0.31603461503982544,0.48602294921875,-4.547119140625,0.2593994140625,-5.523681640625
18.6499999,-9.832986831665039,0.26336219906806946,0.6033388376235962,-12.2833251953125,9.4757080078125,-3.5400390625
18.6699999,-9.80904483795166,0.24420857429504395,0.6129156351089478,-14.3585205078125,11.2152099609375,2.7008056640625
18.6899999,-9.861717224121094,0.12449848651885986,0.45250412821769714,-8.5296630859375,5.126953125,2.9144287109375
18.7099999,-9.988609313964844,0.026336219161748886,0.1364694982767105,6.011962890625,-1.52587890625,0.579833984375
18.7299999,-10.089165687561035,-0.06464344263076782,-0.19632454216480255,18.218994140625,-7.9193115234375,-1.190185546875
18.749999900000002,-10.137049674987793,-0.10295066982507706,-0.31364041566848755,19.4244384765625,-10.55908203125,-2.288818359375
18.769999900000002,-10.079588890075684,0.033518824726343155,-0.17238251864910126,11.4593505859375,-8.636474609375,-3.814697265625
18.7899999,-9.99339771270752,0.181959331035614,0.2059013396501541,-7.1258544921875,3.2958984375,-3.997802734375
18.8099999,-9.9000244140625,0.42616790533065796,0.6512228846549988,-20.0653076171875,12.1612548828125,0.42724609375
18.8299999,-9.8784761428833,0.49799394607543945,0.8523358106613159,-21.6522216796875,9.8876953125,2.3956298828125
18.8499999,-9.981427192687988,0.4381389021873474,0.7374141216278076,-11.0626220703125,5.2947998046875,-0.06103515625
18.8699999,-10.017339706420898,0.2968810200691223,0.4692635238170624,2.5482177734375,0.42724609375,-2.166748046875
18.8899999,-10.079588890075684,0.014365210197865963,0.07182604819536209,7.659912109375,-3.509521484375,-4.180908203125
18.909999900000003,-10.017339706420898,-0.07182604819536209,-0.07422025501728058,9.4146728515625,-5.55419921875,-3.7841796875
18.929999900000002,-9.93354320526123,0.031124621629714966,-0.002394201699644327,-1.6937255859375,2.2430419921875,-2.9754638671875
18.9499999,-9.852140426635742,0.23942017555236816,0.3280056416988373,-22.6287841796875,10.5438232421875,-2.5787353515625
18.9699999,-9.746794700622559,0.4908113479614258,0.6368576288223267,-38.7115478515625,13.9617919921875,0.5035400390625
18.9899999,-9.737217903137207,0.6224924325942993,0.8667010068893433,-41.9921875,13.9617919921875,0.5645751953125
19.0099999,-9.847352027893066,0.5339069962501526,0.7182605266571045,-42.4957275390625,16.998291015625,-2.2430419921875
19.0299999,-10.019734382629395,0.22026655077934265,0.304063618183136,-32.71484375,9.6282958984375,-1.77001953125
19.0499999,-10.180145263671875,-0.2585737705230713,-0.3974374830722809,-1.5716552734375,-1.434326171875,-3.41796875
19.0699999,-10.311826705932617,-0.7829039692878723,-1.0965443849563599,46.2646484375,-11.6424560546875,-2.3345947265625
19.089999900000002,-10.347740173339844,-1.113303780555725,-1.6112977266311646,74.4781494140625,-17.1661376953125,1.1749267578125
19.109999900000002,-10.295066833496094,-1.0079588890075684,-1.6400281190872192,79.833984375,-21.1944580078125,8.36181640625
19.1299999,-10.228029251098633,-0.3687070608139038,-1.1635819673538208,61.58447265625,-23.0712890625,6.1492919921875
19.1499999,-10.146626472473145,0.5171475410461426,-0.31603461503982544,33.2489013671875,-17.0440673828125,-2.0294189453125
19.1699999,-9.950302124023438,1.3479355573654175,0.730231523513794,0.2593994140625,-8.0718994140625,-9.521484375
19.1899999,-9.797073364257812,1.742978811264038,1.5873557329177856,-27.40478515625,3.143310546875,-15.350341796875
19.2099999,-9.62947940826416,1.5442601442337036,2.094926595687866,-38.482666015625,11.444091796875,-15.9759521484375
19.2299999,-9.57201862335205,0.8547300100326538,2.030282974243164,-33.660888671875,19.0887451171875,-8.026123046875
19.249999900000002,-9.607931137084961,-0.040701430290937424,1.5610195398330688,-21.4080810546875,20.782470703125,0.54931640625
19.269999900000002,-9.792284965515137,-0.849941611289978,0.6488286852836609,-6.4697265625,14.862060546875,7.7667236328125
19.2899999,-10.065223693847656,-1.237802267074585,-0.33039984107017517,12.5885009765625,2.4261474609375,11.688232421875
19.3099999,-10.319009780883789,-1.194706678390503,-1.1037269830703735,26.824951171875,-8.7890625,11.016845703125
19.3299999,-10.409989356994629,-0.6967126727104187,-1.4915876388549805,28.594970703125,-20.0347900390625,4.39453125
19.3499999,-10.417171478271484,-0.07900865375995636,-1.2713210582733154,18.890380859375,-20.538330078125,-4.2724609375
19.3699999,-10.187328338623047,0.5889736413955688,-0.45250412821769714,2.5177001953125,-11.688232421875,-5.9814453125
19.3899999,-9.99100399017334,0.8978256583213806,0.5650315880775452,-23.7579345703125,4.08935546875,-3.0364990234375
19.409999900000003,-9.907206535339355,0.8978256583213806,1.3646949529647827,-39.2608642578125,19.4244384765625,0.5950927734375
19.429999900000002,-9.856928825378418,0.5195417404174805,1.647210717201233,-28.167724609375,17.364501953125,8.453369140625
19.4499999,-9.959878921508789,0.06703764945268631,1.2641384601593018,-3.7078857421875,9.6282958984375,10.80322265625
19.4699999,-10.000580787658691,-0.3423708379268646,0.48602294921875,21.54541015625,-0.3814697265625,6.2255859375
19.4899999,-10.113107681274414,-0.5027823448181152,-0.43095630407333374,32.2723388671875,-8.270263671875,1.3427734375
19.5099999,-10.0580415725708,-0.5746083855628967,-0.9074024558067322,40.9088134765625,-11.2762451171875,2.0904541015625
19.5299999,-10.113107681274414,-0.3208230137825012,-0.9433154463768005,41.68701171875,-13.36669921875,9.307861328125
19.5499999,-9.945513725280762,-0.016759412363171577,-0.3926490843296051,18.0816650390625,-7.3394775390625,8.4991455078125
19.5699999,-9.876082420349121,0.4644751250743866,0.42616790533065796,-8.72802734375,5.7525634765625,3.2501220703125
19.589999900000002,-9.718064308166504,0.9169792532920837,1.1779472827911377,-23.5137939453125,14.404296875,-1.3580322265625
19.609999900000002,-9.744400978088379,1.139639973640442,1.5753847360610962,-28.1829833984375,16.6168212890625,-4.3487548828125
19.6299999,-9.861717224121094,1.0893617868423462,1.5203180313110352,-24.7650146484375,18.585205078125,-4.180908203125
19.6499999,-10.230423927307129,0.8307880163192749,1.115697979927063,-15.869140625,17.4407958984375,-2.9144287109375
19.6699999,-10.869675636291504,0.47405192255973816,0.5482721924781799,-8.1329345703125,12.87841796875,-6.5460205078125
19.6899999,-11.405977249145508,0.18914192914962769,-0.014365210197865963,-5.3558349609375,6.8206787109375,-9.490966796875
19.7099999,-12.11705493927002,0.002394201699644327,-0.42856210470199585,-3.4942626953125,9.8419189453125,-4.547119140625
19.7299999,-12.287043571472168,-0.0454898327589035,-0.6177040338516235,-0.274658203125,1.40380859375,-9.0484619140625
19.749999900000002,-12.15057373046875,-0.0454898327589035,-0.5889736413955688,1.007080078125,-4.6844482421875,-14.1143798828125
19.769999900000002,-11.549629211425781,-0.07182604819536209,-0.3447650372982025,0.9002685546875,0.7171630859375,-16.8914794921875
19.7899999,-10.584765434265137,-0.17956513166427612,0.08379705995321274,-1.708984375,6.927490234375,-16.8304443359375
19.8099999,-9.502586364746094,-0.37828385829925537,0.5961562395095825,-6.805419921875,10.5743408203125,-14.0533447265625
19.8299999,-8.508993148803711,-0.629675030708313,1.0797849893569946,-15.716552734375,5.1116943359375,-10.223388671875
19.8499999,-7.8098859786987305,-0.8690952062606812,1.4652514457702637,-24.810791015625,-4.5166015625,-7.0648193359375
19.8699999,-7.51779317855835,-1.0462661981582642,1.6927006244659424,-29.022216796875,-7.8277587890625,-9.796142578125
19.8899999,-7.618350028991699,-1.1444283723831177,1.7166426181793213,-29.7088623046875,-7.8582763671875,-16.4642333984375
