# Time (seconds),Accel_X,Accel_Y,Accel_Z,Gyro_X,Gyro_Y,Gyro_Z
0.0099999,0.3998316824436188,-9.770736694335938,1.436521053314209,-0.54931640625,1.129150390625,-2.899169921875
0.029999900000000003,0.35913026332855225,-9.773131370544434,1.4293384552001953,0.5950927734375,-0.5035400390625,-5.035400390625
0.0499999,0.40701428055763245,-9.787496566772461,1.4053963422775269,-0.885009765625,-0.274658203125,-5.67626953125
0.0699999,0.608127236366272,-9.818621635437012,1.3694833517074585,-2.0599365234375,-0.30517578125,-2.593994140625
0.08999990000000001,0.8307880163192749,-9.835380554199219,1.3670891523361206,1.2664794921875,1.5716552734375,2.50244140625
0.10999990000000001,0.9983820915222168,-9.859322547912598,1.335964560508728,1.5869140625,1.6937255859375,5.340576171875
0.1299999,0.9720458984375,-9.847352027893066,1.3623007535934448,0,1.3885498046875,4.33349609375
0.14999990000000002,0.811634361743927,-9.828198432922363,1.403002142906189,-0.823974609375,0.701904296875,0.5340576171875
0.1699999,0.6129156351089478,-9.797073364257812,1.4389152526855469,-0.518798828125,0.396728515625,-1.89208984375
0.1899999,0.4836287498474121,-9.787496566772461,1.434126853942871,-0.06103515625,0.335693359375,-1.8768310546875
0.20999990000000002,0.4620809257030487,-9.785101890563965,1.434126853942871,0.3509521484375,0.579833984375,-1.28173828125
0.2299999,0.5147533416748047,-9.792284965515137,1.4197616577148438,-0.30517578125,0.48828125,-1.40380859375
0.2499999,0.5793967843055725,-9.801861763000488,1.4173674583435059,-0.5340576171875,0.3814697265625,-1.2359619140625
0.2699999,0.6129156351089478,-9.804255485534668,1.4197616577148438,0.1983642578125,0.518798828125,-1.007080078125
0.28999990000000003,0.6105214357376099,-9.801861763000488,1.4245500564575195,0.0762939453125,0.18310546875,-2.197265625
0.3099999,0.6248866319656372,-9.813833236694336,1.4197616577148438,-0.701904296875,-0.48828125,-3.936767578125
0.3299999,0.646434485912323,-9.852140426635742,1.3431471586227417,0.3509521484375,-5.2642822265625,-0.5035400390625
0.34999990000000003,0.6775590777397156,-9.904812812805176,1.2641384601593018,3.6773681640625,-18.5089111328125,8.6822509765625
0.3699999,0.7374141216278076,-9.964667320251465,1.1635819673538208,3.2196044921875,-29.937744140625,13.8092041015625
0.3899999,0.7757213711738586,-10.012551307678223,1.0773907899856567,0.5645751953125,-30.8380126953125,13.85498046875
0.40999990000000003,0.8595184087753296,-10.132261276245117,1.0558429956436157,0.8697509765625,-25.848388671875,13.8702392578125
0.4299999,1.0414776802062988,-10.287884712219238,1.0797849893569946,5.18798828125,-17.303466796875,24.9176025390625
0.4499999,1.2306196689605713,-10.508151054382324,1.1516109704971313,10.162353515625,3.021240234375,36.590576171875
0.4699999,1.3024457693099976,-10.737994194030762,1.2689268589019775,11.3067626953125,26.214599609375,37.872314453125
0.4899999,1.115697979927063,-10.96304988861084,1.3886369466781616,10.467529296875,38.787841796875,30.7159423828125
0.5099999,0.6703764796257019,-11.17852783203125,1.4987702369689941,12.5579833984375,36.4227294921875,19.8516845703125
0.5299999,0.10534487664699554,-11.39400577545166,1.623268723487854,14.0380859375,26.763916015625,9.979248046875
0.5499999,-0.2944868206977844,-11.511322021484375,1.8195933103561401,6.866455078125,22.613525390625,4.7760009765625
0.5699999,-0.40701428055763245,-11.494562149047852,2.099714994430542,-8.97216796875,27.6336669921875,3.23486328125
0.5899998999999999,-0.31842881441116333,-11.379640579223633,2.3965959548950195,-27.9541015625,32.7911376953125,8.4381103515625
0.6099998999999999,-0.181959331035614,-11.166556358337402,2.5953147411346436,-46.478271484375,28.594970703125,19.0277099609375
0.6299999,-0.19153612852096558,-10.953473091125488,2.58813214302063,-61.553955078125,18.2952880859375,22.3388671875
0.6499999,-0.31124621629714966,-10.723628997802734,2.4013843536376953,-71.9451904296875,7.8125,18.096923828125
0.6699999,-0.45489832758903503,-10.508151054382324,2.0829553604125977,-80.5816650390625,3.8604736328125,16.754150390625
0.6899999,-0.5147533416748047,-10.307038307189941,1.6855180263519287,-88.8519287109375,9.735107421875,21.8963623046875
0.7099999,-0.5051765441894531,-10.180145263671875,1.2306196689605713,-93.8568115234375,17.7764892578125,26.42822265625
0.7299998999999999,-0.5099649429321289,-10.144232749938965,0.7158663272857666,-93.4906005859375,16.0369873046875,30.9295654296875
0.7499998999999999,-0.5913678407669067,-10.156203269958496,0.15083470940589905,-88.165283203125,6.0882568359375,37.1856689453125
0.7699999,-0.6919242739677429,-10.201693534851074,-0.3902548849582672,-79.4830322265625,0.1068115234375,37.8875732421875
0.7899999,-0.7445967197418213,-10.26394271850586,-0.8403648138046265,-71.0906982421875,6.805419921875,35.308837890625
0.8099999,-0.7876923680305481,-10.340557098388672,-1.216254472732544,-64.5904541015625,18.0816650390625,39.1693115234375
0.8299999,-0.8475474119186401,-10.402806282043457,-1.5275006294250488,-57.6629638671875,13.5040283203125,48.7213134765625
0.8499998999999999,-0.9888052940368652,-10.424354553222656,-1.7980455160140991,-47.66845703125,1.251220703125,51.055908203125
0.8699998999999999,-1.1875240802764893,-10.3549222946167,-2.0159177780151367,-36.6668701171875,-1.7242431640625,44.586181640625
0.8899999,-1.3982137441635132,-10.180145263671875,-2.169146776199341,-29.8919677734375,3.2958984375,39.9322509765625
0.9099999,-1.460463047027588,-9.919178009033203,-2.209848165512085,-27.7099609375,4.33349609375,39.5965576171875
0.9299999,-1.4197616577148438,-9.62947940826416,-2.1978771686553955,-29.3426513671875,9.796142578125,39.4744873046875
0.9499999,-1.3646949529647827,-9.397241592407227,-2.2026655673980713,-31.005859375,22.1099853515625,39.4134521484375
0.9699998999999999,-1.3958195447921753,-9.23443603515625,-2.293645143508911,-29.083251953125,24.658203125,39.24560546875
0.9899998999999999,-1.4844050407409668,-9.174580574035645,-2.434903144836426,-24.4903564453125,15.3350830078125,31.9976806640625
1.0099999,-1.5753847360610962,-9.205705642700195,-2.626439332962036,-20.9503173828125,16.9677734375,19.134521484375
1.0299999,-1.5825673341751099,-9.339780807495117,-2.786850690841675,-17.4102783203125,30.2734375,12.481689453125
1.0499999,-1.4245500564575195,-9.526528358459473,-2.875436305999756,-11.23046875,35.400390625,15.93017578125
1.0699999,-1.2042834758758545,-9.758766174316406,-2.896984100341797,-4.69970703125,35.2020263671875,19.59228515625
1.0899999,-1.0606313943862915,-10.000580787658691,-2.920926094055176,-0.30517578125,41.3970947265625,19.500732421875
1.1099999,-1.0606313943862915,-10.216058731079102,-2.9544448852539062,4.913330078125,39.825439453125,20.599365234375
1.1299999,-1.2042834758758545,-10.345345497131348,-2.9975404739379883,10.009765625,24.5819091796875,24.5819091796875
1.1499999,-1.3934253454208374,-10.345345497131348,-3.0119056701660156,11.8255615234375,17.5018310546875,24.5361328125
1.1699998999999999,-1.5418659448623657,-10.211270332336426,-2.985569477081299,9.7503662109375,27.7099609375,20.0958251953125
1.1899998999999999,-1.6663644313812256,-9.976638793945312,-2.9281086921691895,5.37109375,33.3099365234375,24.90234375
1.2099999,-1.7812861204147339,-9.651026725769043,-2.8634653091430664,2.3193359375,24.2156982421875,36.773681640625
1.2299999,-1.9584569931030273,-9.301473617553711,-2.8179752826690674,2.13623046875,18.06640625,39.3218994140625
1.2499999,-2.1308395862579346,-8.9064302444458,-2.762908697128296,1.2359619140625,22.613525390625,37.5823974609375
1.2699999,-2.4396915435791016,-8.595184326171875,-2.760514497756958,-3.8909912109375,21.820068359375,49.01123046875
1.2899999,-2.760514497756958,-8.259995460510254,-2.7533318996429443,-8.544921875,4.1656494140625,70.159912109375
1.3099999,-3.1723172664642334,-7.989450931549072,-2.786850690841675,-8.3160400390625,-7.0648193359375,76.7822265625
1.3299999,-3.6128504276275635,-7.692570209503174,-2.8227639198303223,-7.01904296875,-5.6915283203125,71.502685546875
1.3499999,-4.048594951629639,-7.395689010620117,-2.868253707885742,-8.5906982421875,-12.9241943359375,75.775146484375
1.3699999,-4.383783340454102,-7.043741226196289,-2.8443117141723633,-9.2315673828125,-30.0750732421875,85.845947265625
1.3899999,-4.692635536193848,-6.71334171295166,-2.806004285812378,-7.8582763671875,-29.9530029296875,82.2601318359375
1.4099999,-4.927267074584961,-6.361393928527832,-2.7246015071868896,-8.087158203125,-15.8538818359375,72.7691650390625
1.4299998999999999,-5.12119722366333,-6.033388137817383,-2.628833532333374,-10.2691650390625,-12.4359130859375,74.6917724609375
1.4499999,-5.240907669067383,-5.710171222686768,-2.516305923461914,-13.153076171875,-23.86474609375,83.4808349609375
1.4699999,-5.343858242034912,-5.451597213745117,-2.434903144836426,-16.448974609375,-27.6641845703125,81.4666748046875
1.4899999,-5.415684223175049,-5.17626428604126,-2.343923568725586,-18.9971923828125,-17.0135498046875,71.3348388671875
1.5099999,-5.458779811859131,-4.944026470184326,-2.2888567447662354,-21.3775634765625,-5.859375,66.131591796875
1.5299999,-5.499481201171875,-4.72376012802124,-2.231395959854126,-24.7344970703125,-4.9591064453125,69.82421875
1.5499999,-5.590460777282715,-4.553771495819092,-2.22660756111145,-27.8778076171875,-2.044677734375,70.9075927734375
1.5699999,-5.729324817657471,-4.412513732910156,-2.2385785579681396,-28.9154052734375,7.9193115234375,67.2149658203125
1.5899999,-5.91128396987915,-4.323928356170654,-2.2912509441375732,-28.5186767578125,12.8021240234375,68.5272216796875
1.6099999,-6.090848922729492,-4.278438568115234,-2.389413356781006,-27.7862548828125,8.3770751953125,76.9805908203125
1.6299999,-6.275202751159668,-4.2975921630859375,-2.5546131134033203,-25.9552001953125,4.57763671875,81.878662109375
1.6499999,-6.461950302124023,-4.309563159942627,-2.7269957065582275,-22.857666015625,7.843017578125,80.7952880859375
1.6699999,-6.651092529296875,-4.331110954284668,-2.911349296569824,-15.13671875,7.38525390625,83.3282470703125
1.6899998999999999,-6.921637058258057,-4.307168960571289,-3.1028854846954346,-7.568359375,2.2735595703125,87.8143310546875
1.7099999,-7.230489253997803,-4.285621166229248,-3.287238836288452,-0.9307861328125,-5.096435546875,90.2252197265625
1.7299999,-7.534552574157715,-4.280832767486572,-3.4308910369873047,5.4779052734375,-11.0321044921875,91.7205810546875
1.7499999,-7.836222171783447,-4.292803764343262,-3.5194764137268066,11.2762451171875,-12.7410888671875,93.7042236328125
1.7699999,-8.109161376953125,-4.28322696685791,-3.49314022064209,15.3045654296875,-16.845703125,96.25244140625
1.7899999,-8.367734909057617,-4.218583583831787,-3.337517261505127,15.68603515625,-25.32958984375,97.076416015625
1.8099999,-8.645462036132812,-4.089296340942383,-3.112462282180786,12.0391845703125,-31.585693359375,94.4366455078125
1.8299999,-8.942343711853027,-3.8714241981506348,-2.829946517944336,5.859375,-37.7197265625,91.6900634765625
1.8499999,-9.215282440185547,-3.5673606395721436,-2.535459518432617,-1.40380859375,-43.8079833984375,87.9058837890625
1.8699999,-9.425971984863281,-3.2345664501190186,-2.2649147510528564,-7.537841796875,-44.891357421875,78.2623291015625
1.8899999,-9.569623947143555,-2.8993782997131348,-2.049436569213867,-11.2762451171875,-39.306640625,65.9027099609375
1.9099999,-9.643844604492188,-2.6360161304473877,-1.9249382019042969,-12.87841796875,-36.041259765625,58.2275390625
1.9299998999999999,-9.684545516967773,-2.47560453414917,-1.8986018896102905,-12.4969482421875,-40.6036376953125,55.96923828125
1.9499999,-9.718064308166504,-2.4612393379211426,-2.0398597717285156,-6.3323974609375,-51.605224609375,51.971435546875
1.9699999,-9.708487510681152,-2.513911724090576,-2.078166961669922,-1.1444091796875,-52.67333984375,51.422119140625
1.9899999,-9.68694019317627,-2.559401512145996,-2.070984363555908,2.50244140625,-50.9185791015625,53.03955078125
2.0099999,-9.660603523254395,-2.5737667083740234,-1.98958158493042,4.8828125,-49.4842529296875,55.023193359375
2.0299999,-9.679757118225098,-2.513911724090576,-1.843535304069519,6.4697265625,-49.713134765625,55.908203125
2.0499999,-9.75397777557373,-2.3726539611816406,-1.6687586307525635,6.3018798828125,-49.2095947265625,55.0689697265625
2.0699999,-9.876082420349121,-2.161964178085327,-1.4676456451416016,5.2337646484375,-50.8880615234375,52.2918701171875
2.0899999,-10.002974510192871,-1.9393033981323242,-1.2641384601593018,4.1656494140625,-51.69677734375,48.980712890625
2.1099999,-10.08437728881836,-1.7621324062347412,-1.0773907899856567,1.739501953125,-49.2095947265625,47.4700927734375
2.1299999,-10.125079154968262,-1.6376339197158813,-0.9265560507774353,-2.1820068359375,-46.295166015625,48.15673828125
2.1499999,-10.113107681274414,-1.5945383310317993,-0.7852981686592102,-5.3253173828125,-43.9453125,50.1251220703125
2.1699999,-10.146626472473145,-1.577778935432434,-0.6536170840263367,-7.171630859375,-36.6668701171875,53.375244140625
2.1899999,-10.247182846069336,-1.5275006294250488,-0.5099649429321289,-8.6822509765625,-26.7181396484375,54.962158203125
2.2099999,-10.429142951965332,-1.436521053314209,-0.33997663855552673,-9.5977783203125,-17.5018310546875,51.1627197265625
2.2299999,-10.682928085327148,-1.3120225667953491,-0.19393034279346466,-8.6212158203125,-9.9639892578125,43.2281494140625
2.2499999,-10.953473091125488,-1.1635819673538208,-0.08379705995321274,-4.669189453125,-10.711669921875,34.5306396484375
2.2699999,-11.17852783203125,-1.048660397529602,-0.002394201699644327,-0.2899169921875,-18.2647705078125,27.28271484375
2.2899999,-11.32457447052002,-0.9888052940368652,0.014365210197865963,2.6702880859375,-29.8309326171875,22.0184326171875
2.3099999,-11.338939666748047,-0.9576807022094727,0.05027823522686958,9.82666015625,-34.027099609375,17.974853515625
2.3299999,-11.228805541992188,-0.950498104095459,0.10055647045373917,14.923095703125,-33.599853515625,13.61083984375
2.3499999,-10.994174003601074,-0.9600749015808105,0.19153612852096558,17.5933837890625,-30.548095703125,11.8560791015625
2.3699999,-10.764330863952637,-0.9624691009521484,0.2849099934101105,19.1497802734375,-25.0396728515625,11.65771484375
2.3899999,-10.577583312988281,-0.9552865028381348,0.363918662071228,21.54541015625,-25.93994140625,10.650634765625
2.4099999,-10.45547866821289,-0.950498104095459,0.4189853072166443,23.956298828125,-32.8216552734375,8.819580078125
2.4299999,-10.400412559509277,-0.9217676520347595,0.4620809257030487,23.6968994140625,-34.332275390625,7.6141357421875
2.4499999,-10.33098030090332,-0.8906430602073669,0.524330198764801,20.965576171875,-28.289794921875,6.103515625
2.4699999,-10.20887565612793,-0.8667010068893433,0.6416460275650024,18.157958984375,-19.256591796875,4.1351318359375
2.4899999,-10.125079154968262,-0.8307880163192749,0.7972691655158997,14.7857666015625,-8.758544921875,1.983642578125
2.5099999,-10.120290756225586,-0.7996633648872375,0.9289502501487732,10.31494140625,-1.8463134765625,-2.197265625
2.5299999,-10.15141487121582,-0.7805097699165344,1.039083480834961,7.415771484375,-6.89697265625,-6.8359375
2.5499999,-10.160991668701172,-0.7781155705451965,1.1109095811843872,6.8206787109375,-14.2364501953125,-8.056640625
2.5699999,-10.093954086303711,-0.7805097699165344,1.1779472827911377,6.1187744140625,-12.0849609375,-6.04248046875
2.5899999,-9.959878921508789,-0.7541735172271729,1.2234370708465576,3.3416748046875,-6.0882568359375,-5.401611328125
2.6099999,-9.782708168029785,-0.6991068720817566,1.2856862545013428,0.8697509765625,-6.2255859375,-5.889892578125
2.6299999,-9.68933391571045,-0.5937620401382446,1.314416766166687,0.1983642578125,-5.9661865234375,-2.716064453125
2.6499999,-9.691728591918945,-0.47165772318840027,1.338358759880066,-1.03759765625,-4.4403076171875,2.4871826171875
2.6699999,-9.856928825378418,-0.33997663855552673,1.3407529592514038,-2.838134765625,-7.720947265625,4.69970703125
2.6899999,-10.079588890075684,-0.22026655077934265,1.3551181554794312,-1.678466796875,-17.181396484375,0.6561279296875
2.7099999,-10.309432983398438,-0.11971008777618408,1.3646949529647827,1.03759765625,-20.9808349609375,-3.1585693359375
2.7299999,-10.438719749450684,-0.038307227194309235,1.3910311460494995,1.9683837890625,-14.09912109375,-1.4495849609375
2.7499999,-10.436325073242188,0.031124621629714966,1.4293384552001953,-0.4425048828125,-6.4544677734375,1.1138916015625
2.7699999,-10.350133895874023,0.11252748221158981,1.460463047027588,-3.7384033203125,1.03759765625,-0.152587890625
2.7899999,-10.249577522277832,0.2059013396501541,1.4676456451416016,-7.1258544921875,8.1329345703125,-2.0599365234375
2.8099999,-10.14902114868164,0.31842881441116333,1.4484920501708984,-10.9405517578125,12.3443603515625,-2.3345947265625
2.8299999,-10.055646896362305,0.43335050344467163,1.3982137441635132,-14.7705078125,19.10400390625,-3.1585693359375
2.8499999,-9.962273597717285,0.5291185975074768,1.3263877630233765,-17.913818359375,26.8707275390625,-3.0975341796875
2.8699999,-9.96945571899414,0.6105214357376099,1.1899182796478271,-19.3939208984375,31.92138671875,0
2.8899999,-10.022128105163574,0.6440402865409851,1.0199298858642578,-17.059326171875,24.35302734375,2.0904541015625
2.9099999,-10.096348762512207,0.6248866319656372,0.8259995579719543,-11.993408203125,11.1236572265625,1.800537109375
2.9299999,-10.14902114868164,0.5386953949928284,0.629675030708313,-5.462646484375,11.0931396484375,1.861572265625
2.9499999,-10.11550235748291,0.40222588181495667,0.47165772318840027,2.3193359375,10.2996826171875,4.730224609375
2.9699999,-9.981427192687988,0.272938996553421,0.3902548849582672,10.0860595703125,-1.5869140625,10.0250244140625
2.9899999,-9.792284965515137,0.181959331035614,0.37828385829925537,14.8468017578125,-6.3323974609375,13.3819580078125
3.0099999,-9.710882186889648,0.1867477297782898,0.4357447028160095,15.533447265625,1.4190673828125,15.6402587890625
3.0299999,-9.86650562286377,0.19153612852096558,0.629675030708313,13.4124755859375,5.0048828125,8.2855224609375
3.0499999,-10.113107681274414,0.30885201692581177,0.828393816947937,7.8582763671875,-0.8392333984375,-7.232666015625
3.0699999,-10.41956615447998,0.3758896589279175,1.0797849893569946,4.08935546875,2.99072265625,0.732421875
3.0899999,-10.527304649353027,0.47644615173339844,1.278503656387329,0.213623046875,7.4310302734375,1.7547607421875
3.1099999,-10.374075889587402,0.545877993106842,1.3910311460494995,-4.241943359375,9.70458984375,-0.4119873046875
3.1299999,-10.144232749938965,0.6129156351089478,1.434126853942871,-8.11767578125,12.1002197265625,-0.9765625
3.1499999,-9.919178009033203,0.6248866319656372,1.4077905416488647,-11.77978515625,15.44189453125,0.030517578125
3.1699999,-9.792284965515137,0.5985504388809204,1.3048399686813354,-14.2822265625,17.852783203125,-0.7171630859375
3.1899999,-9.744400978088379,0.5219359993934631,1.115697979927063,-11.505126953125,18.3258056640625,-2.197265625
3.2099999,-9.775525093078613,0.44771572947502136,0.8619126081466675,-5.218505859375,15.9912109375,-3.84521484375
3.2299999,-9.852140426635742,0.38546648621559143,0.5602431893348694,0.2288818359375,12.26806640625,-5.1727294921875
3.2499999,-9.952696800231934,0.33279404044151306,0.24420857429504395,5.0506591796875,10.009765625,-6.256103515625
3.2699999,-10.053253173828125,0.26815059781074524,-0.026336219161748886,11.749267578125,5.859375,-6.3934326171875
3.2899999,-10.11550235748291,0.17717093229293823,-0.20111294090747833,17.364501953125,0.5340576171875,-4.7607421875
3.3099999,-10.137049674987793,0.07422025501728058,-0.2561795711517334,18.5546875,-2.899169921875,-2.6702880859375
3.3299999000000002,-10.120290756225586,-0.023942016065120697,-0.17238251864910126,15.9454345703125,-3.90625,-1.2359619140625
3.3499999,-10.079588890075684,-0.05506663769483566,0.031124621629714966,11.138916015625,-3.173828125,1.678466796875
3.3699999,-10.02691650390625,-0.038307227194309235,0.2537853717803955,5.9661865234375,-2.44140625,4.94384765625
3.3899999,-9.981427192687988,0.021547814831137657,0.4405331015586853,3.9215087890625,-2.4566650390625,5.3863525390625
3.4099999,-9.940725326538086,0.11013327538967133,0.5722141861915588,6.7596435546875,-2.7008056640625,5.0506591796875
3.4299999,-9.916783332824707,0.22266076505184174,0.6799532771110535,9.9334716796875,-2.1820068359375,5.3253173828125
3.4499999,-9.904812812805176,0.3232172429561615,0.7422025203704834,9.7808837890625,-0.6256103515625,5.828857421875
3.4699999,-9.892841339111328,0.3998316824436188,0.7996633648872375,8.270263671875,1.0528564453125,5.157470703125
3.4899999,-9.888052940368652,0.4381389021873474,0.8571242094039917,6.378173828125,2.227783203125,4.913330078125
3.5099999,-9.86889934539795,0.47884035110473633,0.9169792532920837,1.556396484375,5.2642822265625,7.0648193359375
3.5299999,-9.854534149169922,0.5027823448181152,0.9145850539207458,-4.119873046875,8.7127685546875,8.1939697265625
3.5499999,-9.876082420349121,0.5267243981361389,0.8810662031173706,-4.7607421875,9.58251953125,6.8511962890625
3.5699999,-9.897629737854004,0.5722141861915588,0.7876923680305481,-3.021240234375,9.3841552734375,6.4544677734375
3.5899999,-9.931148529052734,0.6057330369949341,0.6344634294509888,-2.5787353515625,9.3231201171875,7.2479248046875
3.6099999,-9.964667320251465,0.629675030708313,0.4668693244457245,-1.068115234375,8.7890625,5.5999755859375
3.6299999,-9.99100399017334,0.646434485912323,0.31364041566848755,0.5645751953125,7.5531005859375,4.0435791015625
3.6499999,-10.005369186401367,0.6727706789970398,0.1867477297782898,-0.5035400390625,5.43212890625,5.035400390625
3.6699999,-10.029311180114746,0.6943184733390808,0.090979665517807,-1.983642578125,3.997802734375,5.645751953125
3.6899999,-10.041281700134277,0.6847416758537292,0.019153613597154617,-0.48828125,3.60107421875,4.1961669921875
3.7099999,-10.043676376342773,0.667982280254364,-0.05027823522686958,0.885009765625,0.1373291015625,3.5400390625
3.7299999,-10.04846477508545,0.6512228846549988,-0.1412578970193863,1.6632080078125,-3.814697265625,4.8828125
3.7499999,-10.0580415725708,0.6392518281936646,-0.21787235140800476,5.035400390625,-7.2174072265625,4.2877197265625
3.7699999,-10.0580415725708,0.6272808313369751,-0.24420857429504395,10.9100341796875,-10.6658935546875,2.3956298828125
3.7899999,-10.053253173828125,0.608127236366272,-0.2059013396501541,13.916015625,-13.61083984375,2.838134765625
3.8099999,-10.031704902648926,0.6512228846549988,-0.07661445438861847,13.8702392578125,-15.2740478515625,4.638671875
3.8299999000000002,-9.988609313964844,0.7350199222564697,0.14844051003456116,13.458251953125,-15.1519775390625,3.265380859375
3.8499999,-9.931148529052734,0.8595184087753296,0.4118026793003082,12.298583984375,-13.18359375,-0.2593994140625
3.8699999,-9.876082420349121,0.9840168952941895,0.7038952708244324,8.819580078125,-10.68115234375,-1.5869140625
3.8899999,-9.823410034179688,1.0558429956436157,0.9792284965515137,5.0811767578125,-7.7667236328125,-0.1068115234375
3.9099999,-9.787496566772461,1.048660397529602,1.1994950771331787,3.8604736328125,-3.72314453125,-0.6103515625
3.9299999,-9.768342971801758,0.9792284965515137,1.3263877630233765,4.3792724609375,0.3509521484375,-2.2735595703125
3.9499999,-9.785101890563965,0.8738836050033569,1.3263877630233765,1.9683837890625,3.1280517578125,-1.434326171875
3.9699999,-9.801861763000488,0.8212111592292786,1.2330138683319092,-2.532958984375,3.631591796875,1.1444091796875
3.9899999,-9.852140426635742,0.8140285611152649,1.0606313943862915,-1.6326904296875,4.08935546875,-0.6866455078125
4.0099999,-9.9000244140625,0.8331822156906128,0.7829039692878723,4.638671875,5.1422119140625,-5.4779052734375
4.029999900000001,-9.945513725280762,0.7757213711738586,0.4357447028160095,15.289306640625,0.54931640625,-5.92041015625
4.0499999,-10.005369186401367,0.6320692300796509,0.07661445438861847,24.078369140625,-7.6141357421875,-2.7313232421875
4.069999900000001,-10.06043529510498,0.44532153010368347,-0.1867477297782898,26.3519287109375,-11.65771484375,-0.9765625
4.0899999000000005,-10.086771965026855,0.3016694188117981,-0.2561795711517334,23.0865478515625,-11.9171142578125,-1.5106201171875
4.1099999,-10.050858497619629,0.35673606395721436,-0.05746084079146385,14.34326171875,-8.8653564453125,-1.3885498046875
4.1299999000000005,-10.022128105163574,0.47165772318840027,0.2561795711517334,10.8184814453125,-9.70458984375,1.2054443359375
4.1499999,-9.892841339111328,0.6727706789970398,0.6775590777397156,5.79833984375,-10.589599609375,3.3416748046875
4.1699999000000005,-9.890447616577148,0.751779317855835,0.9816226959228516,-1.3885498046875,-7.8582763671875,5.8746337890625
4.1899999,-9.84495735168457,0.8403648138046265,1.1540051698684692,-4.0130615234375,-4.3182373046875,7.38525390625
4.209999900000001,-9.873687744140625,0.9217676520347595,1.2042834758758545,1.0986328125,-5.7220458984375,5.5694580078125
4.2299999,-9.885659217834473,1.0031704902648926,1.2114660739898682,6.7138671875,-6.7901611328125,1.1444091796875
4.249999900000001,-9.835380554199219,1.1444283723831177,1.2737152576446533,3.41796875,-2.5634765625,-2.197265625
4.2699999,-9.806650161743164,1.1899182796478271,1.3670891523361206,-5.5389404296875,1.922607421875,-2.6702880859375
4.289999900000001,-9.730035781860352,1.2234370708465576,1.5275006294250488,-12.542724609375,6.53076171875,-0.1068115234375
4.3099999,-9.739612579345703,1.1252747774124146,1.501164436340332,-12.4359130859375,10.6201171875,-1.3580322265625
4.329999900000001,-9.77791976928711,1.0247182846069336,1.359906554222107,-5.889892578125,10.4217529296875,-4.5318603515625
4.3499999,-9.837775230407715,0.8690952062606812,1.0773907899856567,1.64794921875,4.8828125,-4.08935546875
4.369999900000001,-9.890447616577148,0.7829039692878723,0.8164227604866028,5.9051513671875,3.692626953125,-2.593994140625
4.3899999,-9.921571731567383,0.7445967197418213,0.646434485912323,5.462646484375,3.2806396484375,-3.41796875
4.409999900000001,-9.955090522766113,0.7493851184844971,0.5985504388809204,1.2969970703125,6.3934326171875,-4.08935546875
4.4299999,-9.99339771270752,0.7398083209991455,0.6105214357376099,-1.7242431640625,10.2386474609375,-3.2806396484375
4.449999900000001,-9.95748519897461,0.7110779285430908,0.6224924325942993,-1.953125,4.8675537109375,-3.60107421875
4.4699999,-10.010157585144043,0.6368576288223267,0.6033388376235962,-1.9683837890625,2.1514892578125,-3.7384033203125
4.489999900000001,-9.959878921508789,0.5674257874488831,0.5554547905921936,-1.6326904296875,2.105712890625,-3.3721923828125
4.5099999,-9.967061996459961,0.5195417404174805,0.4836287498474121,2.8228759765625,1.129150390625,-0.18310546875
4.529999900000001,-10.014945983886719,0.4357447028160095,0.37828385829925537,9.9945068359375,0.152587890625,1.77001953125
4.5499999,-10.029311180114746,0.42377370595932007,0.31124621629714966,14.34326171875,-5.828857421875,0.732421875
4.569999900000001,-10.019734382629395,0.47165772318840027,0.35434186458587646,13.1683349609375,-10.589599609375,0.3509521484375
4.5899999000000005,-10.014945983886719,0.545877993106842,0.4812345504760742,8.819580078125,-6.805419921875,0.3509521484375
4.609999900000001,-9.921571731567383,0.6991068720817566,0.6919242739677429,5.5084228515625,-3.1890869140625,2.99072265625
4.6299999000000005,-9.890447616577148,0.7709329724311829,0.8547300100326538,4.241943359375,1.2969970703125,4.7760009765625
4.6499999,-9.823410034179688,0.8331822156906128,0.9911994934082031,2.960205078125,2.0751953125,1.9378662109375
4.6699999000000005,-9.84495735168457,0.7829039692878723,1.0271124839782715,-1.983642578125,-2.3956298828125,2.4261474609375
4.6899999,-9.801861763000488,0.7876923680305481,1.091755986213684,-5.92041015625,-1.129150390625,5.279541015625
4.709999900000001,-9.859322547912598,0.7757213711738586,1.139639973640442,-13.458251953125,1.373291015625,6.8206787109375
4.7299999,-9.849745750427246,0.811634361743927,1.1300631761550903,-22.39990234375,8.4075927734375,6.4239501953125
4.749999900000001,-9.883264541625977,0.8523358106613159,1.0678139925003052,-15.1519775390625,7.7056884765625,5.3253173828125
4.7699999,-9.923966407775879,0.8212111592292786,0.8858546018600464,0.1220703125,2.532958984375,4.2266845703125
4.789999900000001,-9.95748519897461,0.7422025203704834,0.6488286852836609,12.969970703125,-0.0457763671875,2.960205078125
4.8099999,-9.976638793945312,0.6536170840263367,0.4692635238170624,21.5911865234375,-2.166748046875,2.685546875
4.829999900000001,-9.974244117736816,0.6105214357376099,0.37828385829925537,24.96337890625,-2.9144287109375,3.8604736328125
4.8499999,-9.974244117736816,0.6320692300796509,0.3471592366695404,26.1383056640625,-3.7689208984375,4.791259765625
4.869999900000001,-9.976638793945312,0.7757213711738586,0.3064578175544739,29.96826171875,-6.4697265625,3.173828125
4.8899999,-9.976638793945312,1.0223240852355957,0.28730419278144836,37.9180908203125,-10.7574462890625,-1.7547607421875
4.909999900000001,-9.979032516479492,1.3048399686813354,0.2753331959247589,44.0216064453125,-14.2059326171875,-8.209228515625
4.9299999,-9.974244117736816,1.5131354331970215,0.304063618183136,45.59326171875,-15.472412109375,-12.2222900390625
4.949999900000001,-9.959878921508789,1.599326729774475,0.42377370595932007,45.3643798828125,-17.0745849609375,-13.85498046875
4.9699999,-9.916783332824707,1.558625340461731,0.6320692300796509,42.236328125,-17.63916015625,-14.09912109375
4.989999900000001,-9.864110946655273,1.4317326545715332,0.9289502501487732,33.8134765625,-14.4500732421875,-14.556884765625
5.0099999,-9.78989028930664,1.2665326595306396,1.3000515699386597,21.6522216796875,-8.5296630859375,-13.641357421875
5.029999900000001,-9.727641105651855,1.1061211824417114,1.6352397203445435,7.8277587890625,-2.62451171875,-10.43701171875
5.0499999,-9.68694019317627,0.9457096457481384,1.9033904075622559,-5.37109375,2.0751953125,-8.148193359375
5.069999900000001,-9.674968719482422,0.8236053586006165,2.0231003761291504,-15.7318115234375,7.5531005859375,-5.9356689453125
5.0899999000000005,-9.68694019317627,0.7757213711738586,2.008735179901123,-23.193359375,12.14599609375,-4.1961669921875
5.109999900000001,-9.718064308166504,0.7876923680305481,1.86508309841156,-28.4271240234375,14.862060546875,-3.9825439453125
5.1299999000000005,-9.763554573059082,0.8427590131759644,1.6136919260025024,-33.203125,16.387939453125,-5.37109375
5.1499999,-9.823410034179688,0.9169792532920837,1.2761094570159912,-35.7513427734375,16.7388916015625,-6.6986083984375
5.1699999000000005,-9.880870819091797,0.9313444495201111,0.9289502501487732,-35.7666015625,15.2130126953125,-7.9345703125
5.1899999,-9.916783332824707,0.8978256583213806,0.689530074596405,-36.5753173828125,13.0615234375,-8.0413818359375
5.209999900000001,-9.926360130310059,0.7948749661445618,0.5913678407669067,-40.985107421875,13.7939453125,-6.744384765625
5.2299999,-9.919178009033203,0.6871358752250671,0.6153098344802856,-47.9888916015625,17.669677734375,-5.157470703125
5.249999900000001,-9.885659217834473,0.5506663918495178,0.7469909191131592,-51.8035888671875,19.8516845703125,-4.39453125
5.2699999,-9.86650562286377,0.4118026793003082,0.8403648138046265,-50.0030517578125,20.660400390625,-3.814697265625
5.289999900000001,-9.873687744140625,0.2513911724090576,0.8068459630012512,-43.426513671875,22.27783203125,-2.716064453125
5.3099999,-9.904812812805176,0.08619125932455063,0.6129156351089478,-28.3050537109375,20.20263671875,-2.838134765625
5.329999900000001,-9.974244117736816,-0.05267243832349777,0.2825157940387726,-6.4849853515625,13.00048828125,-4.3487548828125
5.3499999,-10.053253173828125,-0.16519992053508759,-0.09816227108240128,15.7012939453125,5.950927734375,-6.16455078125
5.369999900000001,-10.11789608001709,-0.2322375625371933,-0.3878606855869293,34.1949462890625,1.312255859375,-6.53076171875
5.3899999,-10.146626472473145,-0.22266076505184174,-0.49559974670410156,46.9512939453125,-2.349853515625,-5.8135986328125
5.409999900000001,-10.134655952453613,-0.1412578970193863,-0.42377370595932007,55.0537109375,-4.5623779296875,-6.103515625
5.4299999,-10.086771965026855,-0.019153613597154617,-0.21547815203666687,57.525634765625,-5.615234375,-6.8817138671875
5.449999900000001,-10.043676376342773,0.1364694982767105,0.05027823522686958,52.7191162109375,-5.5999755859375,-5.8746337890625
5.4699999,-9.99339771270752,0.2944868206977844,0.3016694188117981,41.1834716796875,-4.852294921875,-3.2806396484375
5.489999900000001,-9.95748519897461,0.40222588181495667,0.47644615173339844,26.6571044921875,-3.7078857421875,-1.64794921875
5.5099999,-9.931148529052734,0.5123591423034668,0.6248866319656372,10.528564453125,1.220703125,-2.8839111328125
5.529999900000001,-9.916783332824707,0.5410895943641663,0.6919242739677429,3.4027099609375,1.6326904296875,-1.1444091796875
5.5499999,-9.914389610290527,0.49559974670410156,0.7134721279144287,0.701904296875,0.79345703125,1.5411376953125
5.569999900000001,-9.940725326538086,0.4572925269603729,0.6631938815116882,0.762939453125,0.732421875,2.166748046875
5.5899999000000005,-9.967061996459961,0.4118026793003082,0.5267243981361389,2.86865234375,-1.190185546875,1.40380859375
5.609999900000001,-10.000580787658691,0.4189853072166443,0.395043283700943,2.0294189453125,-3.4637451171875,-0.274658203125
5.6299999000000005,-10.022128105163574,0.44532153010368347,0.2992752194404602,-1.1749267578125,-3.6468505859375,-0.0152587890625
5.6499999,-10.062829971313477,0.5482721924781799,0.21787235140800476,-3.96728515625,-4.058837890625,0.6103515625
5.6699999000000005,-9.988609313964844,0.4884171485900879,0.21308395266532898,-4.119873046875,-5.157470703125,-1.64794921875
5.6899999,-10.017339706420898,0.5770025849342346,0.24181437492370605,-7.110595703125,-6.7291259765625,-3.509521484375
5.709999900000001,-9.919178009033203,0.5147533416748047,0.395043283700943,-10.0555419921875,-7.080078125,-2.50244140625
5.7299999,-9.885659217834473,0.4381389021873474,0.9050082564353943,-15.6097412109375,0.5645751953125,-2.8076171875
5.749999900000001,-9.86889934539795,0.3280056416988373,1.0989385843276978,-22.27783203125,3.60107421875,-1.068115234375
5.7699999,-9.86889934539795,0.19393034279346466,1.173158884048462,-28.7628173828125,6.16455078125,2.471923828125
5.789999900000001,-9.856928825378418,0.07661445438861847,1.194706678390503,-30.8074951171875,9.4451904296875,5.7373046875
5.8099999,-9.84256362915039,-0.0454898327589035,1.192312479019165,-27.7557373046875,12.969970703125,7.5225830078125
5.829999900000001,-9.813833236694336,-0.021547814831137657,1.1540051698684692,-25.87890625,16.3726806640625,7.7972412109375
5.8499999,-9.799467086791992,0.1364694982767105,1.1875240802764893,-29.9530029296875,19.5159912109375,7.3699951171875
5.869999900000001,-9.792284965515137,0.3663128614425659,1.0845733880996704,-36.9110107421875,23.0712890625,5.3863525390625
5.8899999,-9.813833236694336,0.646434485912323,0.9433154463768005,-37.9180908203125,26.4129638671875,2.1514892578125
5.909999900000001,-9.873687744140625,0.8523358106613159,0.6584054827690125,-34.3017578125,25.482177734375,-1.52587890625
5.9299999,-9.940725326538086,0.9193734526634216,0.2585737705230713,-30.5938720703125,22.3846435546875,-3.8604736328125
5.949999900000001,-10.034099578857422,0.849941611289978,-0.2106897532939911,-26.702880859375,17.7154541015625,-5.096435546875
5.9699999,-10.11550235748291,0.6488286852836609,-0.667982280254364,-19.10400390625,11.5203857421875,-6.072998046875
5.989999900000001,-10.189722061157227,0.38307225704193115,-1.0319008827209473,-7.14111328125,4.0283203125,-6.1492919921875
6.0099999,-10.230423927307129,0.16759411990642548,-1.2090718746185303,4.0740966796875,-2.9754638671875,-5.859375
6.029999900000001,-10.20648193359375,0.05746084079146385,-1.1204863786697388,12.3291015625,-6.927490234375,-6.9580078125
6.0499999,-10.139444351196289,0.10534487664699554,-0.811634361743927,17.3187255859375,-6.5765380859375,-10.0555419921875
6.069999900000001,-10.038887977600098,0.2513911724090576,-0.3208230137825012,18.951416015625,-4.1046142578125,-13.7176513671875
6.0899999000000005,-9.931148529052734,0.36152446269989014,0.15322890877723694,16.2506103515625,-1.220703125,-15.2435302734375
6.109999900000001,-9.873687744140625,0.3926490843296051,0.5171475410461426,11.1083984375,2.166748046875,-14.58740234375
6.1299999000000005,-9.837775230407715,0.3256114423274994,0.7110779285430908,5.7220458984375,4.1656494140625,-12.02392578125
6.149999900000001,-9.84495735168457,0.15801730751991272,0.689530074596405,1.617431640625,5.5389404296875,-10.8642578125
6.1699999000000005,-9.880870819091797,-0.090979665517807,0.5291185975074768,-2.166748046875,6.53076171875,-8.85009765625
6.1899999,-9.947908401489258,-0.3687070608139038,0.24660277366638184,-6.40869140625,4.913330078125,-2.4871826171875
6.209999900000001,-10.017339706420898,-0.6488286852836609,-0.05746084079146385,-8.6669921875,1.800537109375,4.21142578125
6.2299999,-10.079588890075684,-0.8810662031173706,-0.33279404044151306,-8.2244873046875,-1.3275146484375,8.6517333984375
6.249999900000001,-10.125079154968262,-1.0199298858642578,-0.5626373887062073,-6.77490234375,-4.180908203125,13.6566162109375
6.2699999,-10.139444351196289,-1.0342950820922852,-0.6871358752250671,-4.425048828125,-8.4686279296875,19.0887451171875
6.289999900000001,-10.139444351196289,-0.9552865028381348,-0.730231523513794,-0.335693359375,-13.5498046875,22.674560546875
6.3099999,-10.113107681274414,-0.7829039692878723,-0.6823474764823914,4.669189453125,-16.3726806640625,24.3682861328125
6.329999900000001,-10.08437728881836,-0.5219359993934631,-0.586579442024231,10.894775390625,-18.829345703125,25.45166015625
6.3499999,-10.041281700134277,-0.2059013396501541,-0.4165911078453064,18.890380859375,-22.39990234375,25.421142578125
6.369999900000001,-9.995792388916016,0.1388636976480484,-0.22744916379451752,25.8941650390625,-24.322509765625,23.92578125
6.3899999,-9.950302124023438,0.507570743560791,0.019153613597154617,29.4036865234375,-23.7579345703125,21.1029052734375
6.409999900000001,-9.892841339111328,0.8667010068893433,0.26575639843940735,30.7769775390625,-22.552490234375,17.7459716796875
6.4299999,-9.854534149169922,1.1971008777618408,0.5147533416748047,30.09033203125,-21.8048095703125,13.5498046875
6.449999900000001,-9.821015357971191,1.45806884765625,0.727837324142456,23.3612060546875,-20.20263671875,10.2081298828125
6.4699999,-9.797073364257812,1.625662922859192,0.9289502501487732,11.871337890625,-17.1356201171875,7.9345703125
6.489999900000001,-9.780313491821289,1.6831238269805908,1.1204863786697388,0.30517578125,-13.1988525390625,6.0882568359375
6.5099999,-9.758766174316406,1.6400281190872192,1.3311761617660522,-9.9639892578125,-8.8653564453125,5.0201416015625
6.529999900000001,-9.737217903137207,1.5203180313110352,1.5155296325683594,-20.6146240234375,-3.448486328125,4.913330078125
6.5499999,-9.725247383117676,1.3694833517074585,1.6519991159439087,-31.036376953125,2.593994140625,5.79833984375
6.569999900000001,-9.720458984375,1.1755530834197998,1.6974890232086182,-40.191650390625,7.1563720703125,6.7291259765625
6.5899999000000005,-9.734824180603027,1.0055646896362305,1.623268723487854,-46.5240478515625,10.0250244140625,8.6212158203125
6.609999900000001,-9.761159896850586,0.8906430602073669,1.45806884765625,-48.2635498046875,11.41357421875,9.70458984375
6.6299999000000005,-9.804255485534668,0.8331822156906128,1.2497732639312744,-44.1741943359375,12.8173828125,7.9498291015625
6.649999900000001,-9.84495735168457,0.8140285611152649,1.0055646896362305,-35.552978515625,13.5040283203125,5.859375
6.6699999000000005,-9.892841339111328,0.7972691655158997,0.7422025203704834,-23.0712890625,11.474609375,5.2337646484375
6.6899999,-9.938331604003906,0.7852981686592102,0.5027823448181152,-8.72802734375,7.50732421875,4.4403076171875
6.709999900000001,-9.96945571899414,0.7805097699165344,0.3280056416988373,3.173828125,4.6234130859375,2.3956298828125
6.7299999,-9.981427192687988,0.8092401623725891,0.2537853717803955,10.9710693359375,3.570556640625,0.244140625
6.749999900000001,-9.967061996459961,0.8571242094039917,0.2825157940387726,14.6484375,3.326416015625,-0.335693359375
6.7699999,-9.943120002746582,0.9289502501487732,0.3878606855869293,14.3280029296875,2.9144287109375,0.244140625
6.789999900000001,-9.911994934082031,1.0127472877502441,0.5267243981361389,10.772705078125,3.2958984375,0.030517578125
6.8099999,-9.883264541625977,1.0989385843276978,0.6536170840263367,5.0048828125,4.974365234375,-0.823974609375
6.829999900000001,-9.873687744140625,1.1540051698684692,0.7134721279144287,-0.6103515625,6.6680908203125,-1.2359619140625
6.8499999,-9.873687744140625,1.2090718746185303,0.7182605266571045,-3.7078857421875,5.859375,-0.6866455078125
6.869999900000001,-9.8784761428833,1.2617442607879639,0.6775590777397156,-4.94384765625,4.5928955078125,-1.7852783203125
6.8899999,-9.892841339111328,1.3000515699386597,0.5913678407669067,-6.4697265625,5.706787109375,-5.035400390625
6.909999900000001,-9.907206535339355,1.316810965538025,0.49320554733276367,-6.622314453125,6.1492919921875,-7.5225830078125
6.9299999,-9.928754806518555,1.2497732639312744,0.3734954595565796,-4.5928955078125,3.0364990234375,-7.7362060546875
6.949999900000001,-9.959878921508789,1.115697979927063,0.2561795711517334,-1.495361328125,0.0457763671875,-7.4615478515625
6.9699999,-9.995792388916016,0.912190854549408,0.1364694982767105,2.4871826171875,-1.4495849609375,-7.6904296875
6.989999900000001,-10.022128105163574,0.7158663272857666,0.07422025501728058,8.2550048828125,-3.875732421875,-7.0037841796875
7.0099999,-10.031704902648926,0.545877993106842,0.06224924325942993,14.404296875,-7.5531005859375,-4.4097900390625
7.029999900000001,-9.981427192687988,0.507570743560791,0.27054479718208313,15.31982421875,-9.0484619140625,-2.4871826171875
7.0499999,-9.9000244140625,0.5410895943641663,0.6224924325942993,2.7923583984375,-4.913330078125,-1.2359619140625
7.069999900000001,-9.72285270690918,0.7613561153411865,1.0965443849563599,-15.7470703125,6.683349609375,0.8392333984375
7.0899999000000005,-9.734824180603027,0.8667010068893433,1.4748282432556152,-28.9764404296875,12.603759765625,4.058837890625
7.109999900000001,-9.641449928283691,0.9816226959228516,1.6136919260025024,-34.72900390625,13.5650634765625,3.814697265625
7.1299999000000005,-9.77791976928711,0.8738836050033569,1.338358759880066,-28.656005859375,16.143798828125,2.410888671875
7.149999900000001,-9.852140426635742,0.6775590777397156,0.8667010068893433,-9.5672607421875,13.3514404296875,1.5716552734375
7.1699999000000005,-10.005369186401367,0.49799394607543945,0.31364041566848755,8.3160400390625,2.86865234375,2.2430419921875
7.1899999,-10.029311180114746,0.40701428055763245,-0.09576806426048279,14.3585205078125,-2.9754638671875,3.692626953125
7.209999900000001,-10.141838073730469,0.44532153010368347,-0.3734954595565796,13.092041015625,-0.1678466796875,5.706787109375
7.2299999,-10.08198356628418,0.6727706789970398,-0.37828385829925537,11.0321044921875,-1.89208984375,6.103515625
7.249999900000001,-10.022128105163574,0.9289502501487732,-0.20350714027881622,7.75146484375,-9.5062255859375,1.4190673828125
7.2699999,-9.873687744140625,1.137245774269104,-0.004788403399288654,1.6937255859375,-5.9814453125,-1.8310546875
7.289999900000001,-9.897629737854004,1.3407529592514038,0.395043283700943,-4.0435791015625,2.5177001953125,-1.3275146484375
7.3099999,-9.80904483795166,1.3910311460494995,0.6536170840263367,-12.298583984375,2.3345947265625,-0.0762939453125
7.329999900000001,-9.880870819091797,1.436521053314209,0.9696516990661621,-25.1617431640625,7.99560546875,-2.471923828125
7.3499999,-9.897629737854004,1.359906554222107,1.0678139925003052,-32.8369140625,10.80322265625,-4.241943359375
7.369999900000001,-9.852140426635742,1.235408067703247,1.1013327836990356,-25.0091552734375,8.270263671875,-4.2266845703125
7.3899999,-9.847352027893066,1.036689281463623,0.8738836050033569,-13.85498046875,6.6986083984375,-1.434326171875
7.409999900000001,-9.897629737854004,0.7589619159698486,0.5626373887062073,-5.8746337890625,11.1541748046875,-2.9296875
7.4299999,-9.892841339111328,0.5410895943641663,0.2106897532939911,7.0648193359375,0.9918212890625,-5.3863525390625
7.449999900000001,-9.995792388916016,0.4644751250743866,0.2059013396501541,10.6201171875,-4.2724609375,-1.617431640625
7.4699999,-9.979032516479492,0.586579442024231,0.17477671802043915,-9.2620849609375,9.2010498046875,2.349853515625
7.489999900000001,-9.971850395202637,0.7948749661445618,0.3734954595565796,-23.681640625,14.9993896484375,0.823974609375
7.5099999,-9.950302124023438,1.0031704902648926,0.49320554733276367,-20.660400390625,5.3863525390625,-6.4544677734375
7.529999900000001,-9.90241813659668,1.048660397529602,0.4189853072166443,-14.8773193359375,8.209228515625,-3.1890869140625
7.5499999,-10.014945983886719,0.9169792532920837,0.24181437492370605,-7.568359375,10.92529296875,-3.7384033203125
7.569999900000001,-9.983820915222168,0.8858546018600464,0.10295066982507706,4.69970703125,0.1983642578125,-7.476806640625
7.5899999000000005,-10.034099578857422,0.7589619159698486,-0.11971008777618408,3.173828125,-5.1422119140625,-2.471923828125
7.609999900000001,-10.031704902648926,0.6847416758537292,-0.272938996553421,-9.307861328125,2.44140625,-0.9002685546875
7.6299999000000005,-9.995792388916016,0.5985504388809204,-0.33039984107017517,-4.5166015625,-1.6326904296875,-1.5869140625
7.649999900000001,-10.036493301391602,0.4644751250743866,-0.3663128614425659,7.50732421875,-13.7481689453125,-2.5787353515625
7.6699999000000005,-10.067618370056152,0.3064578175544739,-0.48602294921875,16.54052734375,-14.6484375,0.4119873046875
7.6899999,-10.065223693847656,0.3256114423274994,-0.3232172429561615,28.472900390625,-15.8843994140625,1.953125
7.709999900000001,-10.08198356628418,0.40222588181495667,-0.17717093229293823,28.2745361328125,-20.050048828125,1.4495849609375
7.7299999,-9.938331604003906,0.6009446382522583,0.21787235140800476,15.533447265625,-15.625,3.41796875
7.749999900000001,-10.000580787658691,0.7733271718025208,0.5602431893348694,7.1563720703125,-12.6190185546875,2.6397705078125
7.7699999,-9.904812812805176,1.0414776802062988,0.9193734526634216,7.232666015625,-13.824462890625,-2.593994140625
7.789999900000001,-9.871294021606445,1.1228805780410767,0.9911994934082031,5.462646484375,-11.29150390625,-3.35693359375
7.8099999,-9.823410034179688,1.2018892765045166,1.1037269830703735,3.7994384765625,-5.157470703125,-4.5928955078125
7.829999900000001,-9.737217903137207,1.2880805730819702,1.2737152576446533,-1.1138916015625,-5.43212890625,-3.6163330078125
7.8499999,-9.708487510681152,1.1971008777618408,1.3287819623947144,-16.7999267578125,4.57763671875,-2.0599365234375
7.869999900000001,-9.703699111938477,1.1444283723831177,1.4460978507995605,-22.1710205078125,9.82666015625,-3.3111572265625
7.8899999,-9.794678688049316,0.9145850539207458,1.3048399686813354,-10.80322265625,4.08935546875,-4.6539306640625
7.909999900000001,-9.876082420349121,0.7086837291717529,1.0438719987869263,1.89208984375,1.007080078125,-5.4168701171875
7.9299999,-9.93593692779541,0.4836287498474121,0.7637503147125244,10.2691650390625,4.0130615234375,-4.8065185546875
7.949999900000001,-9.99339771270752,0.3878606855869293,0.5434837937355042,12.1612548828125,3.173828125,-4.791259765625
7.9699999,-9.967061996459961,0.40940847992897034,0.4836287498474121,9.7503662109375,1.7547607421875,-2.86865234375
7.989999900000001,-9.907206535339355,0.5339069962501526,0.5554547905921936,-0.3662109375,2.044677734375,0.67138671875
8.0099999,-9.892841339111328,0.6967126727104187,0.6248866319656372,-16.3421630859375,9.5977783203125,-0.1220703125
8.0299999,-9.883264541625977,0.8475474119186401,0.6919242739677429,-20.111083984375,10.5438232421875,-1.1749267578125
8.049999900000001,-9.931148529052734,0.8786720037460327,0.5482721924781799,-14.1448974609375,2.9449462890625,-3.9825439453125
8.069999900000001,-10.017339706420898,0.8140285611152649,0.2968810200691223,-2.960205078125,-2.62451171875,-5.584716796875
8.0899999,-10.04846477508545,0.6631938815116882,0.021547814831137657,11.8408203125,-6.1798095703125,-4.791259765625
8.1099999,-10.127472877502441,0.5291185975074768,-0.15801730751991272,20.7366943359375,-9.1552734375,-4.6234130859375
8.129999900000001,-10.031704902648926,0.5003881454467773,-0.08619125932455063,19.8211669921875,-10.68115234375,-6.4849853515625
8.149999900000001,-10.038887977600098,0.6440402865409851,0.33518823981285095,8.23974609375,-10.0250244140625,-5.9814453125
8.1699999,-9.852140426635742,0.7852981686592102,0.8044517636299133,-13.5955810546875,-0.0152587890625,-5.4931640625
8.1899999,-9.837775230407715,0.9026140570640564,1.2282254695892334,-24.9176025390625,7.3699951171875,-5.3558349609375
8.2099999,-9.785101890563965,0.7852981686592102,1.3431471586227417,-16.0675048828125,4.7454833984375,-5.096435546875
8.229999900000001,-9.852140426635742,0.586579442024231,1.1659762859344482,-2.5787353515625,-0.640869140625,-7.7972412109375
8.2499999,-9.923966407775879,0.2585737705230713,0.7757213711738586,11.23046875,-2.8076171875,-5.8441162109375
8.2699999,-9.959878921508789,0.08858546614646912,0.45010992884635925,21.2249755859375,-4.08935546875,-3.509521484375
8.2899999,-9.964667320251465,0.05027823522686958,0.3495534360408783,24.84130859375,-5.2490234375,-1.861572265625
8.309999900000001,-9.945513725280762,0.21547815203666687,0.44771572947502136,14.6942138671875,-4.2266845703125,-2.197265625
8.3299999,-9.883264541625977,0.4572925269603729,0.7948749661445618,-3.6468505859375,3.72314453125,-1.52587890625
8.3499999,-9.885659217834473,0.7038952708244324,1.094150185585022,-14.923095703125,6.6375732421875,-2.13623046875
8.3699999,-9.871294021606445,0.7781155705451965,1.213860273361206,-14.6636962890625,8.0108642578125,-1.739501953125
8.389999900000001,-9.880870819091797,0.7733271718025208,1.1085153818130493,-6.011962890625,5.5999755859375,-6.988525390625
8.4099999,-9.904812812805176,0.6057330369949341,0.8547300100326538,4.3182373046875,2.9296875,-7.14111328125
8.4299999,-9.95748519897461,0.4572925269603729,0.569819986820221,11.016845703125,3.2501220703125,-6.134033203125
8.4499999,-9.976638793945312,0.3495534360408783,0.4692635238170624,13.9007568359375,-0.3814697265625,-6.591796875
8.469999900000001,-9.976638793945312,0.3878606855869293,0.5123591423034668,7.4462890625,2.5634765625,-6.4239501953125
8.4899999,-9.95748519897461,0.4884171485900879,0.6775590777397156,-6.6680908203125,9.3841552734375,-6.6070556640625
8.5099999,-9.840168952941895,0.6847416758537292,0.9552865028381348,-18.768310546875,11.2152099609375,-6.89697265625
8.5299999,-9.871294021606445,0.6847416758537292,0.9888052940368652,-24.0325927734375,11.8865966796875,-7.3699951171875
8.549999900000001,-9.856928825378418,0.6033388376235962,0.8786720037460327,-21.78955078125,13.092041015625,-9.2620849609375
8.569999900000001,-9.983820915222168,0.3256114423274994,0.5578489899635315,-9.58251953125,7.38525390625,-9.58251953125
8.5899999,-10.101137161254883,0.019153613597154617,0.090979665517807,3.3111572265625,0.2288818359375,-7.50732421875
8.6099999,-10.144232749938965,-0.15562310814857483,-0.2298433631658554,15.2740478515625,-6.34765625,-7.2021484375
8.629999900000001,-10.168174743652344,-0.22744916379451752,-0.3926490843296051,18.4173583984375,-9.857177734375,-6.0577392578125
8.649999900000001,-10.062829971313477,-0.12449848651885986,-0.24899697303771973,9.33837890625,-7.3699951171875,-4.0435791015625
8.6699999,-10.000580787658691,-0.033518824726343155,0.043095629662275314,-3.4027099609375,-5.5999755859375,-3.0059814453125
8.6899999,-9.952696800231934,0.07422025501728058,0.4165911078453064,-11.3677978515625,-8.4228515625,-2.0904541015625
8.709999900000001,-9.926360130310059,0.019153613597154617,0.5482721924781799,-13.5955810546875,-5.2642822265625,-0.5340576171875
8.729999900000001,-10.010157585144043,-0.05506663769483566,0.5506663918495178,-2.74658203125,-9.7503662109375,-0.396728515625
8.7499999,-10.012551307678223,-0.17956513166427612,0.3974374830722809,11.016845703125,-15.289306640625,1.0986328125
8.7699999,-10.017339706420898,-0.24420857429504395,0.31364041566848755,23.3612060546875,-17.7154541015625,0.518798828125
8.7899999,-9.971850395202637,-0.2298433631658554,0.33518823981285095,27.862548828125,-18.12744140625,1.4190673828125
8.809999900000001,-9.945513725280762,-0.10295066982507706,0.667982280254364,21.8048095703125,-13.2598876953125,3.6468505859375
8.8299999,-9.880870819091797,0.11971008777618408,1.1013327836990356,10.833740234375,-7.6141357421875,3.0364990234375
8.8499999,-9.856928825378418,0.3687070608139038,1.5849615335464478,0.3814697265625,-5.2642822265625,0.30517578125
8.8699999,-9.797073364257812,0.5578489899635315,1.9273324012756348,-12.542724609375,3.4027099609375,-0.3814697265625
8.889999900000001,-9.749189376831055,0.667982280254364,1.98958158493042,-17.9595947265625,7.965087890625,-1.8157958984375
8.9099999,-9.720458984375,0.6200982332229614,1.7956513166427612,-17.15087890625,8.0718994140625,-1.89208984375
8.9299999,-9.742006301879883,0.5315127968788147,1.479616641998291,-12.939453125,9.002685546875,-3.5247802734375
8.9499999,-9.828198432922363,0.3208230137825012,1.0414776802062988,-7.6904296875,7.0648193359375,-2.532958984375
8.969999900000001,-9.914389610290527,0.17717093229293823,0.730231523513794,-3.265380859375,6.317138671875,-1.5716552734375
8.9899999,-10.014945983886719,-0.011971008032560349,0.4644751250743866,-0.946044921875,3.8604736328125,0.7476806640625
9.0099999,-10.02452278137207,-0.08619125932455063,0.4165911078453064,2.4261474609375,-1.068115234375,-0.3814697265625
9.0299999,-10.089165687561035,-0.2082955539226532,0.27054479718208313,3.814697265625,-3.2196044921875,0.1373291015625
9.049999900000001,-10.055646896362305,-0.22266076505184174,0.3016694188117981,9.2010498046875,-3.3416748046875,0.274658203125
9.069999900000001,-10.091560363769531,-0.2825157940387726,0.22026655077934265,18.73779296875,-8.4381103515625,2.0294189453125
9.0899999,-10.046070098876953,-0.17956513166427612,0.38546648621559143,21.8963623046875,-8.9569091796875,1.40380859375
9.1099999,-10.010157585144043,-0.10055647045373917,0.6057330369949341,14.4500732421875,-7.38525390625,2.8533935546875
9.129999900000001,-9.928754806518555,0.1388636976480484,1.0007762908935547,4.1961669921875,-0.9613037109375,3.5247802734375
9.149999900000001,-9.8784761428833,0.33997663855552673,1.280897855758667,-1.739501953125,0.4119873046875,4.21142578125
9.1699999,-9.825803756713867,0.5267243981361389,1.5155296325683594,-6.65283203125,3.0670166015625,0.8087158203125
9.1899999,-9.785101890563965,0.6368576288223267,1.6424223184585571,-12.7410888671875,6.04248046875,0.152587890625
9.209999900000001,-9.792284965515137,0.6823474764823914,1.6136919260025024,-18.1732177734375,9.7808837890625,-2.471923828125
9.229999900000001,-9.732429504394531,0.5985504388809204,1.4963760375976562,-17.242431640625,10.92529296875,-2.3651123046875
9.2499999,-9.825803756713867,0.47884035110473633,1.2521674633026123,-12.939453125,12.8173828125,-3.8299560546875
9.2699999,-9.861717224121094,0.2801215946674347,0.933738648891449,-9.82666015625,10.986328125,-3.0670166015625
9.2899999,-9.950302124023438,0.08140286058187485,0.6703764796257019,-4.8828125,8.2855224609375,0.1220703125
9.309999900000001,-10.031704902648926,-0.13407529890537262,0.3926490843296051,2.410888671875,4.150390625,0.274658203125
9.3299999,-10.074800491333008,-0.23702596127986908,0.16519992053508759,10.7574462890625,0.701904296875,1.8310546875
9.3499999,-10.055646896362305,-0.22266076505184174,0.14365209639072418,13.48876953125,-2.7008056640625,4.4097900390625
9.3699999,-10.04846477508545,-0.06703764945268631,0.2322375625371933,5.3253173828125,-2.38037109375,2.3956298828125
9.389999900000001,-9.983820915222168,0.10055647045373917,0.4620809257030487,-3.6773681640625,0.6561279296875,0.42724609375
9.4099999,-9.950302124023438,0.3256114423274994,0.7422025203704834,-7.049560546875,1.922607421875,1.2664794921875
9.4299999,-9.880870819091797,0.4118026793003082,0.9074024558067322,-10.2386474609375,4.913330078125,0.9765625
9.4499999,-9.909601211547852,0.3974374830722809,0.9289502501487732,-9.1552734375,4.0435791015625,1.77001953125
9.469999900000001,-9.861717224121094,0.29209262132644653,0.8643068075180054,0.8544921875,-1.4190673828125,0.4730224609375
9.4899999,-9.921571731567383,0.10295066982507706,0.6775590777397156,7.8125,-1.6326904296875,0.4425048828125
9.5099999,-9.940725326538086,0.019153613597154617,0.6560112833976746,10.8184814453125,-0.6103515625,5.2490234375
9.5299999,-9.8784761428833,0.35673606395721436,1.1516109704971313,-24.5513916015625,6.683349609375,2.8228759765625
9.549999900000001,-9.828198432922363,0.6224924325942993,1.4197616577148438,-50.8575439453125,19.04296875,1.983642578125
9.569999900000001,-9.66539192199707,0.8667010068893433,1.656787633895874,-56.121826171875,21.697998046875,-0.4425048828125
9.5899999,-9.75637149810791,0.8188169598579407,1.5155296325683594,-49.2706298828125,24.3988037109375,1.52587890625
9.6099999,-9.742006301879883,0.7374141216278076,1.2713210582733154,-43.121337890625,23.0712890625,-2.410888671875
9.629999900000001,-9.86650562286377,0.49559974670410156,0.9576807022094727,-36.7584228515625,20.9197998046875,-1.3580322265625
9.649999900000001,-9.914389610290527,0.26336219906806946,0.5602431893348694,-32.3638916015625,22.7813720703125,-2.2125244140625
9.6699999,-9.904812812805176,0.019153613597154617,0.1843535304069519,-16.387939453125,19.2413330078125,-2.50244140625
9.6899999,-9.950302124023438,-0.021547814831137657,0.023942016065120697,-5.31005859375,13.0157470703125,1.8157958984375
9.709999900000001,-9.952696800231934,0.09576806426048279,-0.040701430290937424,-20.7061767578125,14.46533203125,-1.9378662109375
9.729999900000001,-10.050858497619629,0.272938996553421,0.07422025501728058,-43.1976318359375,24.0478515625,-4.7149658203125
9.7499999,-10.077195167541504,0.3974374830722809,-0.014365210197865963,-44.98291015625,25.1312255859375,-4.0435791015625
9.7699999,-10.096348762512207,0.3016694188117981,-0.2106897532939911,-21.4080810546875,13.946533203125,-5.0506591796875
9.7899999,-10.168174743652344,0.06703764945268631,-0.524330198764801,1.46484375,1.6021728515625,-5.035400390625
9.809999900000001,-10.17296314239502,-0.1867477297782898,-0.7948749661445618,5.37109375,0.7476806640625,-4.6539306640625
9.8299999,-10.204087257385254,-0.35673606395721436,-0.8164227604866028,7.0648193359375,-0.30517578125,-3.082275390625
9.8499999,-10.196905136108398,-0.5506663918495178,-0.9169792532920837,15.777587890625,-5.7830810546875,-0.579833984375
9.8699999,-10.163386344909668,-0.6272808313369751,-0.871489405632019,25.87890625,-13.18359375,3.5247802734375
9.889999900000001,-10.199298858642578,-0.6655880808830261,-0.9050082564353943,29.052734375,-15.6707763671875,5.7830810546875
9.9099999,-10.199298858642578,-0.4572925269603729,-0.7924807667732239,26.7181396484375,-19.22607421875,7.1258544921875
9.9299999,-10.18493366241455,-0.15801730751991272,-0.5386953949928284,22.1405029296875,-22.27783203125,4.3792724609375
9.9499999,-10.129867553710938,0.17717093229293823,-0.18914192914962769,18.2952880859375,-20.6451416015625,2.50244140625
9.969999900000001,-9.96945571899414,0.4668693244457245,0.304063618183136,11.4288330078125,-15.777587890625,4.7149658203125
9.9899999,-9.890447616577148,0.6392518281936646,0.7134721279144287,-1.434326171875,-9.2620849609375,6.28662109375
10.0099999,-9.758766174316406,0.6991068720817566,1.0749965906143188,-11.0931396484375,-4.8675537109375,4.9896240234375
10.0299999,-9.75637149810791,0.6512228846549988,1.1803414821624756,-11.0931396484375,-4.8675537109375,4.1656494140625
10.049999900000001,-9.785101890563965,0.45250412821769714,1.0869675874710083,-6.2408447265625,-8.9111328125,4.119873046875
10.069999900000001,-9.86650562286377,0.26575639843940735,0.7996633648872375,-1.8157958984375,-7.0343017578125,4.0130615234375
10.0899999,-9.95748519897461,0.08379705995321274,0.48602294921875,4.39453125,-8.8043212890625,5.4931640625
10.1099999,-10.046070098876953,0.05027823522686958,0.20350714027881622,9.7503662109375,-12.5274658203125,4.5928955078125
10.129999900000001,-10.002974510192871,0.1412578970193863,0.1388636976480484,12.664794921875,-14.4500732421875,3.2958984375
10.149999900000001,-10.02452278137207,0.2968810200691223,0.26575639843940735,5.645751953125,-11.1236572265625,4.0130615234375
10.1699999,-9.931148529052734,0.47884035110473633,0.5770025849342346,-4.3487548828125,-5.2337646484375,4.425048828125
10.1899999,-9.871294021606445,0.5674257874488831,0.912190854549408,-8.392333984375,-3.173828125,1.8310546875
10.209999900000001,-9.856928825378418,0.7038952708244324,1.2090718746185303,-8.941650390625,-2.197265625,2.5177001953125
10.229999900000001,-9.818621635437012,0.6631938815116882,1.3670891523361206,-15.5181884765625,-0.3814697265625,3.0517578125
10.2499999,-9.840168952941895,0.6871358752250671,1.338358759880066,-21.9268798828125,4.0435791015625,-1.2969970703125
10.2699999,-9.897629737854004,0.6440402865409851,1.213860273361206,-21.5606689453125,5.0048828125,-1.89208984375
10.2899999,-9.888052940368652,0.5363011956214905,0.9217676520347595,-19.3939208984375,3.47900390625,-0.3814697265625
10.309999900000001,-9.979032516479492,0.3495534360408783,0.6153098344802856,-10.3607177734375,-0.3509521484375,-1.1138916015625
10.3299999,-10.022128105163574,0.047884032130241394,0.2585737705230713,-0.1983642578125,-2.99072265625,2.99072265625
10.3499999,-10.074800491333008,-0.2346317619085312,0.10534487664699554,13.9312744140625,-8.819580078125,6.16455078125
10.3699999,-10.122684478759766,-0.4357447028160095,-0.05985504388809204,22.0489501953125,-13.12255859375,8.97216796875
10.389999900000001,-10.053253173828125,-0.3663128614425659,0.13407529890537262,30.120849609375,-13.916015625,9.979248046875
10.4099999,-10.017339706420898,-0.1149216815829277,0.35434186458587646,31.2957763671875,-19.134521484375,9.246826171875
10.4299999,-9.861717224121094,0.37828385829925537,0.8595184087753296,19.9127197265625,-10.7574462890625,6.8817138671875
10.4499999,-9.81143856048584,0.9026140570640564,1.2976573705673218,4.1656494140625,-2.044677734375,3.3111572265625
10.469999900000001,-9.732429504394531,1.4413094520568848,1.7357962131500244,-9.9945068359375,2.7313232421875,-0.3509521484375
10.4899999,-9.679757118225098,1.7310078144073486,1.8770540952682495,-16.571044921875,9.033203125,-6.6070556640625
10.5099999,-9.684545516967773,1.8148049116134644,1.987187385559082,-19.317626953125,11.3067626953125,-11.993408203125
10.5299999,-9.674968719482422,1.5658079385757446,1.8100165128707886,-25.8331298828125,16.17431640625,-10.8489990234375
10.549999900000001,-9.75637149810791,1.091755986213684,1.5394717454910278,-29.8614501953125,22.39990234375,-8.4686279296875
10.569999900000001,-9.852140426635742,0.4668693244457245,1.0271124839782715,-19.95849609375,16.021728515625,-6.7596435546875
10.5899999,-10.014945983886719,-0.07182604819536209,0.4405331015586853,-0.18310546875,2.3345947265625,-5.2642822265625
10.6099999,-10.137049674987793,-0.49799394607543945,-0.1628057211637497,17.2576904296875,-1.495361328125,-2.532958984375
10.629999900000001,-10.223240852355957,-0.608127236366272,-0.44532153010368347,25.6500244140625,-6.9122314453125,-1.3885498046875
10.649999900000001,-10.199298858642578,-0.47884035110473633,-0.5171475410461426,26.580810546875,-11.6729736328125,-1.190185546875
10.6699999,-10.08198356628418,-0.06703764945268631,-0.023942016065120697,22.7203369140625,-10.711669921875,-0.0457763671875
10.6899999,-9.938331604003906,0.4405331015586853,0.6344634294509888,1.556396484375,-3.082275390625,-1.9378662109375
10.709999900000001,-9.6989107131958,0.9768342971801758,1.5442601442337036,-31.494140625,13.092041015625,-3.2196044921875
10.729999900000001,-9.648633003234863,1.2066776752471924,2.051830768585205,-56.2744140625,26.1993408203125,-3.0059814453125
10.7499999,-9.655815124511719,1.1827356815338135,2.1092917919158936,-54.26025390625,25.81787109375,-2.532958984375
10.7699999,-9.787496566772461,0.7613561153411865,1.5107412338256836,-32.5775146484375,13.48876953125,-4.425048828125
10.7899999,-10.034099578857422,0.2537853717803955,0.524330198764801,-8.0413818359375,6.34765625,-1.4190673828125
10.809999900000001,-10.137049674987793,-0.181959331035614,-0.3064578175544739,10.5133056640625,-5.767822265625,-0.3509521484375
10.8299999,-10.249577522277832,-0.47644615173339844,-0.9217676520347595,20.9503173828125,-14.434814453125,-1.2664794921875
10.8499999,-10.218452453613281,-0.49320554733276367,-0.9002198576927185,31.0821533203125,-15.3961181640625,-0.48828125
10.8699999,-10.177751541137695,-0.35673606395721436,-0.5482721924781799,30.5633544921875,-16.876220703125,0.9918212890625
10.889999900000001,-10.038887977600098,-0.0071826050989329815,0.2059013396501541,19.71435546875,-11.1083984375,1.64794921875
10.9099999,-9.897629737854004,0.3423708379268646,0.8786720037460327,6.0577392578125,-2.777099609375,1.708984375
10.9299999,-9.806650161743164,0.6584054827690125,1.4053963422775269,-0.946044921875,1.6326904296875,0.8544921875
10.9499999,-9.773131370544434,0.8307880163192749,1.623268723487854,-1.6021728515625,-1.678466796875,-1.7242431640625
10.969999900000001,-9.818621635437012,0.7733271718025208,1.5298948287963867,-2.8076171875,-0.1373291015625,-3.3416748046875
10.9899999,-9.859322547912598,0.7493851184844971,1.3072341680526733,-0.8697509765625,3.1280517578125,-4.39453125
11.0099999,-9.919178009033203,0.4908113479614258,1.0319008827209473,0.518798828125,0.335693359375,-4.974365234375
11.0299999,-9.943120002746582,0.3447650372982025,0.811634361743927,4.9285888671875,0.8544921875,-4.9896240234375
11.049999900000001,-9.945513725280762,0.181959331035614,0.8307880163192749,6.9580078125,-1.8157958984375,-1.8768310546875
11.069999900000001,-9.919178009033203,0.21787235140800476,1.0007762908935547,-4.5318603515625,3.7994384765625,-0.8544921875
11.0899999,-9.84495735168457,0.2825157940387726,1.2449848651885986,-24.658203125,17.4560546875,-1.373291015625
11.1099999,-9.832986831665039,0.40701428055763245,1.314416766166687,-30.7769775390625,19.195556640625,-0.885009765625
11.129999900000001,-9.804255485534668,0.395043283700943,1.1037269830703735,-22.552490234375,10.5438232421875,-0.91552734375
11.149999900000001,-9.974244117736816,0.23942017555236816,0.5746083855628967,-10.5133056640625,6.8206787109375,-3.47900390625
11.1699999,-10.0580415725708,0.06464344263076782,0.009576806798577309,5.8441162109375,0.518798828125,-1.922607421875
11.1899999,-10.225635528564453,-0.17956513166427612,-0.44532153010368347,19.7906494140625,-9.8419189453125,-1.64794921875
11.209999900000001,-10.26394271850586,-0.31842881441116333,-0.646434485912323,33.7677001953125,-14.95361328125,-1.9683837890625
11.229999900000001,-10.160991668701172,-0.2992752194404602,-0.3256114423274994,38.726806640625,-18.4173583984375,1.2359619140625
11.2499999,-10.022128105163574,-0.11252748221158981,0.22026655077934265,23.162841796875,-12.481689453125,3.3721923828125
11.2699999,-9.828198432922363,0.1867477297782898,0.9648633003234863,-2.86865234375,2.6702880859375,3.4637451171875
11.2899999,-9.708487510681152,0.4908113479614258,1.4628572463989258,-14.9688720703125,8.72802734375,3.936767578125
11.309999900000001,-9.6989107131958,0.6272808313369751,1.6400281190872192,-11.6729736328125,1.7242431640625,3.72314453125
11.3299999,-9.801861763000488,0.608127236366272,1.3646949529647827,-5.5084228515625,1.434326171875,-1.1749267578125
11.3499999,-9.897629737854004,0.5339069962501526,1.0342950820922852,2.105712890625,-0.1678466796875,0.48828125
11.3699999,-10.014945983886719,0.45250412821769714,0.730231523513794,2.9754638671875,-5.18798828125,0.18310546875
11.389999900000001,-10.034099578857422,0.4165911078453064,0.6512228846549988,-0.244140625,-2.44140625,-2.5634765625
11.4099999,-9.976638793945312,0.38546648621559143,0.8355764150619507,-8.148193359375,2.9449462890625,-2.3956298828125
11.4299999,-9.890447616577148,0.40222588181495667,1.1300631761550903,-20.5078125,11.1236572265625,0.42724609375
11.4499999,-9.80904483795166,0.304063618183136,1.290474772453308,-27.6336669921875,18.9361572265625,2.3345947265625
11.469999900000001,-9.854534149169922,0.19153612852096558,1.2114660739898682,-17.5933837890625,14.3585205078125,2.3345947265625
11.4899999,-9.904812812805176,0.0071826050989329815,0.7565677165985107,3.1890869140625,1.2969970703125,2.5634765625
11.5099999,-10.08198356628418,-0.12210428714752197,0.12689268589019775,20.32470703125,-5.706787109375,1.0223388671875
11.5299999,-10.17296314239502,-0.08619125932455063,-0.36152446269989014,31.341552734375,-11.8255615234375,1.6632080078125
11.549999900000001,-10.192116737365723,0.0454898327589035,-0.5410895943641663,30.517578125,-17.76123046875,-0.5035400390625
11.569999900000001,-10.146626472473145,0.28969839215278625,-0.19153612852096558,22.9949951171875,-14.2669677734375,-2.5634765625
11.5899999,-9.979032516479492,0.5099649429321289,0.4189853072166443,8.48388671875,-7.32421875,-1.617431640625
11.6099999,-9.859322547912598,0.6344634294509888,1.1348515748977661,-5.8746337890625,0.6561279296875,-0.48828125
11.629999900000001,-9.710882186889648,0.6631938815116882,1.656787633895874,-12.1307373046875,6.439208984375,0.5950927734375
11.649999900000001,-9.773131370544434,0.5410895943641663,1.8531121015548706,-13.9923095703125,8.544921875,1.3580322265625
11.6699999,-9.730035781860352,0.4189853072166443,1.644816517829895,-12.2528076171875,6.744384765625,5.8441162109375
11.6899999,-9.895236015319824,0.2801215946674347,1.2114660739898682,-7.171630859375,2.8228759765625,2.86865234375
11.709999900000001,-9.96945571899414,0.24420857429504395,0.646434485912323,1.434326171875,0.244140625,0.274658203125
11.729999900000001,-9.995792388916016,0.29209262132644653,0.3256114423274994,3.8604736328125,-6.256103515625,-1.7242431640625
11.7499999,-10.02452278137207,0.304063618183136,0.11971008777618408,1.953125,-3.509521484375,-3.8604736328125
11.7699999,-9.976638793945312,0.33039984107017517,0.3902548849582672,3.7841796875,-0.732421875,-1.5106201171875
11.7899999,-9.93593692779541,0.2849099934101105,0.6799532771110535,6.16455078125,-2.532958984375,-0.2593994140625
11.809999900000001,-9.885659217834473,0.31364041566848755,1.05105459690094,5.950927734375,3.875732421875,0.3509521484375
11.8299999,-9.828198432922363,0.3471592366695404,1.3096283674240112,2.777099609375,5.0506591796875,0.335693359375
11.8499999,-9.792284965515137,0.4189853072166443,1.3886369466781616,-5.035400390625,6.4697265625,0.701904296875
11.8699999,-9.801861763000488,0.5219359993934631,1.3000515699386597,-16.2811279296875,11.077880859375,1.2969970703125
11.889999900000001,-9.825803756713867,0.667982280254364,1.1276689767837524,-26.580810546875,11.138916015625,1.9683837890625
11.9099999,-9.885659217834473,0.7086837291717529,0.8978256583213806,-34.0728759765625,7.87353515625,-2.288818359375
11.9299999,-9.923966407775879,0.6607996821403503,0.6344634294509888,-29.5562744140625,7.598876953125,-6.6680908203125
11.9499999,-9.995792388916016,0.38546648621559143,0.5099649429321289,-17.4713134765625,5.5999755859375,-3.1585693359375
11.969999900000001,-10.02691650390625,0.0933738648891449,0.37828385829925537,-9.2010498046875,1.373291015625,1.0986328125
11.9899999,-10.11550235748291,-0.22266076505184174,0.3471592366695404,-12.6495361328125,4.94384765625,6.500244140625
12.0099999,-10.091560363769531,-0.3758896589279175,0.21308395266532898,-7.0343017578125,3.7841796875,7.50732421875
12.0299999,-10.074800491333008,-0.3734954595565796,0.17477671802043915,11.8865966796875,-6.439208984375,5.3863525390625
12.049999900000001,-10.012551307678223,-0.18914192914962769,0.19393034279346466,20.0958251953125,-9.6435546875,3.448486328125
12.069999900000001,-10.007762908935547,0.11252748221158981,0.29209262132644653,10.5133056640625,-2.0904541015625,3.082275390625
12.0899999,-9.9000244140625,0.5674257874488831,0.6488286852836609,-0.1068115234375,-0.1678466796875,4.8980712890625
12.1099999,-9.8784761428833,0.9792284965515137,0.9361328482627869,-8.11767578125,-1.068115234375,-0.6256103515625
12.129999900000001,-9.763554573059082,1.2665326595306396,1.3335703611373901,-15.19775390625,5.218505859375,-6.2103271484375
12.149999900000001,-9.775525093078613,1.2186486721038818,1.3766659498214722,-25.421142578125,14.2822265625,-12.664794921875
12.1699999,-9.84495735168457,0.8595184087753296,1.314416766166687,-20.6298828125,14.617919921875,-7.1258544921875
12.1899999,-9.95748519897461,0.22266076505184174,0.8140285611152649,-2.410888671875,5.4931640625,0.091552734375
12.209999900000001,-10.096348762512207,-0.38307225704193115,0.2298433631658554,22.0947265625,-4.94384765625,3.2958984375
12.229999900000001,-10.153809547424316,-0.7733271718025208,-0.363918662071228,42.1905517578125,-13.0462646484375,5.645751953125
12.2499999,-10.244789123535156,-0.6991068720817566,-0.6584054827690125,47.271728515625,-18.3868408203125,5.859375
12.2699999,-10.153809547424316,-0.2537853717803955,-0.5410895943641663,39.6728515625,-21.5911865234375,4.3182373046875
12.289999900000002,-10.055646896362305,0.37828385829925537,0.05985504388809204,18.1884765625,-17.913818359375,-0.8087158203125
12.309999900000001,-9.871294021606445,0.9193734526634216,0.8547300100326538,-5.7830810546875,-4.0740966796875,-2.410888671875
12.3299999,-9.737217903137207,1.2832920551300049,1.7405846118927002,-28.076171875,7.354736328125,-0.0762939453125
12.3499999,-9.624691009521484,1.3503297567367554,2.3247697353363037,-45.1812744140625,14.22119140625,0.8544921875
12.3699999,-9.653421401977539,1.1348515748977661,2.3367409706115723,-53.77197265625,23.4222412109375,1.617431640625
12.389999900000001,-9.725247383117676,0.7661445140838623,1.9081788063049316,-42.633056640625,21.484375,1.89208984375
12.4099999,-9.892841339111328,0.28730419278144836,1.1037269830703735,-19.4244384765625,10.528564453125,0.6866455078125
12.4299999,-10.029311180114746,-0.09816227108240128,0.24181437492370605,0.3814697265625,-1.6021728515625,4.45556640625
12.4499999,-10.1753568649292,-0.17238251864910126,-0.35673606395721436,10.7421875,-3.2806396484375,3.9520263671875
12.469999900000001,-10.156203269958496,-0.033518824726343155,-0.569819986820221,14.923095703125,-6.40869140625,-0.0152587890625
12.4899999,-10.062829971313477,0.2801215946674347,-0.31124621629714966,20.9197998046875,-13.9312744140625,-5.035400390625
12.5099999,-9.950302124023438,0.6177040338516235,0.31364041566848755,16.17431640625,-6.439208984375,-10.07080078125
12.5299999,-9.825803756713867,0.7805097699165344,1.216254472732544,-1.2969970703125,10.4217529296875,-9.2926025390625
12.549999900000001,-9.72285270690918,0.8475474119186401,1.941697597503662,-24.871826171875,21.575927734375,-3.8909912109375
12.569999900000001,-9.72285270690918,0.7493851184844971,2.1116859912872314,-35.003662109375,31.341552734375,0.0152587890625
12.5899999,-9.8784761428833,0.545877993106842,1.5610195398330688,-18.7225341796875,23.13232421875,1.6326904296875
12.6099999,-9.971850395202637,0.33039984107017517,0.5770025849342346,2.9296875,1.007080078125,-9.7503662109375
12.629999900000001,-10.232817649841309,0.12928688526153564,-0.45250412821769714,15.3961181640625,-5.5084228515625,-12.847900390625
12.649999900000001,-10.261548042297363,-0.0071826050989329815,-0.9959878921508789,20.904541015625,-7.843017578125,-4.2877197265625
12.6699999,-10.20887565612793,-0.10773907601833344,-0.9289502501487732,23.7274169921875,-18.24951171875,-4.08935546875
12.6899999,-10.02691650390625,-0.10534487664699554,-0.2537853717803955,22.3846435546875,-13.7786865234375,-3.9825439453125
12.709999900000001,-9.895236015319824,-0.026336219161748886,0.6919242739677429,2.349853515625,4.5013427734375,-1.251220703125
12.729999900000001,-9.68694019317627,0.12928688526153564,1.6328455209732056,-28.7933349609375,17.88330078125,5.645751953125
12.7499999,-9.773131370544434,0.2561795711517334,1.867477297782898,-49.4842529296875,30.5633544921875,7.232666015625
12.7699999,-9.861717224121094,0.3878606855869293,1.4269442558288574,-35.58349609375,20.172119140625,7.965087890625
12.789999900000002,-9.964667320251465,0.35673606395721436,0.42616790533065796,-5.8746337890625,-7.8887939453125,-0.3814697265625
12.809999900000001,-10.18493366241455,0.2825157940387726,-0.5817909836769104,16.7694091796875,-17.76123046875,-8.23974609375
12.8299999,-10.168174743652344,0.090979665517807,-1.0821791887283325,32.5927734375,-18.4478759765625,-0.8392333984375
12.8499999,-10.158597946166992,-0.014365210197865963,-0.8475474119186401,35.6903076171875,-24.3988037109375,0.3662109375
12.8699999,-10.022128105163574,-0.038307227194309235,-0.07182604819536209,29.5257568359375,-16.845703125,0.7171630859375
12.889999900000001,-9.84256362915039,0.16998831927776337,1.0223240852355957,9.2010498046875,-0.152587890625,-1.03759765625
12.9099999,-9.66299819946289,0.47884035110473633,2.070984363555908,-19.195556640625,15.3045654296875,1.15966796875
12.9299999,-9.607931137084961,0.6847416758537292,2.403778553009033,-39.3524169921875,31.3262939453125,3.1890869140625
12.9499999,-9.667786598205566,0.8092401623725891,2.0901381969451904,-30.21240234375,26.42822265625,0.518798828125
12.969999900000001,-9.86650562286377,0.6943184733390808,1.0582371950149536,-5.8746337890625,5.1727294921875,-5.3558349609375
12.9899999,-10.06043529510498,0.5147533416748047,-0.10055647045373917,13.8702392578125,-8.8043212890625,-11.810302734375
13.0099999,-10.24000072479248,0.3232172429561615,-0.9481038451194763,28.74755859375,-13.519287109375,-7.1258544921875
13.0299999,-10.268731117248535,0.1364694982767105,-1.0749965906143188,32.16552734375,-21.514892578125,-5.706787109375
13.049999900000001,-10.153809547424316,0.043095629662275314,-0.5937620401382446,21.9268798828125,-17.2882080078125,-6.6070556640625
13.069999900000001,-9.962273597717285,0.12210428714752197,0.5027823448181152,0.762939453125,-0.244140625,-5.2642822265625
13.0899999,-9.734824180603027,0.14844051003456116,1.4724340438842773,-26.824951171875,15.625,0.6866455078125
13.1099999,-9.684545516967773,0.10055647045373917,2.006340980529785,-37.384033203125,27.77099609375,3.448486328125
13.129999900000001,-9.684545516967773,-0.009576806798577309,1.7286136150360107,-20.6298828125,15.594482421875,6.3018798828125
13.149999900000001,-9.931148529052734,-0.24420857429504395,0.8259995579719543,3.5247802734375,-1.5106201171875,5.06591796875
13.1699999,-10.108319282531738,-0.23942017555236816,-0.16519992053508759,23.2086181640625,-11.6729736328125,5.8135986328125
13.1899999,-10.225635528564453,-0.11971008777618408,-0.5793967843055725,27.16064453125,-22.52197265625,2.166748046875
13.209999900000001,-10.165780067443848,0.24181437492370605,-0.33997663855552673,6.0577392578125,-11.71875,-3.5552978515625
13.229999900000001,-9.99100399017334,0.45010992884635925,0.28969839215278625,-21.1944580078125,9.33837890625,2.44140625
13.2499999,-9.751583099365234,0.6607996821403503,0.9792284965515137,-30.0445556640625,11.7340087890625,6.1187744140625
13.2699999,-9.495404243469238,0.7110779285430908,1.4508862495422363,-28.045654296875,5.8746337890625,3.448486328125
13.289999900000002,-9.078812599182129,0.727837324142456,1.4915876388549805,-40.3289794921875,17.1356201171875,4.6234130859375
13.309999900000001,-8.719682693481445,0.5506663918495178,1.072602391242981,-40.5120849609375,20.3704833984375,4.913330078125
13.3299999,-8.075642585754395,0.009576806798577309,0.42856210470199585,-7.9803466796875,1.9683837890625,3.41796875
13.3499999,-7.642292022705078,-0.6584054827690125,-0.22026655077934265,32.0281982421875,-18.8751220703125,13.97705078125
13.3699999,-7.881711959838867,-1.0271124839782715,-0.4189853072166443,48.40087890625,-14.09912109375,24.688720703125
13.389999900000001,-8.595184326171875,-0.9696516990661621,-0.33039984107017517,37.109375,-1.46484375,22.0489501953125
13.4099999,-10.316615104675293,0.12210428714752197,0.29209262132644653,22.5677490234375,4.6844482421875,11.2457275390625
13.4299999,-11.60708999633789,1.0893617868423462,0.7972691655158997,5.37109375,3.3111572265625,-9.765625
13.4499999,-12.775460243225098,1.7142484188079834,1.0103530883789062,-11.444091796875,15.777587890625,-6.3323974609375
13.469999900000001,-12.701239585876465,1.6208745241165161,0.912190854549408,2.2125244140625,14.0228271484375,0.4730224609375
13.4899999,-12.114660263061523,0.9576807022094727,0.6200982332229614,25.6805419921875,-5.9967041015625,3.4332275390625
13.5099999,-11.185709953308105,0.05267243832349777,0.040701430290937424,40.283203125,-20.233154296875,6.805419921875
13.5299999,-9.80904483795166,0.014365210197865963,0.16759411990642548,46.630859375,-8.3770751953125,7.1563720703125
13.549999900000001,-9.53849983215332,0.586579442024231,0.524330198764801,13.1988525390625,4.82177734375,1.0223388671875
13.569999900000001,-9.514557838439941,1.1994950771331787,0.730231523513794,-12.237548828125,18.524169921875,-6.2713623046875
13.5899999,-9.605537414550781,1.4173674583435059,0.6991068720817566,-9.21630859375,1.8310546875,-4.608154296875
13.6099999,-9.77791976928711,1.2210428714752197,0.47405192255973816,-5.8441162109375,-14.83154296875,1.52587890625
13.629999900000001,-9.95748519897461,0.8355764150619507,0.3256114423274994,-11.6729736328125,-4.3182373046875,3.9520263671875
13.649999900000001,-10.022128105163574,0.5626373887062073,0.395043283700943,-14.09912109375,3.84521484375,4.608154296875
13.6699999,-10.019734382629395,0.47165772318840027,0.4836287498474121,-12.39013671875,-2.5482177734375,6.6680908203125
13.6899999,-9.971850395202637,0.5841852426528931,0.5722141861915588,-12.7105712890625,-3.9215087890625,4.0130615234375
13.709999900000001,-9.914389610290527,0.7613561153411865,0.6560112833976746,-16.54052734375,0.3509521484375,-2.8533935546875
13.729999900000001,-9.888052940368652,0.7972691655158997,0.7134721279144287,-18.12744140625,5.6304931640625,-7.26318359375
13.7499999,-9.885659217834473,0.5889736413955688,0.7661445140838623,-10.3302001953125,6.0882568359375,-2.685546875
13.7699999,-9.921571731567383,0.28730419278144836,0.7661445140838623,5.2947998046875,1.64794921875,8.056640625
13.789999900000002,-9.919178009033203,0.09816227108240128,0.7493851184844971,15.0909423828125,-0.640869140625,12.4359130859375
13.809999900000001,-9.916783332824707,0.23702596127986908,0.6919242739677429,10.2691650390625,5.401611328125,7.293701171875
13.8299999,-9.897629737854004,0.6584054827690125,0.6200982332229614,2.8839111328125,7.9345703125,-2.4871826171875
13.8499999,-9.90241813659668,1.094150185585022,0.4596867263317108,2.4871826171875,4.119873046875,-12.542724609375
13.8699999,-9.940725326538086,1.3024457693099976,0.3208230137825012,6.40869140625,0.701904296875,-17.7001953125
13.889999900000001,-9.971850395202637,1.2234370708465576,0.24899697303771973,9.979248046875,-1.2359619140625,-14.923095703125
13.9099999,-9.986215591430664,0.8427590131759644,0.31364041566848755,14.007568359375,-0.3204345703125,-8.5906982421875
13.9299999,-9.976638793945312,0.38307225704193115,0.47884035110473633,21.5911865234375,2.0294189453125,-2.1209716796875
13.9499999,-9.971850395202637,0.038307227194309235,0.5841852426528931,29.052734375,3.1280517578125,1.190185546875
13.969999900000001,-9.931148529052734,-0.06703764945268631,0.6751648783683777,31.494140625,3.23486328125,0.9002685546875
13.9899999,-10.012551307678223,0.08379705995321274,0.3878606855869293,32.1807861328125,-0.4730224609375,-1.4801025390625
14.0099999,-9.971850395202637,0.3926490843296051,0.30885201692581177,33.75244140625,-10.9710693359375,-5.7220458984375
14.0299999,-9.998186111450195,0.689530074596405,0.2298433631658554,30.1055908203125,-9.429931640625,-8.2244873046875
14.049999900000001,-9.955090522766113,0.7733271718025208,0.33518823981285095,24.6734619140625,2.5177001953125,-7.62939453125
14.069999900000001,-9.93593692779541,0.7637503147125244,0.5123591423034668,19.3634033203125,5.706787109375,-4.4403076171875
14.0899999,-9.964667320251465,0.6272808313369751,0.42377370595932007,11.7645263671875,-1.800537109375,-0.946044921875
14.1099999,-10.11789608001709,0.4596867263317108,0.1867477297782898,2.2735595703125,-8.3465576171875,1.9989013671875
14.129999900000001,-10.108319282531738,0.4668693244457245,0.05985504388809204,-11.5966796875,-22.430419921875,7.9803466796875
14.149999900000001,-10.113107681274414,0.47165772318840027,0.06464344263076782,-29.60205078125,-14.984130859375,14.7552490234375
14.1699999,-9.967061996459961,0.608127236366272,0.4189853072166443,-42.266845703125,-1.8768310546875,11.16943359375
14.1899999,-9.80904483795166,0.6991068720817566,0.8212111592292786,-41.7633056640625,-0.762939453125,7.75146484375
14.209999900000001,-9.763554573059082,0.727837324142456,1.0462661981582642,-30.6396484375,3.204345703125,4.486083984375
14.229999900000001,-9.758766174316406,0.6584054827690125,1.1204863786697388,-14.3585205078125,4.7607421875,1.0223388671875
14.2499999,-9.792284965515137,0.5937620401382446,1.139639973640442,1.2054443359375,-0.9918212890625,0.946044921875
14.2699999,-9.873687744140625,0.4165911078453064,0.9074024558067322,12.176513671875,1.46484375,0.640869140625
14.289999900000002,-9.976638793945312,0.3423708379268646,0.7613561153411865,37.017822265625,2.044677734375,-3.90625
14.309999900000001,-10.074800491333008,0.28969839215278625,0.5315127968788147,64.117431640625,-6.6986083984375,-7.415771484375
14.3299999,-10.17296314239502,0.3208230137825012,0.1173158809542656,77.9266357421875,-11.932373046875,-13.336181640625
14.3499999,-10.218452453613281,0.4596867263317108,0.15322890877723694,83.740234375,-16.5252685546875,-13.85498046875
14.3699999,-9.981427192687988,0.7206547260284424,0.6607996821403503,63.232421875,-16.2811279296875,-11.7340087890625
14.389999900000001,-9.852140426635742,0.9600749015808105,1.161187767982483,20.7061767578125,16.204833984375,-5.096435546875
14.4099999,-9.706093788146973,1.0223240852355957,1.7381904125213623,-6.622314453125,36.3311767578125,-3.5552978515625
14.4299999,-9.679757118225098,1.0319008827209473,1.6136919260025024,-15.8233642578125,17.852783203125,-3.11279296875
14.4499999,-9.916783332824707,0.7158663272857666,0.9481038451194763,-19.59228515625,5.340576171875,3.8604736328125
14.469999900000001,-10.053253173828125,0.5363011956214905,0.1867477297782898,-12.20703125,2.8076171875,4.486083984375
14.4899999,-10.290278434753418,0.3016694188117981,-0.33758243918418884,-2.1209716796875,-4.302978515625,5.7373046875
14.5099999,-10.309432983398438,0.2322375625371933,-0.45250412821769714,2.3651123046875,-8.4381103515625,5.4168701171875
14.5299999,-10.163386344909668,0.36152446269989014,-0.14365209639072418,0.9307861328125,-6.77490234375,7.6446533203125
14.549999900000001,-10.062829971313477,0.4692635238170624,0.1173158809542656,1.9683837890625,-1.7547607421875,3.387451171875
14.569999900000001,-9.914389610290527,0.6272808313369751,0.5650315880775452,7.0343017578125,-0.7781982421875,-5.6304931640625
14.5899999,-9.677363395690918,0.8068459630012512,0.9097966551780701,5.9051513671875,-3.2806396484375,-1.8768310546875
14.6099999,-9.799467086791992,0.7637503147125244,1.0079588890075684,1.556396484375,2.0751953125,1.708984375
14.629999900000001,-9.737217903137207,0.8020575642585754,1.2258312702178955,4.730224609375,10.894775390625,-3.84521484375
14.649999900000001,-9.923966407775879,0.6871358752250671,1.091755986213684,2.5634765625,7.87353515625,-0.4425048828125
14.6699999,-9.938331604003906,0.6560112833976746,0.8355764150619507,-0.8087158203125,4.119873046875,1.0528564453125
14.6899999,-10.168174743652344,0.5985504388809204,0.44532153010368347,5.9051513671875,3.631591796875,-3.2196044921875
14.709999900000001,-10.158597946166992,0.49320554733276367,0.16998831927776337,13.3209228515625,-7.5531005859375,-6.0882568359375
14.729999900000001,-10.0580415725708,0.5722141861915588,0.043095629662275314,12.02392578125,-7.3089599609375,-0.2899169921875
14.7499999,-10.086771965026855,0.5626373887062073,0.090979665517807,8.7738037109375,-0.213623046875,1.4495849609375
14.7699999,-9.916783332824707,0.5602431893348694,0.38546648621559143,6.9122314453125,-1.5411376953125,-5.218505859375
14.789999900000002,-9.84495735168457,0.6967126727104187,0.7637503147125244,0.732421875,0.6103515625,-0.7476806640625
14.809999900000001,-9.828198432922363,0.6344634294509888,0.9361328482627869,-7.843017578125,6.1187744140625,-0.5340576171875
14.8299999,-9.897629737854004,0.6536170840263367,1.0319008827209473,-6.1187744140625,9.6435546875,-5.3558349609375
14.8499999,-9.998186111450195,0.6153098344802856,0.8571242094039917,-2.410888671875,0.1068115234375,-2.7008056640625
14.8699999,-10.019734382629395,0.524330198764801,0.5674257874488831,-1.03759765625,2.4261474609375,1.7852783203125
14.889999900000001,-10.170568466186523,0.5123591423034668,0.2561795711517334,2.349853515625,1.6326904296875,1.220703125
14.9099999,-10.129867553710938,0.40940847992897034,0.15083470940589905,6.988525390625,-7.3699951171875,-3.7841796875
14.9299999,-9.998186111450195,0.507570743560791,0.16998831927776337,5.06591796875,-7.14111328125,-2.685546875
14.9499999,-9.995792388916016,0.5027823448181152,0.31603461503982544,0.5950927734375,0.091552734375,-0.2288818359375
14.969999900000001,-9.75637149810791,0.569819986820221,0.5386953949928284,1.4190673828125,-1.678466796875,-4.2572021484375
14.9899999,-9.732429504394531,0.6488286852836609,0.8212111592292786,0.762939453125,-2.3345947265625,-2.0599365234375
15.0099999,-9.605537414550781,0.6607996821403503,0.9026140570640564,-4.5928955078125,5.950927734375,0.30517578125
15.0299999,-9.744400978088379,0.6943184733390808,0.933738648891449,-6.53076171875,11.3525390625,-3.509521484375
15.049999900000001,-9.792284965515137,0.6153098344802856,0.8044517636299133,-3.2806396484375,1.3275146484375,-5.67626953125
15.069999900000001,-10.000580787658691,0.5003881454467773,0.5674257874488831,-0.701904296875,0.9765625,-1.739501953125
15.0899999,-10.20887565612793,0.4405331015586853,0.38067805767059326,2.38037109375,1.861572265625,-1.007080078125
15.1099999,-10.230423927307129,0.33518823981285095,0.3447650372982025,5.37109375,-3.0364990234375,-0.3814697265625
15.129999900000001,-10.244789123535156,0.4692635238170624,0.40462008118629456,3.2806396484375,0.9307861328125,-1.312255859375
15.149999900000001,-10.000580787658691,0.49320554733276367,0.4596867263317108,-1.64794921875,7.26318359375,-1.40380859375
15.1699999,-9.93354320526123,0.6129156351089478,0.5410895943641663,-1.3275146484375,3.2196044921875,-6.3629150390625
15.1899999,-9.909601211547852,0.5770025849342346,0.5147533416748047,0.5340576171875,-5.645751953125,-6.3018798828125
15.209999900000001,-9.940725326538086,0.49320554733276367,0.524330198764801,0.9307861328125,1.1138916015625,-0.457763671875
15.229999900000001,-10.132261276245117,0.4165911078453064,0.5339069962501526,-0.091552734375,1.4190673828125,1.8463134765625
15.2499999,-10.022128105163574,0.3064578175544739,0.608127236366272,2.7008056640625,2.01416015625,-0.5340576171875
15.2699999,-10.086771965026855,0.38067805767059326,0.6177040338516235,1.8768310546875,0.5035400390625,-3.631591796875
15.289999900000002,-9.950302124023438,0.3711012601852417,0.6009446382522583,0.1678466796875,2.99072265625,-2.8839111328125
15.309999900000001,-10.055646896362305,0.5147533416748047,0.5554547905921936,0.1678466796875,0.518798828125,-3.2806396484375
15.3299999,-10.129867553710938,0.5003881454467773,0.47405192255973816,1.1138916015625,-4.3182373046875,-5.79833984375
15.3499999,-10.359710693359375,0.5841852426528931,0.45010992884635925,2.6397705078125,-0.18310546875,-4.6539306640625
15.3699999,-10.472238540649414,0.545877993106842,0.4381389021873474,2.3651123046875,-0.1983642578125,-6.866455078125
15.389999900000001,-10.685321807861328,0.5602431893348694,0.4692635238170624,2.44140625,1.2359619140625,-5.096435546875
15.4099999,-10.65898609161377,0.49799394607543945,0.48602294921875,1.77001953125,-3.35693359375,-8.758544921875
15.4299999,-10.584765434265137,0.5147533416748047,0.49320554733276367,1.2359619140625,-4.4708251953125,-10.2996826171875
15.4499999,-10.393229484558105,0.4620809257030487,0.5003881454467773,0.823974609375,-0.9765625,-5.8135986328125
15.469999900000001,-10.182539939880371,0.5099649429321289,0.5554547905921936,-0.396728515625,1.861572265625,-5.6610107421875
15.4899999,-10.046070098876953,0.4668693244457245,0.6272808313369751,-3.509521484375,9.9945068359375,-11.1083984375
15.5099999,-9.895236015319824,0.5386953949928284,0.7996633648872375,-9.4757080078125,7.4310302734375,-11.6424560546875
15.5299999,-9.849745750427246,0.5482721924781799,1.0869675874710083,-20.111083984375,8.7890625,-3.5552978515625
15.549999900000001,-9.694122314453125,0.6775590777397156,1.2617442607879639,-44.0673828125,23.2086181640625,3.204345703125
15.569999900000001,-9.660603523254395,0.6799532771110535,1.2713210582733154,-56.9305419921875,26.031494140625,5.7220458984375
15.5899999,-9.660603523254395,0.6153098344802856,0.9600749015808105,-48.9349365234375,21.453857421875,2.44140625
15.6099999,-9.742006301879883,0.3423708379268646,0.3232172429561615,-30.0140380859375,11.1846923828125,-2.2735595703125
15.629999900000001,-9.856928825378418,-0.004788403399288654,-0.3758896589279175,-8.026123046875,-1.52587890625,-3.5247802734375
15.649999900000001,-9.93593692779541,-0.35434186458587646,-0.950498104095459,12.0697021484375,-8.9874267578125,-6.1187744140625
15.6699999,-9.962273597717285,-0.5961562395095825,-1.2521674633026123,27.3284912109375,-13.0462646484375,-8.636474609375
15.6899999,-9.919178009033203,-0.6847416758537292,-1.2425906658172607,36.956787109375,-17.181396484375,-7.293701171875
15.709999900000001,-9.828198432922363,-0.646434485912323,-0.993593692779541,41.3818359375,-17.425537109375,-5.2642822265625
15.729999900000001,-9.708487510681152,-0.524330198764801,-0.5937620401382446,41.5496826171875,-15.2587890625,-6.7138671875
15.7499999,-9.581595420837402,-0.3711012601852417,-0.1388636976480484,37.65869140625,-11.71875,-10.589599609375
15.7699999,-9.481039047241211,-0.22266076505184174,0.28730419278144836,31.43310546875,-5.2337646484375,-12.6495361328125
15.789999900000002,-9.430760383605957,-0.12210428714752197,0.6224924325942993,24.261474609375,2.7008056640625,-12.3748779296875
15.809999900000001,-9.435548782348633,-0.08379705995321274,0.8475474119186401,18.218994140625,6.805419921875,-13.0462646484375
15.8299999,-9.497797966003418,-0.11013327538967133,0.9481038451194763,13.9007568359375,5.6610107421875,-14.7247314453125
15.8499999,-9.603142738342285,-0.19393034279346466,0.9552865028381348,11.1236572265625,1.4801025390625,-14.09912109375
15.869999900000002,-9.710882186889648,-0.30885201692581177,0.9002198576927185,9.1400146484375,-2.3040771484375,-12.4053955078125
15.889999900000001,-9.792284965515137,-0.43095630407333374,0.8451532125473022,9.002685546875,-3.509521484375,-12.4664306640625
15.9099999,-9.86650562286377,-0.5386953949928284,0.7805097699165344,9.8876953125,-1.46484375,-13.5650634765625
15.9299999,-9.950302124023438,-0.5841852426528931,0.7493851184844971,11.04736328125,-1.77001953125,-13.0767822265625
15.9499999,-10.034099578857422,-0.5889736413955688,0.7350199222564697,10.8489990234375,-6.04248046875,-12.4664306640625
15.969999900000001,-10.110713958740234,-0.545877993106842,0.7445967197418213,11.077880859375,-8.544921875,-13.885498046875
15.9899999,-10.153809547424316,-0.47165772318840027,0.7733271718025208,12.451171875,-8.392333984375,-15.045166015625
16.0099999,-10.170568466186523,-0.37828385829925537,0.8236053586006165,12.359619140625,-10.80322265625,-14.7247314453125
16.0299999,-10.17296314239502,-0.2753331959247589,0.8978256583213806,9.3231201171875,-19.012451171875,-15.045166015625
16.0499999,-10.14902114868164,-0.17717093229293823,1.0007762908935547,5.0506591796875,-26.9012451171875,-18.06640625
16.0699999,-10.014945983886719,-0.07422025501728058,1.2210428714752197,1.03759765625,-26.3214111328125,-20.99609375
16.089999900000002,-9.770736694335938,-0.10055647045373917,1.403002142906189,-2.410888671875,5.3558349609375,-21.97265625
16.109999900000002,-9.5408935546875,-0.19871874153614044,1.400607943534851,-1.15966796875,32.9437255859375,-17.242431640625
16.1299999,-9.435548782348633,-0.3423708379268646,1.3215993642807007,-1.251220703125,25.81787109375,-14.6484375
16.1499999,-9.48343276977539,-0.5291185975074768,1.0223240852355957,-3.5858154296875,2.166748046875,-15.777587890625
16.1699999,-9.66299819946289,-0.6416460275650024,0.7637503147125244,-3.2958984375,-10.589599609375,-12.4969482421875
16.1899999,-9.81143856048584,-0.7086837291717529,0.6224924325942993,-0.3509521484375,-12.8326416015625,-6.2103271484375
16.2099999,-9.847352027893066,-0.7422025203704834,0.5961562395095825,1.2664794921875,-15.045166015625,-1.5716552734375
16.2299999,-9.81143856048584,-0.7445967197418213,0.6512228846549988,0.762939453125,-11.7645263671875,1.0528564453125
16.249999900000002,-9.720458984375,-0.727837324142456,0.7493851184844971,-2.349853515625,-2.25830078125,4.4403076171875
16.269999900000002,-9.612719535827637,-0.6967126727104187,0.8523358106613159,-6.16455078125,6.5460205078125,9.2315673828125
16.2899999,-9.519346237182617,-0.6847416758537292,0.9026140570640564,-9.002685546875,13.7481689453125,11.749267578125
16.3099999,-9.50737476348877,-0.6703764796257019,0.9050082564353943,-10.92529296875,17.669677734375,13.397216796875
16.3299999,-9.619902610778809,-0.6536170840263367,0.8451532125473022,-11.9476318359375,19.10400390625,12.969970703125
16.3499999,-9.801861763000488,-0.6703764796257019,0.7445967197418213,-13.031005859375,12.75634765625,9.429931640625
16.3699999,-9.995792388916016,-0.7134721279144287,0.6560112833976746,-13.946533203125,-2.227783203125,7.537841796875
16.3899999,-10.110713958740234,-0.7924807667732239,0.6248866319656372,-15.3961181640625,-9.979248046875,7.354736328125
16.4099999,-10.120290756225586,-0.8882488012313843,0.6607996821403503,-17.120361328125,-4.4708251953125,6.500244140625
16.429999900000002,-10.036493301391602,-0.9840168952941895,0.7565677165985107,-20.1873779296875,1.251220703125,6.622314453125
16.4499999,-9.943120002746582,-1.0534487962722778,0.8547300100326538,-22.979736328125,1.739501953125,9.09423828125
16.4699999,-9.86650562286377,-1.1085153818130493,0.8882488012313843,-22.125244140625,4.150390625,10.3302001953125
16.4899999,-9.847352027893066,-1.1444283723831177,0.8355764150619507,-18.0206298828125,9.3841552734375,9.2315673828125
16.5099999,-9.885659217834473,-1.1516109704971313,0.6991068720817566,-11.627197265625,10.0250244140625,8.209228515625
16.5299999,-9.959878921508789,-1.1204863786697388,0.5195417404174805,-4.7760009765625,2.532958984375,7.4310302734375
16.5499999,-10.019734382629395,-1.0606313943862915,0.3471592366695404,1.556396484375,-5.706787109375,6.8359375
16.5699999,-10.012551307678223,-0.9576807022094727,0.24660277366638184,6.3934326171875,-10.6201171875,6.77490234375
16.589999900000002,-9.923966407775879,-0.8355764150619507,0.24181437492370605,9.1705322265625,-9.0179443359375,6.7596435546875
16.609999900000002,-9.797073364257812,-0.7015010714530945,0.33039984107017517,9.82666015625,-4.547119140625,6.988525390625
16.6299999,-9.713275909423828,-0.5434837937355042,0.4812345504760742,8.148193359375,-4.302978515625,6.9580078125
16.6499999,-9.667786598205566,-0.3926490843296051,0.6655880808830261,4.730224609375,-6.7901611328125,5.401611328125
16.6699999,-9.672574996948242,-0.2585737705230713,0.8403648138046265,0.518798828125,-6.77490234375,4.9896240234375
16.6899999,-9.718064308166504,-0.15322890877723694,0.9888052940368652,-3.47900390625,-1.953125,6.3629150390625
16.7099999,-9.818621635437012,-0.0933738648891449,1.0678139925003052,-6.9580078125,6.4849853515625,4.2572021484375
16.7299999,-9.95748519897461,-0.0933738648891449,1.0678139925003052,-8.4991455078125,7.476806640625,-1.0223388671875
16.749999900000002,-10.122684478759766,-0.12449848651885986,1.0055646896362305,-8.7127685546875,0.8544921875,-1.8768310546875
16.769999900000002,-10.247182846069336,-0.17956513166427612,0.9050082564353943,-8.056640625,-2.44140625,2.6702880859375
16.7899999,-10.302249908447266,-0.2298433631658554,0.8044517636299133,-5.79833984375,-0.18310546875,6.6070556640625
16.8099999,-10.287884712219238,-0.23942017555236816,0.7230489253997803,-3.326416015625,0.9307861328125,8.1024169921875
16.8299999,-10.249577522277832,-0.19632454216480255,0.6655880808830261,-1.922607421875,-1.2359619140625,9.7503662109375
16.8499999,-10.218452453613281,-0.09576806426048279,0.6272808313369751,-1.3275146484375,-2.2735595703125,11.260986328125
16.8699999,-10.165780067443848,0.031124621629714966,0.6129156351089478,-1.129150390625,-1.8463134765625,9.70458984375
16.8899999,-10.101137161254883,0.15562310814857483,0.6129156351089478,-1.5716552734375,0.335693359375,7.62939453125
16.9099999,-10.017339706420898,0.24899697303771973,0.6177040338516235,-1.5869140625,4.638671875,9.033203125
16.929999900000002,-9.931148529052734,0.31842881441116333,0.6153098344802856,-1.4801025390625,7.5836181640625,9.8724365234375
16.9499999,-9.864110946655273,0.3471592366695404,0.6009446382522583,-1.15966796875,8.209228515625,6.3629150390625
16.9699999,-9.80904483795166,0.3447650372982025,0.5746083855628967,-0.6103515625,7.2174072265625,5.3863525390625
16.9899999,-10.077195167541504,0.31842881441116333,0.5434837937355042,0.9918212890625,5.4931640625,10.345458984375
17.0099999,-10.08437728881836,0.16519992053508759,0.524330198764801,3.5247802734375,-2.01416015625,2.410888671875
17.0299999,-10.323798179626465,0.07900865375995636,0.5195417404174805,5.06591796875,-1.9683837890625,-7.9803466796875
17.0499999,-10.299856185913086,-0.08379705995321274,0.5171475410461426,7.7972412109375,-3.0364990234375,-4.4097900390625
17.0699999,-10.230423927307129,-0.16519992053508759,0.5339069962501526,7.9803466796875,-5.218505859375,-3.6773681640625
17.089999900000002,-10.132261276245117,-0.22505496442317963,0.5530605912208557,8.9569091796875,-5.67626953125,-1.89208984375
17.109999900000002,-10.08437728881836,-0.31603461503982544,0.6057330369949341,9.8419189453125,-6.805419921875,3.173828125
17.1299999,-9.99339771270752,-0.42616790533065796,0.6967126727104187,9.002685546875,-8.026123046875,6.16455078125
17.1499999,-9.955090522766113,-0.4836287498474121,0.8236053586006165,6.04248046875,-3.7078857421875,7.6141357421875
17.1699999,-9.888052940368652,-0.5123591423034668,0.9600749015808105,1.678466796875,-1.9073486328125,10.7421875
17.1899999,-9.854534149169922,-0.4572925269603729,1.091755986213684,-2.50244140625,-0.3814697265625,12.75634765625
17.2099999,-9.847352027893066,-0.3902548849582672,1.1779472827911377,-4.913330078125,1.220703125,16.1285400390625
17.2299999,-9.837775230407715,-0.28969839215278625,1.1875240802764893,-5.5694580078125,2.9144287109375,19.95849609375
17.249999900000002,-9.856928825378418,-0.11252748221158981,1.137245774269104,-5.3253173828125,5.462646484375,18.6309814453125
17.269999900000002,-9.84495735168457,0.17717093229293823,1.0462661981582642,-5.950927734375,6.4697265625,13.6260986328125
17.2899999,-9.861717224121094,0.5434837937355042,0.9217676520347595,-8.9263916015625,4.4403076171875,9.9334716796875
17.3099999,-9.895236015319824,0.7972691655158997,0.8307880163192749,-12.054443359375,3.6468505859375,10.8795166015625
17.3299999,-9.919178009033203,0.9217676520347595,0.7422025203704834,-14.0380859375,4.119873046875,8.758544921875
17.3499999,-9.976638793945312,0.8595184087753296,0.629675030708313,-10.009765625,2.4871826171875,-0.0152587890625
17.3699999,-9.981427192687988,0.8164227604866028,0.6248866319656372,-6.6375732421875,-0.4119873046875,-2.7618408203125
17.3899999,-9.962273597717285,0.8164227604866028,0.667982280254364,-7.3089599609375,2.1209716796875,-1.15966796875
17.409999900000003,-9.938331604003906,0.8164227604866028,0.751779317855835,-11.2457275390625,3.5858154296875,-1.5106201171875
17.429999900000002,-9.9000244140625,0.811634361743927,0.8690952062606812,-14.95361328125,5.218505859375,-3.5552978515625
17.4499999,-9.86650562286377,0.7805097699165344,0.9433154463768005,-18.24951171875,7.8887939453125,-5.767822265625
17.4699999,-9.861717224121094,0.6847416758537292,0.9409212470054626,-20.904541015625,8.880615234375,-6.53076171875
17.4899999,-9.885659217834473,0.5123591423034668,0.8690952062606812,-19.622802734375,8.087158203125,-5.035400390625
17.5099999,-9.931148529052734,0.3064578175544739,0.7398083209991455,-14.4195556640625,6.7596435546875,-3.11279296875
17.5299999,-9.971850395202637,0.043095629662275314,0.5913678407669067,-8.2244873046875,4.852294921875,-1.89208984375
17.5499999,-10.007762908935547,-0.16998831927776337,0.4836287498474121,-2.471923828125,3.9520263671875,0.823974609375
17.5699999,-10.007762908935547,-0.3256114423274994,0.40462008118629456,3.7994384765625,3.2806396484375,4.8828125
17.589999900000002,-10.019734382629395,-0.3423708379268646,0.3758896589279175,8.7127685546875,1.678466796875,5.828857421875
17.609999900000002,-9.979032516479492,-0.18914192914962769,0.4141969084739685,10.040283203125,0.6866455078125,5.096435546875
17.6299999,-9.955090522766113,0.09816227108240128,0.4836287498474121,4.3182373046875,1.068115234375,5.4168701171875
17.6499999,-9.921571731567383,0.45010992884635925,0.6200982332229614,-3.8909912109375,3.23486328125,4.241943359375
17.6699999,-9.876082420349121,0.7829039692878723,0.7613561153411865,-11.0321044921875,5.9967041015625,1.3885498046875
17.6899999,-9.897629737854004,0.933738648891449,0.7757213711738586,-15.1214599609375,7.354736328125,-1.28173828125
17.7099999,-9.96945571899414,0.8882488012313843,0.6248866319656372,-10.2996826171875,4.425048828125,-2.62451171875
17.7299999,-9.988609313964844,0.7445967197418213,0.3711012601852417,2.5482177734375,-1.129150390625,-2.9449462890625
17.749999900000002,-10.08437728881836,0.4620809257030487,0.05985504388809204,12.8021240234375,-6.5765380859375,-2.6702880859375
17.769999900000002,-10.072406768798828,0.2537853717803955,-0.10773907601833344,15.167236328125,-9.5062255859375,-1.190185546875
17.7899999,-10.072406768798828,0.09816227108240128,-0.15083470940589905,14.404296875,-11.871337890625,1.5411376953125
17.8099999,-10.02691650390625,0.0694318488240242,0.043095629662275314,13.00048828125,-12.6800537109375,3.0670166015625
17.8299999,-10.04846477508545,0.07422025501728058,0.22744916379451752,11.2457275390625,-13.4735107421875,3.1890869140625
17.8499999,-10.031704902648926,0.20350714027881622,0.4908113479614258,10.8489990234375,-14.8162841796875,0.5950927734375
17.8699999,-10.019734382629395,0.395043283700943,0.7829039692878723,11.688232421875,-12.786865234375,-0.48828125
17.8899999,-9.93354320526123,0.6033388376235962,1.0462661981582642,7.5836181640625,-10.284423828125,-1.373291015625
17.909999900000003,-9.854534149169922,0.8212111592292786,1.292868971824646,-0.54931640625,-2.410888671875,-2.899169921875
17.929999900000002,-9.775525093078613,0.912190854549408,1.4772224426269531,-7.7972412109375,1.1444091796875,-4.730224609375
17.9499999,-9.761159896850586,0.9145850539207458,1.5490485429763794,-12.115478515625,2.4871826171875,-5.523681640625
17.9699999,-9.78989028930664,0.7805097699165344,1.5658079385757446,-14.83154296875,5.2947998046875,-5.7830810546875
17.9899999,-9.780313491821289,0.608127236366272,1.4891934394836426,-19.34814453125,7.843017578125,-4.1046142578125
18.0099999,-9.849745750427246,0.38307225704193115,1.3120225667953491,-19.4244384765625,11.7645263671875,-2.044677734375
18.0299999,-9.849745750427246,0.2322375625371933,1.048660397529602,-12.1917724609375,9.5977783203125,0.1678466796875
18.0499999,-9.947908401489258,0.014365210197865963,0.7254431247711182,-4.8370361328125,2.2430419921875,1.4495849609375
18.0699999,-10.019734382629395,-0.10055647045373917,0.40462008118629456,2.0294189453125,0.0152587890625,-0.4119873046875
18.089999900000002,-10.043676376342773,-0.11971008777618408,0.23702596127986908,6.439208984375,-1.40380859375,0.1373291015625
18.109999900000002,-10.096348762512207,-0.06224924325942993,0.17956513166427612,9.124755859375,-3.936767578125,0.9918212890625
18.1299999,-10.043676376342773,0.17717093229293823,0.2753331959247589,8.9111328125,-4.241943359375,0.48828125
18.1499999,-10.000580787658691,0.4141969084739685,0.4836287498474121,3.4942626953125,-4.39453125,-1.129150390625
18.1699999,-9.974244117736816,0.6416460275650024,0.7158663272857666,-2.6092529296875,-2.01416015625,-5.1116943359375
18.1899999,-9.885659217834473,0.7469909191131592,0.9528923034667969,-7.568359375,-1.8310546875,-4.5013427734375
18.2099999,-9.854534149169922,0.7086837291717529,1.0845733880996704,-10.92529296875,1.373291015625,-3.5858154296875
18.2299999,-9.859322547912598,0.5937620401382446,1.1659762859344482,-8.9569091796875,4.974365234375,-1.220703125
18.249999900000002,-9.871294021606445,0.45250412821769714,1.1228805780410767,-7.6446533203125,3.2196044921875,-1.8310546875
18.269999900000002,-9.897629737854004,0.31364041566848755,1.0582371950149536,-7.6141357421875,1.15966796875,-5.2642822265625
18.2899999,-9.971850395202637,0.20350714027881622,0.912190854549408,-4.9285888671875,1.190185546875,-4.791259765625
18.3099999,-9.914389610290527,0.10055647045373917,0.8236053586006165,-1.617431640625,-0.0152587890625,-3.326416015625
18.3299999,-9.971850395202637,0,0.7015010714530945,2.3956298828125,1.1138916015625,-2.685546875
18.3499999,-9.964667320251465,0,0.6584054827690125,6.16455078125,-0.79345703125,-0.6561279296875
18.3699999,-9.955090522766113,0.05506663769483566,0.6703764796257019,6.34765625,-1.434326171875,-2.13623046875
18.3899999,-10.02691650390625,0.13407529890537262,0.6943184733390808,2.9144287109375,0.0457763671875,-5.0201416015625
18.409999900000003,-9.940725326538086,0.24420857429504395,0.8331822156906128,-2.838134765625,1.1444091796875,-1.953125
18.429999900000002,-9.940725326538086,0.304063618183136,0.9409212470054626,-7.3394775390625,3.997802734375,-1.922607421875
18.4499999,-9.892841339111328,0.33518823981285095,1.048660397529602,-5.7830810546875,5.523681640625,-1.495361328125
18.4699999,-9.90241813659668,0.3256114423274994,1.0893617868423462,-6.8511962890625,3.662109375,0.30517578125
18.4899999,-9.904812812805176,0.35673606395721436,1.0821791887283325,-9.796142578125,4.8370361328125,-3.265380859375
18.5099999,-9.923966407775879,0.2968810200691223,1.015141487121582,-11.53564453125,5.4931640625,-3.7841796875
18.5299999,-9.952696800231934,0.24181437492370605,0.9050082564353943,-11.7340087890625,7.0648193359375,-2.4566650390625
18.5499999,-9.952696800231934,0.1604115068912506,0.7469909191131592,-6.6070556640625,6.5765380859375,-3.4332275390625
18.5699999,-9.967061996459961,0.05985504388809204,0.608127236366272,1.7242431640625,3.4942626953125,-2.716064453125
18.589999900000002,-9.998186111450195,-0.035913024097681046,0.49320554733276367,5.37109375,1.5106201171875,-2.44140625
18.609999900000002,-9.998186111450195,-0.043095629662275314,0.47884035110473633,5.9661865234375,2.716064453125,-2.685546875
18.6299999,-9.911994934082031,0.038307227194309235,0.5674257874488831,1.739501953125,1.800537109375,-0.9765625
18.6499999,-9.907206535339355,0.11013327538967133,0.6607996821403503,-6.5460205078125,2.7313232421875,-1.28173828125
18.6699999,-9.880870819091797,0.181959331035614,0.7158663272857666,-8.6822509765625,5.035400390625,-0.9765625
18.6899999,-9.959878921508789,0.19632454216480255,0.7206547260284424,-6.072998046875,1.800537109375,1.495361328125
18.7099999,-10.0580415725708,0.1388636976480484,0.6392518281936646,-4.5928955078125,-0.5340576171875,-2.1820068359375
18.7299999,-10.065223693847656,0.12449848651885986,0.6057330369949341,-3.173828125,-0.6256103515625,-4.45556640625
18.749999900000002,-10.034099578857422,0.05746084079146385,0.5315127968788147,-2.8228759765625,0.6561279296875,-1.6632080078125
18.769999900000002,-9.983820915222168,0.004788403399288654,0.4836287498474121,1.708984375,-1.3427734375,-1.4495849609375
18.7899999,-9.892841339111328,-0.05506663769483566,0.49799394607543945,7.415771484375,-3.662109375,-0.8697509765625
18.8099999,-9.931148529052734,-0.0933738648891449,0.5793967843055725,4.241943359375,-3.7384033203125,1.739501953125
18.8299999,-9.916783332824707,0,0.7852981686592102,-5.4931640625,1.556396484375,0.6103515625
18.8499999,-9.9000244140625,0.09576806426048279,1.0630255937576294,-16.0064697265625,3.3721923828125,2.2735595703125
18.8699999,-9.897629737854004,0.2561795711517334,1.2258312702178955,-22.7813720703125,8.2244873046875,1.190185546875
18.8899999,-9.84256362915039,0.35913026332855225,1.3335703611373901,-25.1922607421875,14.3280029296875,2.166748046875
18.909999900000003,-9.813833236694336,0.4836287498474121,1.3742717504501343,-32.5927734375,13.48876953125,2.0904541015625
18.929999900000002,-9.770736694335938,0.5482721924781799,1.3239935636520386,-45.745849609375,17.4102783203125,-1.2359619140625
18.9499999,-9.830592155456543,0.5147533416748047,1.2066776752471924,-52.2308349609375,24.47509765625,-1.77001953125
18.9699999,-9.804255485534668,0.3998316824436188,0.9097966551780701,-45.7763671875,23.5595703125,-1.2054443359375
18.9899999,-9.947908401489258,0.0071826050989329815,0.3064578175544739,-26.06201171875,17.4560546875,-2.3193359375
19.0099999,-10.086771965026855,-0.38307225704193115,-0.3734954595565796,9.521484375,6.4849853515625,-0.946044921875
19.0299999,-10.251971244812012,-0.7661445140838623,-1.0414776802062988,39.7186279296875,-8.7432861328125,2.410888671875
19.0499999,-10.359710693359375,-0.849941611289978,-1.3072341680526733,52.581787109375,-16.41845703125,-1.617431640625
19.0699999,-10.405200958251953,-0.6392518281936646,-1.2042834758758545,47.9278564453125,-17.5323486328125,-1.3275146484375
19.089999900000002,-10.254365921020508,-0.21787235140800476,-0.7254431247711182,34.0118408203125,-17.02880859375,0.152587890625
19.109999900000002,-10.137049674987793,0.2585737705230713,-0.10295066982507706,23.13232421875,-15.5487060546875,-3.5552978515625
19.1299999,-9.964667320251465,0.6009446382522583,0.4692635238170624,17.9901123046875,-16.6168212890625,-3.60107421875
19.1499999,-9.859322547912598,0.7086837291717529,0.912190854549408,12.908935546875,-14.1448974609375,-2.50244140625
19.1699999,-9.782708168029785,0.6631938815116882,1.256955862045288,3.143310546875,-8.453369140625,-5.828857421875
19.1899999,-9.758766174316406,0.4189853072166443,1.3910311460494995,-7.4005126953125,-3.8299560546875,-3.204345703125
19.2099999,-9.773131370544434,0.08858546614646912,1.381454348564148,-8.11767578125,-3.1890869140625,0.213623046875
19.2299999,-9.84495735168457,-0.2106897532939911,1.2066776752471924,2.0294189453125,-3.7078857421875,3.5247802734375
19.249999900000002,-9.9000244140625,-0.3926490843296051,1.0079588890075684,8.514404296875,-4.08935546875,7.3699951171875
19.269999900000002,-9.938331604003906,-0.3734954595565796,0.8619126081466675,3.997802734375,-1.3275146484375,3.143310546875
19.2899999,-9.947908401489258,-0.17238251864910126,0.8307880163192749,-2.960205078125,1.0833740234375,3.4027099609375
19.3099999,-9.938331604003906,0.06703764945268631,0.8403648138046265,-6.500244140625,1.3427734375,3.4942626953125
19.3299999,-9.93354320526123,0.2777273952960968,0.811634361743927,-4.1351318359375,-2.3345947265625,0.335693359375
19.3499999,-9.979032516479492,0.33279404044151306,0.7254431247711182,1.5716552734375,-5.43212890625,3.631591796875
19.3699999,-9.983820915222168,0.3758896589279175,0.6416460275650024,6.65283203125,-3.6773681640625,-0.8392333984375
19.3899999,-10.012551307678223,0.29209262132644653,0.6009446382522583,3.90625,-4.0740966796875,-3.448486328125
19.409999900000003,-10.014945983886719,0.24420857429504395,0.6057330369949341,1.1444091796875,-2.166748046875,-0.244140625
19.429999900000002,-9.945513725280762,0.2059013396501541,0.7469909191131592,3.0670166015625,-4.1046142578125,-1.3580322265625
19.4499999,-9.921571731567383,0.21308395266532898,0.9696516990661621,0.1678466796875,-3.509521484375,-0.3814697265625
19.4699999,-9.828198432922363,0.304063618183136,1.2617442607879639,-11.1541748046875,5.55419921875,-1.8157958984375
19.4899999,-9.775525093078613,0.395043283700943,1.5490485429763794,-25.3143310546875,11.3983154296875,-1.46484375
19.5099999,-9.828198432922363,0.3878606855869293,1.6208745241165161,-32.16552734375,14.83154296875,-1.708984375
19.5299999,-9.773131370544434,0.3232172429561615,1.5275006294250488,-28.0609130859375,14.6484375,-0.7171630859375
19.5499999,-9.897629737854004,0.09576806426048279,1.173158884048462,-21.5301513671875,10.8795166015625,0.67138671875
19.5699999,-9.916783332824707,-0.10295066982507706,0.7829039692878723,-14.0228271484375,8.026123046875,-0.3662109375
19.589999900000002,-9.967061996459961,-0.28969839215278625,0.29209262132644653,-2.655029296875,3.72314453125,1.2664794921875
19.609999900000002,-10.093954086303711,-0.44532153010368347,-0.08140286058187485,7.50732421875,-1.434326171875,1.312255859375
19.6299999,-10.110713958740234,-0.40701428055763245,-0.3064578175544739,17.303466796875,-8.30078125,0.6256103515625
19.6499999,-10.177751541137695,-0.3758896589279175,-0.4118026793003082,20.1263427734375,-9.735107421875,5.7373046875
19.6699999,-10.120290756225586,-0.12210428714752197,-0.09576806426048279,21.6827392578125,-14.6484375,0.885009765625
19.6899999,-10.077195167541504,0.11971008777618408,0.304063618183136,15.56396484375,-12.6495361328125,-0.6866455078125
19.7099999,-10.000580787658691,0.33997663855552673,0.8020575642585754,3.6773681640625,-3.1585693359375,-0.396728515625
19.7299999,-9.955090522766113,0.4812345504760742,1.1516109704971313,2.9754638671875,-3.0364990234375,-2.8533935546875
19.749999900000002,-9.919178009033203,0.5291185975074768,1.3551181554794312,7.3394775390625,-4.1656494140625,-1.556396484375
19.769999900000002,-9.873687744140625,0.42616790533065796,1.292868971824646,10.009765625,-4.1046142578125,-2.655029296875
19.7899999,-9.825803756713867,0.40940847992897034,1.3503297567367554,7.1563720703125,-2.3040771484375,-6.072998046875
19.8099999,-9.794678688049316,0.21547815203666687,1.2018892765045166,-2.8076171875,3.41796875,-1.9378662109375
19.8299999,-9.840168952941895,0.090979665517807,1.0414776802062988,-1.1749267578125,2.8228759765625,-1.556396484375
19.8499999,-9.916783332824707,-0.028730420395731926,0.8547300100326538,10.9100341796875,-4.21142578125,-2.166748046875
19.8699999,-9.962273597717285,-0.09576806426048279,0.6775590777397156,14.6484375,-5.035400390625,1.007080078125
19.8899999,-9.971850395202637,-0.0071826050989329815,0.8523358106613159,5.2642822265625,-2.5634765625,-2.0599365234375
19.909999900000003,-9.904812812805176,0.13168109953403473,1.0845733880996704,-15.1214599609375,6.8817138671875,-0.335693359375
19.929999900000002,-9.892841339111328,0.1843535304069519,1.2545616626739502,-25.482177734375,12.4053955078125,0.67138671875
19.9499999,-9.923966407775879,0.15562310814857483,1.192312479019165,-13.214111328125,4.119873046875,-0.2593994140625
19.9699999,-9.998186111450195,-0.0454898327589035,0.7781155705451965,8.0718994140625,-5.6304931640625,0.457763671875
19.9899999,-10.08437728881836,-0.1867477297782898,0.38307225704193115,26.9927978515625,-10.0860595703125,-1.678466796875
20.0099999,-10.093954086303711,-0.304063618183136,0.08858546614646912,33.3099365234375,-13.7176513671875,-1.0528564453125
20.0299999,-10.091560363769531,-0.1867477297782898,0.08140286058187485,32.16552734375,-12.7105712890625,-1.40380859375
20.0499999,-9.988609313964844,0.0454898327589035,0.395043283700943,26.519775390625,-14.2059326171875,-3.2196044921875
