# Time (seconds),Accel_X,Accel_Y,Accel_Z,Gyro_X,Gyro_Y,Gyro_Z
0.0099999,-7.795520782470703,-5.916072368621826,0.3495534360408783,-27.0538330078125,4.669189453125,97.6715087890625
0.029999900000000003,-8.106766700744629,-5.559336185455322,0.14365209639072418,-25.7110595703125,-5.6915283203125,93.536376953125
0.0499999,-8.4108304977417,-5.197812080383301,-0.05985504388809204,-24.6734619140625,-8.85009765625,89.2181396484375
0.0699999,-8.719682693481445,-4.838681697845459,-0.2585737705230713,-24.9481201171875,-15.0146484375,86.0748291015625
0.08999990000000001,-8.999804496765137,-4.51067590713501,-0.395043283700943,-23.162841796875,-32.012939453125,77.9266357421875
0.10999990000000001,-9.20091724395752,-4.280832767486572,-0.47165772318840027,-21.0723876953125,-42.724609375,67.5811767578125
0.1299999,-9.342175483703613,-4.127603530883789,-0.507570743560791,-20.233154296875,-41.290283203125,60.7452392578125
0.14999990000000002,-9.411606788635254,-4.055777549743652,-0.4692635238170624,-17.333984375,-38.1317138671875,54.168701171875
0.1699999,-9.47146224975586,-4.072536945343018,-0.4213795065879822,-13.4124755859375,-35.46142578125,45.10498046875
0.1899999,-9.593565940856934,-4.07014274597168,-0.36152446269989014,-12.2833251953125,-35.5987548828125,39.642333984375
0.20999990000000002,-9.694122314453125,-3.9911341667175293,-0.26815059781074524,-14.16015625,-41.839599609375,38.5894775390625
0.2299999,-9.622296333312988,-3.8522706031799316,-0.07422025501728058,-17.51708984375,-46.69189453125,37.0330810546875
0.2499999,-9.399636268615723,-3.648763418197632,0.181959331035614,-21.8505859375,-35.64453125,37.078857421875
0.2699999,-9.062053680419922,-3.40216064453125,0.45010992884635925,-26.2298583984375,-16.571044921875,43.8995361328125
0.28999990000000003,-8.700529098510742,-3.1244332790374756,0.6775590777397156,-28.6407470703125,-6.8206787109375,55.0079345703125
0.3099999,-8.487444877624512,-2.8227639198303223,0.7876923680305481,-29.9835205078125,-6.591796875,64.7735595703125
0.3299999,-8.544905662536621,-2.4612393379211426,0.7709329724311829,-30.2886962890625,-7.904052734375,72.601318359375
0.34999990000000003,-8.856152534484863,-2.0470423698425293,0.6799532771110535,-29.266357421875,-11.322021484375,71.35009765625
0.3699999,-9.320627212524414,-1.6855180263519287,0.569819986820221,-27.4200439453125,-14.2822265625,60.4705810546875
0.3899999,-9.861717224121094,-1.3766659498214722,0.47165772318840027,-25.848388671875,-15.0909423828125,49.9725341796875
0.40999990000000003,-10.319009780883789,-1.1875240802764893,0.395043283700943,-22.918701171875,-8.7127685546875,36.5753173828125
0.4299999,-10.620678901672363,-1.1516109704971313,0.31603461503982544,-17.1051025390625,2.74658203125,19.6990966796875
0.4499999,-10.740388870239258,-1.2258312702178955,0.22266076505184174,-10.345458984375,4.7607421875,11.2762451171875
0.4699999,-10.709263801574707,-1.359906554222107,0.12210428714752197,-5.0811767578125,-4.57763671875,13.6566162109375
0.4899999,-10.551246643066406,-1.4915876388549805,0.047884032130241394,-0.4730224609375,-15.899658203125,18.310546875
0.5099999,-10.280701637268066,-1.556231141090393,0.047884032130241394,3.509521484375,-24.932861328125,22.9034423828125
0.5299999,-9.974244117736816,-1.4915876388549805,0.1412578970193863,5.9661865234375,-28.3203125,30.1361083984375
0.5499999,-9.648633003234863,-1.316810965538025,0.30885201692581177,6.6070556640625,-25.69580078125,36.9873046875
0.5699999,-9.387664794921875,-1.048660397529602,0.5339069962501526,5.2642822265625,-23.8037109375,42.0989990234375
0.5899998999999999,-9.253589630126953,-0.706289529800415,0.7805097699165344,1.64794921875,-21.17919921875,43.731689453125
0.6099998999999999,-9.253589630126953,-0.3519476354122162,1.0127472877502441,-3.4027099609375,-15.5792236328125,40.4052734375
0.6299999,-9.366117477416992,-0.033518824726343155,1.2066776752471924,-9.1400146484375,-8.880615234375,36.6363525390625
0.6499999,-10.077195167541504,0.2537853717803955,1.3335703611373901,-14.1754150390625,-0.518798828125,32.9742431640625
0.6699999,-10.51054573059082,0.31364041566848755,1.2952631711959839,-17.2576904296875,3.8909912109375,4.730224609375
0.6899999,-11.322179794311523,0.12689268589019775,0.9361328482627869,-12.0391845703125,-2.5482177734375,11.7950439453125
0.7099999,-11.17852783203125,-0.06464344263076782,0.7254431247711182,-4.69970703125,-4.974365234375,11.993408203125
0.7299998999999999,-10.630255699157715,-0.21308395266532898,0.5841852426528931,0.9307861328125,-7.5531005859375,11.505126953125
0.7499998999999999,-10.199298858642578,-0.33039984107017517,0.569819986820221,1.7547607421875,-9.674072265625,12.298583984375
0.7699999,-9.923966407775879,-0.42377370595932007,0.6607996821403503,0.152587890625,-11.04736328125,11.6424560546875
0.7899999,-9.696516990661621,-0.36152446269989014,0.828393816947937,-0.640869140625,-12.39013671875,10.7879638671875
0.8099999,-9.696516990661621,-0.19632454216480255,1.0247182846069336,-0.1678466796875,-9.3536376953125,16.815185546875
0.8299999,-9.655815124511719,0.11013327538967133,1.1875240802764893,-1.3275146484375,-8.3465576171875,14.16015625
0.8499998999999999,-9.6989107131958,0.4668693244457245,1.3024457693099976,-2.9296875,-8.2855224609375,10.7421875
0.8699998999999999,-9.770736694335938,0.8020575642585754,1.3934253454208374,-2.6702880859375,-7.5225830078125,7.26318359375
0.8899999,-9.770736694335938,1.0558429956436157,1.41257905960083,-2.6092529296875,-6.3323974609375,1.800537109375
0.9099999,-9.787496566772461,1.2258312702178955,1.3958195447921753,-2.5634765625,-6.103515625,-3.204345703125
0.9299999,-9.801861763000488,1.2737152576446533,1.3407529592514038,-0.6256103515625,-7.659912109375,-7.4920654296875
0.9499999,-9.81143856048584,1.2210428714752197,1.2689268589019775,2.3956298828125,-9.2926025390625,-11.016845703125
0.9699998999999999,-9.847352027893066,1.0271124839782715,1.2234370708465576,5.2642822265625,-9.8724365234375,-14.1754150390625
0.9899998999999999,-9.8784761428833,0.727837324142456,1.2282254695892334,8.0413818359375,-10.1776123046875,-14.5721435546875
1.0099999,-9.897629737854004,0.363918662071228,1.3215993642807007,11.3983154296875,-10.8642578125,-11.9781494140625
1.0299999,-9.904812812805176,0.004788403399288654,1.4987702369689941,12.39013671875,-9.5672607421875,-8.575439453125
1.0499999,-9.888052940368652,-0.2825157940387726,1.7094600200653076,9.918212890625,-5.462646484375,-5.4931640625
1.0699999,-9.86650562286377,-0.45250412821769714,1.9129672050476074,7.0037841796875,-1.64794921875,-1.9989013671875
1.0899999,-9.832986831665039,-0.48602294921875,2.0614075660705566,3.96728515625,0.8087158203125,1.6937255859375
1.1099999,-9.806650161743164,-0.38546648621559143,2.1068975925445557,-1.617431640625,4.119873046875,4.08935546875
1.1299999,-9.785101890563965,-0.15562310814857483,2.0374655723571777,-7.0648193359375,7.1868896484375,3.72314453125
1.1499999,-9.794678688049316,0.12689268589019775,1.8962076902389526,-8.575439453125,7.3699951171875,1.708984375
1.1699998999999999,-9.792284965515137,0.43095630407333374,1.699883222579956,-7.8582763671875,5.9356689453125,-0.5340576171875
1.1899998999999999,-9.813833236694336,0.6703764796257019,1.4772224426269531,-6.0272216796875,4.791259765625,-3.753662109375
1.2099999,-9.849745750427246,0.790086567401886,1.237802267074585,-0.91552734375,2.685546875,-8.8348388671875
1.2299999,-9.883264541625977,0.7829039692878723,1.0654197931289673,6.2713623046875,-1.739501953125,-12.0391845703125
1.2499999,-9.919178009033203,0.6416460275650024,0.9840168952941895,9.27734375,-5.3558349609375,-12.115478515625
1.2699999,-9.938331604003906,0.3711012601852417,1.0247182846069336,7.2479248046875,-4.8828125,-10.7269287109375
1.2899999,-9.923966407775879,0.043095629662275314,1.1755530834197998,5.0048828125,-3.448486328125,-8.575439453125
1.3099999,-9.890447616577148,-0.26815059781074524,1.4101848602294922,4.5928955078125,-3.11279296875,-4.8065185546875
1.3299999,-9.852140426635742,-0.47884035110473633,1.6903064250946045,1.678466796875,-0.48828125,-0.4730224609375
1.3499999,-9.823410034179688,-0.5722141861915588,1.9249382019042969,-5.340576171875,5.6610107421875,2.4261474609375
1.3699999,-9.813833236694336,-0.5267243981361389,2.0638017654418945,-10.589599609375,9.7503662109375,4.0435791015625
1.3899999,-9.830592155456543,-0.3974374830722809,2.011129379272461,-11.4898681640625,9.33837890625,5.5084228515625
1.4099999,-9.849745750427246,-0.21787235140800476,1.7549498081207275,-9.765625,6.65283203125,6.5155029296875
1.4299998999999999,-9.895236015319824,-0.05506663769483566,1.3407529592514038,-5.55419921875,2.44140625,5.126953125
1.4499999,-9.964667320251465,0.0694318488240242,0.9217676520347595,1.678466796875,-4.119873046875,2.5482177734375
1.4699999,-10.02691650390625,0.15801730751991272,0.6655880808830261,8.6822509765625,-10.6658935546875,1.8768310546875
1.4899999,-10.053253173828125,0.17717093229293823,0.6248866319656372,10.68115234375,-12.6495361328125,2.4261474609375
1.5099999,-10.019734382629395,0.17238251864910126,0.790086567401886,10.162353515625,-12.054443359375,2.01416015625
1.5299999,-9.926360130310059,0.1604115068912506,1.139639973640442,10.284423828125,-11.6729736328125,1.373291015625
1.5499999,-9.813833236694336,0.17717093229293823,1.5921441316604614,6.3018798828125,-8.1787109375,2.3193359375
1.5699999,-9.718064308166504,0.22505496442317963,2.0638017654418945,-3.173828125,-0.48828125,3.4942626953125
1.5899999,-9.66539192199707,0.2561795711517334,2.4420857429504395,-11.199951171875,7.293701171875,3.204345703125
1.6099999,-9.624691009521484,0.29209262132644653,2.693476915359497,-15.2587890625,12.3443603515625,3.4942626953125
1.6299999,-9.612719535827637,0.3758896589279175,2.806004285812378,-22.5982666015625,16.9525146484375,5.157470703125
1.6499999,-9.646238327026367,0.3687070608139038,2.7533318996429443,-39.2608642578125,26.6265869140625,4.241943359375
1.6699999,-9.643844604492188,0.4118026793003082,2.3942017555236816,-40.0543212890625,29.8614501953125,1.6021728515625
1.6899998999999999,-9.768342971801758,0.28730419278144836,1.8626888990402222,-22.3236083984375,23.1781005859375,1.4190673828125
1.7099999,-9.86889934539795,0.1843535304069519,1.1324573755264282,0.2288818359375,11.8560791015625,0.823974609375
1.7299999,-10.062829971313477,0.002394201699644327,0.38546648621559143,20.4620361328125,1.0223388671875,-0.946044921875
1.7499999,-10.201693534851074,-0.06703764945268631,-0.08858546614646912,34.3017578125,-7.7667236328125,-0.335693359375
1.7699999,-10.251971244812012,-0.028730420395731926,-0.26575639843940735,36.163330078125,-17.2119140625,1.0986328125
1.7899999,-10.153809547424316,0.1149216815829277,-0.019153613597154617,27.374267578125,-20.93505859375,-3.3721923828125
1.8099999,-9.971850395202637,0.2585737705230713,0.47165772318840027,15.7318115234375,-15.0909423828125,-7.537841796875
1.8299999,-9.80904483795166,0.33039984107017517,1.1803414821624756,9.4451904296875,-6.0882568359375,-7.87353515625
1.8499999,-9.684545516967773,0.3471592366695404,1.843535304069519,7.110595703125,0.244140625,-3.570556640625
1.8699999,-9.627084732055664,0.26336219906806946,2.3271639347076416,0.274658203125,6.1798095703125,0.1373291015625
1.8899999,-9.624691009521484,0.19393034279346466,2.497152328491211,-6.500244140625,12.4969482421875,2.0599365234375
1.9099999,-9.710882186889648,0.15322890877723694,2.382230758666992,-7.781982421875,11.71875,4.21142578125
1.9299998999999999,-9.799467086791992,0.1149216815829277,2.0015525817871094,-7.598876953125,5.2947998046875,4.7760009765625
1.9499999,-9.938331604003906,0.021547814831137657,1.4939818382263184,-5.401611328125,1.2969970703125,2.0751953125
1.9699999,-10.0580415725708,-0.033518824726343155,0.8834604024887085,2.25830078125,-1.8768310546875,-0.5950927734375
1.9899999,-10.101137161254883,-0.10055647045373917,0.4884171485900879,12.0086669921875,-7.8125,1.2664794921875
2.0099999,-10.086771965026855,-0.08379705995321274,0.2537853717803955,16.05224609375,-15.106201171875,3.4942626953125
2.0299999,-10.019734382629395,0.0933738648891449,0.31364041566848755,14.9993896484375,-17.1356201171875,3.509521484375
2.0499999,-10.022128105163574,0.2585737705230713,0.5770025849342346,14.1143798828125,-17.9901123046875,3.3721923828125
2.0699999,-9.923966407775879,0.48602294921875,1.0199298858642578,12.359619140625,-22.5830078125,1.617431640625
2.0899999,-9.86650562286377,0.6584054827690125,1.5059528350830078,6.3018798828125,-20.660400390625,-3.4942626953125
2.1099999,-9.715670585632324,0.7398083209991455,1.9273324012756348,-0.91552734375,-11.1846923828125,-8.8043212890625
2.1299999,-9.658209800720215,0.6703764796257019,2.3080103397369385,-5.096435546875,-1.251220703125,-7.598876953125
2.1499999,-9.59596061706543,0.586579442024231,2.5115175247192383,-6.805419921875,1.068115234375,-4.7607421875
2.1699999,-9.593565940856934,0.33039984107017517,2.559401512145996,-8.60595703125,4.2877197265625,-1.2969970703125
2.1899999,-9.682151794433594,0.17717093229293823,2.451662540435791,-7.171630859375,7.1563720703125,1.5716552734375
2.2099999,-9.768342971801758,-0.05027823522686958,2.255337953567505,-1.46484375,2.6397705078125,2.74658203125
2.2299999,-9.81143856048584,-0.1173158809542656,2.0159177780151367,1.77001953125,-0.946044921875,-0.79345703125
2.2499999,-9.856928825378418,-0.20350714027881622,1.7884687185287476,-0.9307861328125,3.173828125,-1.8463134765625
2.2699999,-9.856928825378418,-0.14844051003456116,1.5921441316604614,-3.662109375,9.185791015625,2.044677734375
2.2899999,-9.871294021606445,-0.07661445438861847,1.4389152526855469,-2.4261474609375,5.859375,4.08935546875
2.3099999,-9.823410034179688,0.10295066982507706,1.3551181554794312,0.3204345703125,1.3275146484375,3.326416015625
2.3299999,-9.885659217834473,0.30885201692581177,1.2761094570159912,1.8310546875,0.4730224609375,3.7689208984375
2.3499999,-9.883264541625977,0.47884035110473633,1.359906554222107,3.4942626953125,-3.4637451171875,1.8463134765625
2.3699999,-9.832986831665039,0.5793967843055725,1.4532804489135742,4.5013427734375,-6.53076171875,-5.92041015625
2.3899999,-9.801861763000488,0.569819986820221,1.6208745241165161,2.1820068359375,-1.77001953125,-9.8419189453125
2.4099999,-9.768342971801758,0.4812345504760742,1.867477297782898,-4.2266845703125,6.744384765625,-6.04248046875
2.4299999,-9.727641105651855,0.35913026332855225,2.0661959648132324,-13.2904052734375,11.4898681640625,-1.7547607421875
2.4499999,-9.713275909423828,0.2106897532939911,2.118868589401245,-17.730712890625,13.3514404296875,-1.0833740234375
2.4699999,-9.794678688049316,0.09816227108240128,1.9584569931030273,-12.26806640625,11.7950439453125,2.288818359375
2.4899999,-9.86889934539795,-0.090979665517807,1.6711528301239014,-1.220703125,1.0833740234375,4.3792724609375
2.5099999,-9.931148529052734,-0.1628057211637497,1.3239935636520386,5.340576171875,-5.1116943359375,0.2593994140625
2.5299999,-9.955090522766113,-0.1867477297782898,1.0869675874710083,6.9580078125,-3.6468505859375,-3.90625
2.5499999,-9.947908401489258,-0.11971008777618408,1.0247182846069336,8.1787109375,-1.495361328125,-2.99072265625
2.5699999,-9.911994934082031,0.019153613597154617,1.0534487962722778,7.232666015625,-2.86865234375,1.6326904296875
2.5899999,-9.890447616577148,0.1364694982767105,1.216254472732544,1.4801025390625,-3.1585693359375,1.556396484375
2.6099999,-9.90241813659668,0.22266076505184174,1.359906554222107,-1.8768310546875,-0.946044921875,2.5482177734375
2.6299999,-9.892841339111328,0.3064578175544739,1.53707754611969,-0.7476806640625,-4.4708251953125,3.8909912109375
2.6499999,-9.883264541625977,0.29209262132644653,1.7166426181793213,-0.5645751953125,-7.6751708984375,2.716064453125
2.6699999,-9.835380554199219,0.2513911724090576,1.745373010635376,-1.9683837890625,-5.645751953125,-1.708984375
2.6899999,-9.794678688049316,0.14365209639072418,1.8315643072128296,0.5950927734375,-0.9613037109375,-3.3111572265625
2.7099999,-9.797073364257812,0.043095629662275314,1.800439715385437,5.4779052734375,1.2359619140625,1.6326904296875
2.7299999,-9.737217903137207,-0.004788403399288654,1.7549498081207275,4.8370361328125,-0.7171630859375,4.5013427734375
2.7499999,-9.804255485534668,0.10055647045373917,1.7693150043487549,-1.6632080078125,2.44140625,4.058837890625
2.7699999,-9.801861763000488,0.26815059781074524,1.7501614093780518,-5.035400390625,2.5787353515625,4.4708251953125
2.7899999,-9.849745750427246,0.4405331015586853,1.8124107122421265,-5.6915283203125,-1.8157958984375,4.119873046875
2.8099999,-9.86889934539795,0.48602294921875,1.7405846118927002,-4.150390625,-2.7923583984375,-1.6632080078125
2.8299999,-9.852140426635742,0.33518823981285095,1.6687586307525635,4.1351318359375,-3.1280517578125,-6.2255859375
2.8499999,-9.871294021606445,0.26336219906806946,1.5921441316604614,12.87841796875,-1.5411376953125,-3.6773681640625
2.8699999,-9.832986831665039,0.14604631066322327,1.6280571222305298,11.9476318359375,-1.953125,1.3275146484375
2.8899999,-9.847352027893066,0.26815059781074524,1.7070658206939697,0.7476806640625,3.5400390625,1.46484375
2.9099999,-9.782708168029785,0.3734954595565796,1.9129672050476074,-8.8348388671875,5.9967041015625,1.556396484375
2.9299999,-9.765948295593262,0.49799394607543945,2.049436569213867,-12.26806640625,3.9520263671875,1.1444091796875
2.9499999,-9.682151794433594,0.4429273009300232,2.164358377456665,-12.8936767578125,5.79833984375,-2.105712890625
2.9699999,-9.670180320739746,0.33039984107017517,2.073378562927246,-7.293701171875,8.8043212890625,-6.3323974609375
2.9899999,-9.708487510681152,0.1149216815829277,1.8842366933822632,5.4168701171875,9.3841552734375,-6.28662109375
3.0099999,-9.782708168029785,0.016759412363171577,1.625662922859192,14.8468017578125,5.279541015625,0
3.0299999,-9.856928825378418,-0.009576806798577309,1.403002142906189,12.3443603515625,5.4931640625,0
3.0499999,-9.945513725280762,0.10534487664699554,1.2880805730819702,1.8310546875,6.9732666015625,1.2969970703125
3.0699999,-9.907206535339355,0.3016694188117981,1.3239935636520386,-7.1868896484375,3.5247802734375,0.9307861328125
3.0899999,-9.952696800231934,0.40940847992897034,1.316810965538025,-9.002685546875,-0.4730224609375,-0.42724609375
3.1099999,-9.923966407775879,0.395043283700943,1.2425906658172607,-3.570556640625,-2.716064453125,-5.615234375
3.1299999,-9.962273597717285,0.28730419278144836,1.235408067703247,4.8675537109375,-3.6773681640625,-7.049560546875
3.1499999,-9.947908401489258,0.11013327538967133,1.1635819673538208,10.467529296875,-3.9215087890625,-2.44140625
3.1699999,-9.907206535339355,0.009576806798577309,1.3263877630233765,9.09423828125,-3.8299560546875,1.15966796875
3.1899999,-9.876082420349121,-0.019153613597154617,1.4748282432556152,0.701904296875,-0.701904296875,3.8909912109375
3.2099999,-9.80904483795166,0.026336219161748886,1.6927006244659424,-9.490966796875,-0.1220703125,5.2337646484375
3.2299999,-9.847352027893066,0.07422025501728058,1.8746598958969116,-15.9759521484375,-0.518798828125,6.2408447265625
3.2499999,-9.821015357971191,0.090979665517807,1.8363527059555054,-14.09912109375,-0.2899169921875,4.3487548828125
3.2699999,-9.823410034179688,0.026336219161748886,1.7405846118927002,-3.936767578125,-0.42724609375,-0.7781982421875
3.2899999,-9.837775230407715,0.05506663769483566,1.5275006294250488,7.87353515625,-1.0833740234375,-0.2593994140625
3.3099999,-9.8784761428833,0.0933738648891449,1.3239935636520386,14.892578125,-4.4708251953125,2.4871826171875
3.3299999000000002,-9.897629737854004,0.2082955539226532,1.2258312702178955,14.007568359375,-6.2255859375,4.1961669921875
3.3499999,-9.928754806518555,0.3998316824436188,1.2497732639312744,8.2244873046875,-6.0272216796875,3.1280517578125
3.3699999,-9.864110946655273,0.5123591423034668,1.338358759880066,3.90625,-9.2315673828125,0
3.3899999,-9.859322547912598,0.5722141861915588,1.5203180313110352,3.387451171875,-10.1776123046875,-0.701904296875
3.4099999,-9.78989028930664,0.5051765441894531,1.7118542194366455,5.6915283203125,-7.568359375,-3.936767578125
3.4299999,-9.727641105651855,0.3734954595565796,1.8938134908676147,7.354736328125,-3.2806396484375,-5.0506591796875
3.4499999,-9.713275909423828,0.26815059781074524,2.0685901641845703,6.9427490234375,2.4261474609375,-2.0904541015625
3.4699999,-9.636661529541016,0.17477671802043915,2.1475989818573,3.936767578125,3.7384033203125,-0.06103515625
3.4899999,-9.653421401977539,0.26096799969673157,2.2026655673980713,-2.3040771484375,5.9967041015625,1.922607421875
3.5099999,-9.708487510681152,0.2944868206977844,2.183511972427368,-8.148193359375,8.6822509765625,2.044677734375
3.5299999,-9.727641105651855,0.395043283700943,2.1140801906585693,-8.7738037109375,5.4931640625,-0.18310546875
3.5499999,-9.825803756713867,0.33279404044151306,1.944091796875,-4.425048828125,2.2430419921875,-0.3204345703125
3.5699999,-9.847352027893066,0.2561795711517334,1.764526605606079,1.495361328125,-0.335693359375,-2.62451171875
3.5899999,-9.871294021606445,0.08140286058187485,1.5921441316604614,4.638671875,0.42724609375,-3.6468505859375
3.6099999,-9.84256362915039,0.047884032130241394,1.53707754611969,2.2735595703125,4.33349609375,-1.8463134765625
3.6299999,-9.832986831665039,0.043095629662275314,1.522712230682373,-1.8310546875,7.7362060546875,1.15966796875
3.6499999,-9.806650161743164,0.181959331035614,1.5921441316604614,-5.67626953125,7.2174072265625,2.8533935546875
3.6699999,-9.840168952941895,0.31364041566848755,1.6089035272598267,-8.3465576171875,5.767822265625,4.2572021484375
3.6899999,-9.852140426635742,0.42856210470199585,1.5969325304031372,-9.857177734375,5.828857421875,3.387451171875
3.7099999,-9.883264541625977,0.47405192255973816,1.5083470344543457,-7.8125,2.2430419921875,0.335693359375
3.7299999,-9.909601211547852,0.4357447028160095,1.3455413579940796,-0.67138671875,-2.838134765625,-0.42724609375
3.7499999,-9.955090522766113,0.3280056416988373,1.235408067703247,8.1634521484375,-7.8125,-1.64794921875
3.7699999,-9.95748519897461,0.1843535304069519,1.1755530834197998,12.725830078125,-7.965087890625,-2.593994140625
3.7899999,-9.9000244140625,0.06703764945268631,1.280897855758667,10.528564453125,-4.08935546875,-2.44140625
3.8099999,-9.84495735168457,0.0694318488240242,1.53707754611969,4.486083984375,2.5177001953125,-0.0762939453125
3.8299999000000002,-9.765948295593262,0.1412578970193863,1.766920804977417,-2.7313232421875,5.2337646484375,2.3956298828125
3.8499999,-9.768342971801758,0.3064578175544739,1.9823989868164062,-9.82666015625,6.683349609375,4.2724609375
3.8699999,-9.773131370544434,0.44771572947502136,2.013523578643799,-13.6871337890625,7.6751708984375,3.7384033203125
3.8899999,-9.792284965515137,0.524330198764801,1.9057846069335938,-10.8795166015625,6.77490234375,1.0528564453125
3.9099999,-9.804255485534668,0.5051765441894531,1.6927006244659424,-3.35693359375,0.8544921875,-1.312255859375
3.9299999,-9.854534149169922,0.4118026793003082,1.4628572463989258,3.9520263671875,-3.8909912109375,-0.9307861328125
3.9499999,-9.885659217834473,0.28730419278144836,1.335964560508728,7.38525390625,-6.0272216796875,-0.9002685546875
3.9699999,-9.892841339111328,0.1628057211637497,1.3335703611373901,7.6446533203125,-5.0811767578125,-2.1820068359375
3.9899999,-9.847352027893066,0.12689268589019775,1.482010841369629,5.37109375,-2.838134765625,-2.8228759765625
4.0099999,-9.81143856048584,0.11013327538967133,1.6496049165725708,0.0457763671875,2.655029296875,-1.6937255859375
4.029999900000001,-9.770736694335938,0.16998831927776337,1.7693150043487549,-4.5166015625,6.2713623046875,1.4190673828125
4.0499999,-9.823410034179688,0.23942017555236816,1.843535304069519,-6.34765625,5.6610107421875,2.50244140625
4.069999900000001,-9.799467086791992,0.3447650372982025,1.7621324062347412,-5.645751953125,4.0740966796875,2.838134765625
4.0899999000000005,-9.864110946655273,0.40940847992897034,1.6950948238372803,-4.1656494140625,3.0517578125,1.495361328125
4.1099999,-9.84495735168457,0.43095630407333374,1.5514427423477173,-1.922607421875,2.1820068359375,-0.5340576171875
4.1299999000000005,-9.897629737854004,0.4189853072166443,1.4317326545715332,1.4801025390625,-2.01416015625,-1.861572265625
4.1499999,-9.9000244140625,0.3663128614425659,1.4077905416488647,5.0811767578125,-5.3253173828125,-1.312255859375
4.1699999000000005,-9.923966407775879,0.2585737705230713,1.41257905960083,6.34765625,-5.79833984375,-0.335693359375
4.1899999,-9.880870819091797,0.181959331035614,1.5442601442337036,4.08935546875,-3.5858154296875,-0.6561279296875
4.209999900000001,-9.84256362915039,0.10295066982507706,1.7046716213226318,0.9918212890625,0.0152587890625,-1.251220703125
4.2299999,-9.77791976928711,0.05746084079146385,1.8411411046981812,-2.50244140625,3.1585693359375,-0.9613037109375
4.249999900000001,-9.703699111938477,0.1628057211637497,1.98958158493042,-7.99560546875,9.3994140625,1.0223388671875
4.2699999,-9.679757118225098,0.24899697303771973,2.008735179901123,-13.73291015625,13.24462890625,3.4942626953125
4.289999900000001,-9.713275909423828,0.38307225704193115,2.006340980529785,-15.5487060546875,13.3819580078125,3.41796875
4.3099999,-9.742006301879883,0.47644615173339844,1.8507179021835327,-13.336181640625,11.04736328125,2.8839111328125
4.329999900000001,-9.823410034179688,0.5051765441894531,1.6424223184585571,-10.1470947265625,9.2010498046875,1.5716552734375
4.3499999,-9.84256362915039,0.48602294921875,1.4508862495422363,-7.3699951171875,8.392333984375,0.06103515625
4.369999900000001,-9.888052940368652,0.42856210470199585,1.2234370708465576,-4.7760009765625,4.9896240234375,-0.732421875
4.3899999,-9.921571731567383,0.33039984107017517,1.0654197931289673,-0.18310546875,-0.823974609375,-0.5340576171875
4.409999900000001,-9.959878921508789,0.23942017555236816,1.0055646896362305,3.936767578125,-4.547119140625,-0.152587890625
4.4299999,-9.983820915222168,0.16519992053508759,0.9816226959228516,4.1046142578125,-6.1492919921875,-0.762939453125
4.449999900000001,-9.99100399017334,0.10055647045373917,1.0630255937576294,3.4027099609375,-6.256103515625,-1.922607421875
4.4699999,-9.967061996459961,0.06224924325942993,1.1899182796478271,3.4637451171875,-6.65283203125,-1.617431640625
4.489999900000001,-9.93354320526123,0.043095629662275314,1.3287819623947144,2.197265625,-3.8604736328125,0.030517578125
4.5099999,-9.8784761428833,0.08619125932455063,1.4245500564575195,0.701904296875,-1.2664794921875,2.0904541015625
4.529999900000001,-9.823410034179688,0.14365209639072418,1.5466543436050415,1.03759765625,-1.8157958984375,3.021240234375
4.5499999,-9.806650161743164,0.2753331959247589,1.6208745241165161,1.64794921875,-2.960205078125,2.9754638671875
4.569999900000001,-9.816226959228516,0.3663128614425659,1.7094600200653076,1.007080078125,-3.1280517578125,2.7618408203125
4.5899999000000005,-9.837775230407715,0.5027823448181152,1.8076223134994507,0.5340576171875,-0.9307861328125,0.7171630859375
4.609999900000001,-9.78989028930664,0.5291185975074768,1.845929503440857,-1.5411376953125,0.152587890625,0.42724609375
4.6299999000000005,-9.792284965515137,0.507570743560791,1.8818424940109253,-3.6163330078125,0.91552734375,1.1749267578125
4.6499999,-9.780313491821289,0.43335050344467163,1.8698714971542358,-2.593994140625,1.251220703125,1.5869140625
4.6699999000000005,-9.782708168029785,0.3663128614425659,1.800439715385437,-0.4730224609375,0,0.8544921875
4.6899999,-9.770736694335938,0.29209262132644653,1.7334020137786865,-1.068115234375,-0.030517578125,-0.18310546875
4.709999900000001,-9.761159896850586,0.2537853717803955,1.6879122257232666,-5.4473876953125,3.3721923828125,-1.7242431640625
4.7299999,-9.746794700622559,0.2801215946674347,1.699883222579956,-10.3912353515625,8.697509765625,-1.5869140625
4.749999900000001,-9.787496566772461,0.2777273952960968,1.647210717201233,-12.1307373046875,11.474609375,-0.1068115234375
4.7699999,-9.835380554199219,0.3663128614425659,1.556231141090393,-9.1094970703125,8.4075927734375,0.2593994140625
4.789999900000001,-9.911994934082031,0.35673606395721436,1.3311761617660522,-3.1585693359375,3.662109375,-0.213623046875
4.8099999,-9.99339771270752,0.42856210470199585,1.1635819673538208,3.326416015625,-1.0528564453125,-0.5340576171875
4.829999900000001,-9.967061996459961,0.40701428055763245,1.015141487121582,7.8582763671875,-5.828857421875,-0.7781982421875
4.8499999,-9.964667320251465,0.38307225704193115,1.0414776802062988,7.1258544921875,-6.3934326171875,-1.28173828125
4.869999900000001,-9.895236015319824,0.3687070608139038,1.2066776752471924,2.685546875,-4.1656494140625,-1.6021728515625
4.8899999,-9.871294021606445,0.29209262132644653,1.4173674583435059,-0.5645751953125,-3.1585693359375,-0.885009765625
4.909999900000001,-9.825803756713867,0.2513911724090576,1.6543933153152466,-1.4190673828125,-2.3956298828125,0.42724609375
4.9299999,-9.818621635437012,0.22266076505184174,1.8746598958969116,-2.01416015625,-1.190185546875,0.457763671875
4.949999900000001,-9.794678688049316,0.1628057211637497,1.920149803161621,-2.74658203125,0.2593994140625,-0.0762939453125
4.9699999,-9.77791976928711,0.1867477297782898,1.9919757843017578,-2.5787353515625,1.708984375,-0.885009765625
4.989999900000001,-9.75637149810791,0.20111294090747833,1.8962076902389526,-3.4027099609375,3.1280517578125,-0.5950927734375
5.0099999,-9.773131370544434,0.23702596127986908,1.7932571172714233,-5.157470703125,6.4239501953125,0.1068115234375
5.029999900000001,-9.78989028930664,0.3519476354122162,1.6496049165725708,-6.5155029296875,6.9427490234375,1.5411376953125
5.0499999,-9.837775230407715,0.3926490843296051,1.4652514457702637,-8.453369140625,4.82177734375,2.3040771484375
5.069999900000001,-9.876082420349121,0.5339069962501526,1.357512354850769,-9.0789794921875,2.685546875,0.8544921875
5.0899999000000005,-9.871294021606445,0.545877993106842,1.2090718746185303,-5.0201416015625,-1.4190673828125,-0.3814697265625
5.109999900000001,-9.931148529052734,0.5793967843055725,1.2425906658172607,0.6103515625,-4.0435791015625,-1.9378662109375
5.1299999000000005,-9.880870819091797,0.44771572947502136,1.2497732639312744,4.0130615234375,-4.3487548828125,-2.777099609375
5.1499999,-9.907206535339355,0.35434186458587646,1.3934253454208374,5.706787109375,-5.2032470703125,-2.471923828125
5.1699999000000005,-9.923966407775879,0.16759411990642548,1.5466543436050415,5.2337646484375,-5.2490234375,-1.190185546875
5.1899999,-9.873687744140625,0.07661445438861847,1.6974890232086182,4.5928955078125,-3.4942626953125,0.3204345703125
5.209999900000001,-9.871294021606445,0.040701430290937424,1.8507179021835327,3.3111572265625,-2.3956298828125,0.7476806640625
5.2299999,-9.825803756713867,0.026336219161748886,1.9512743949890137,0.244140625,0.3204345703125,0.0152587890625
5.249999900000001,-9.768342971801758,0.10773907601833344,1.9536685943603516,-2.7313232421875,3.814697265625,-1.373291015625
5.2699999,-9.730035781860352,0.2537853717803955,1.9273324012756348,-4.9591064453125,8.5296630859375,-1.15966796875
5.289999900000001,-9.725247383117676,0.45010992884635925,1.843535304069519,-7.1258544921875,8.6669921875,0.091552734375
5.3099999,-9.670180320739746,0.6655880808830261,1.7908629179000854,-10.589599609375,7.5531005859375,-0.3662109375
5.329999900000001,-9.749189376831055,0.7852981686592102,1.6543933153152466,-17.76123046875,10.6353759765625,-2.5634765625
5.3499999,-9.75637149810791,0.7805097699165344,1.5634137392044067,-21.1334228515625,11.9476318359375,-4.0283203125
5.369999900000001,-9.84495735168457,0.6129156351089478,1.359906554222107,-15.93017578125,7.99560546875,-3.84521484375
5.3899999,-9.919178009033203,0.31603461503982544,1.235408067703247,-7.6141357421875,3.875732421875,-2.99072265625
5.409999900000001,-9.938331604003906,0.033518824726343155,1.0989385843276978,1.0833740234375,-1.8310546875,-0.79345703125
5.4299999,-10.053253173828125,-0.26336219906806946,1.0989385843276978,3.7384033203125,-3.3111572265625,1.129150390625
5.449999900000001,-10.02452278137207,-0.33279404044151306,1.1420341730117798,3.2196044921875,-3.8604736328125,2.1820068359375
5.4699999,-10.031704902648926,-0.28730419278144836,1.3215993642807007,2.685546875,-4.0130615234375,2.44140625
5.489999900000001,-9.976638793945312,-0.08140286058187485,1.460463047027588,-0.946044921875,-2.0751953125,1.4190673828125
5.5099999,-9.84256362915039,0.20350714027881622,1.625662922859192,-4.9896240234375,1.03759765625,-0.8392333984375
5.529999900000001,-9.775525093078613,0.44771572947502136,1.7094600200653076,-9.8419189453125,4.8828125,-1.46484375
5.5499999,-9.6989107131958,0.6248866319656372,1.7908629179000854,-17.303466796875,7.5531005859375,-1.2054443359375
5.569999900000001,-9.701305389404297,0.7015010714530945,1.867477297782898,-27.6336669921875,12.359619140625,-0.885009765625
5.5899999000000005,-9.732429504394531,0.6272808313369751,1.8794482946395874,-34.85107421875,15.9149169921875,-1.9378662109375
5.609999900000001,-9.703699111938477,0.6033388376235962,2.006340980529785,-34.3170166015625,16.1285400390625,-1.251220703125
5.6299999000000005,-9.785101890563965,0.4884171485900879,2.0039467811584473,-41.534423828125,22.03369140625,-0.8392333984375
5.6499999,-9.75637149810791,0.5027823448181152,2.126051187515259,-53.8177490234375,29.0069580078125,-0.3662109375
5.6699999000000005,-9.768342971801758,0.586579442024231,2.2577321529388428,-69.5037841796875,37.1856689453125,-0.6103515625
5.6899999,-9.727641105651855,0.7924807667732239,2.4229321479797363,-90.728759765625,51.3153076171875,-1.64794921875
5.709999900000001,-9.710882186889648,1.0845733880996704,2.583343744277954,-115.570068359375,66.253662109375,-4.547119140625
5.7299999,-9.622296333312988,1.5083470344543457,2.6408045291900635,-145.9503173828125,82.58056640625,-4.0130615234375
5.749999900000001,-9.502586364746094,1.5682021379470825,2.229001760482788,-180.1910400390625,98.6480712890625,-2.2125244140625
5.7699999,-9.3828763961792,1.4844050407409668,1.4101848602294922,-179.4281005859375,92.7886962890625,-1.312255859375
5.789999900000001,-9.519346237182617,1.0007762908935547,0.1149216815829277,-155.2886962890625,60.455322265625,3.021240234375
5.8099999,-9.832986831665039,0.4692635238170624,-1.1779472827911377,-131.744384765625,31.0516357421875,4.852294921875
5.829999900000001,-10.426748275756836,-0.21547815203666687,-2.497152328491211,-114.0289306640625,12.5885009765625,2.9754638671875
5.8499999,-11.068394660949707,-0.8810662031173706,-3.7277719974517822,-64.0106201171875,4.058837890625,-3.0364990234375
5.869999900000001,-11.51611042022705,-1.3862427473068237,-4.608838081359863,24.566650390625,-13.12255859375,-8.48388671875
5.8899999,-11.501745223999023,-1.5729905366897583,-4.8722004890441895,81.3140869140625,-46.173095703125,-10.3759765625
5.909999900000001,-11.101913452148438,-1.2042834758758545,-4.141968727111816,71.9146728515625,-48.8128662109375,-12.2833251953125
5.9299999,-10.26394271850586,-0.5386953949928284,-2.6024973392486572,32.1502685546875,-29.6630859375,-14.3280029296875
5.949999900000001,-9.29189682006836,0.043095629662275314,-0.7374141216278076,6.9122314453125,-15.045166015625,-13.3209228515625
5.9699999,-8.465897560119629,0.181959331035614,0.7445967197418213,3.5247802734375,-9.2010498046875,-8.3770751953125
5.989999900000001,-8.037335395812988,-0.12210428714752197,1.6687586307525635,3.875732421875,-3.7689208984375,0.2593994140625
6.0099999,-8.085219383239746,-0.5578489899635315,2.011129379272461,-2.6092529296875,5.0506591796875,9.368896484375
6.029999900000001,-8.552088737487793,-0.8643068075180054,1.889025092124939,-14.2822265625,13.916015625,13.5498046875
6.0499999,-9.289502143859863,-0.8810662031173706,1.381454348564148,-16.7999267578125,15.9912109375,13.214111328125
6.069999900000001,-10.086771965026855,-0.6153098344802856,0.6488286852836609,-6.8206787109375,9.6893310546875,9.3994140625
6.0899999000000005,-10.742782592773438,-0.22266076505184174,-0.1364694982767105,5.55419921875,1.922607421875,3.90625
6.109999900000001,-11.12346076965332,0.2082955539226532,-0.7350199222564697,11.23046875,-2.74658203125,-1.89208984375
6.1299999000000005,-11.176133155822754,0.5339069962501526,-0.9648633003234863,8.941650390625,-5.126953125,-7.1258544921875
6.149999900000001,-10.934319496154785,0.6177040338516235,-0.8451532125473022,4.7760009765625,-2.5787353515625,-9.70458984375
6.1699999000000005,-10.505757331848145,0.4165911078453064,-0.47644615173339844,2.349853515625,2.532958984375,-7.26318359375
6.1899999,-9.995792388916016,0.040701430290937424,-0.035913024097681046,0.0762939453125,6.34765625,-1.03759765625
6.209999900000001,-9.560047149658203,-0.3519476354122162,0.3064578175544739,-1.129150390625,9.063720703125,3.9215087890625
6.2299999,-9.265560150146484,-0.6847416758537292,0.4141969084739685,0.4119873046875,10.955810546875,5.37109375
6.249999900000001,-9.172186851501465,-0.7852981686592102,0.33039984107017517,5.1422119140625,10.9100341796875,7.232666015625
6.2699999,-9.253589630126953,-0.6871358752250671,0.11971008777618408,9.8419189453125,9.0179443359375,8.23974609375
6.289999900000001,-9.44991397857666,-0.3758896589279175,-0.09816227108240128,11.2762451171875,8.544921875,2.9144287109375
6.3099999,-9.708487510681152,-0.009576806798577309,-0.4884171485900879,-92.1478271484375,20.6756591796875,12.420654296875
6.329999900000001,-9.971850395202637,0.28969839215278625,-0.6847416758537292,-58.135986328125,11.53564453125,3.5247802734375
6.3499999,-10.14902114868164,0.3902548849582672,-0.9050082564353943,31.7535400390625,-0.48828125,-8.0108642578125
6.369999900000001,-10.247182846069336,0.3064578175544739,-0.8595184087753296,9.8876953125,1.52587890625,-3.509521484375
6.3899999,-10.33098030090332,0.19632454216480255,-0.5961562395095825,1.6632080078125,7.14111328125,-2.4566650390625
6.409999900000001,-10.309432983398438,0,-0.24899697303771973,-2.5177001953125,14.190673828125,-3.5247802734375
6.4299999,-10.295066833496094,-0.1843535304069519,0.004788403399288654,-0.701904296875,17.913818359375,0.518798828125
6.449999900000001,-10.273519515991211,-0.30885201692581177,0.08140286058187485,5.18798828125,17.5323486328125,5.0048828125
6.4699999,-10.220847129821777,-0.1364694982767105,-0.24899697303771973,6.6986083984375,14.46533203125,2.5787353515625
6.489999900000001,-10.256759643554688,0.20111294090747833,-0.8571242094039917,6.0272216796875,0.335693359375,-7.0037841796875
6.5099999,-10.326191902160645,0.49799394607543945,-1.5682021379470825,3.4942626953125,-20.7366943359375,-13.9312744140625
6.529999900000001,-10.54645824432373,0.5482721924781799,-2.2170307636260986,16.3421630859375,-27.008056640625,-15.8538818359375
6.5499999,-10.591948509216309,0.1628057211637497,-2.408566951751709,31.1126708984375,-33.477783203125,-12.176513671875
6.569999900000001,-10.558429718017578,-0.37828385829925537,-2.051830768585205,23.86474609375,-37.567138671875,-2.0294189453125
6.5899999000000005,-10.321403503417969,-0.8068459630012512,-1.2641384601593018,1.007080078125,-26.30615234375,7.171630859375
6.609999900000001,-10.017339706420898,-1.0247182846069336,-0.2968810200691223,-19.3634033203125,-13.24462890625,11.7034912109375
6.6299999000000005,-9.84256362915039,-1.0223240852355957,0.4884171485900879,-23.5748291015625,-6.3629150390625,14.46533203125
6.649999900000001,-9.909601211547852,-0.8403648138046265,0.8547300100326538,-15.3961181640625,-5.4473876953125,15.7318115234375
6.6699999000000005,-10.098742485046387,-0.5410895943641663,0.7757213711738586,-5.279541015625,-8.5296630859375,12.4053955078125
6.6899999,-10.268731117248535,-0.15322890877723694,0.5219359993934631,3.082275390625,-12.664794921875,7.4920654296875
6.709999900000001,-10.237606048583984,0.26096799969673157,0.3064578175544739,4.486083984375,-11.505126953125,2.9754638671875
6.7299999,-9.988609313964844,0.5746083855628967,0.3016694188117981,-2.044677734375,-4.5013427734375,-0.091552734375
6.749999900000001,-9.694122314453125,0.7086837291717529,0.4165911078453064,-10.55908203125,3.5247802734375,-0.9613037109375
6.7699999,-9.399636268615723,0.6057330369949341,0.5386953949928284,-13.1988525390625,7.0953369140625,-1.800537109375
6.789999900000001,-9.263166427612305,0.3758896589279175,0.569819986820221,-9.1705322265625,8.8653564453125,-0.518798828125
6.8099999,-9.193734169006348,0.004788403399288654,0.35913026332855225,-1.1444091796875,9.674072265625,1.2054443359375
6.829999900000001,-9.344569206237793,-0.4213795065879822,-0.090979665517807,13.8397216796875,0.2288818359375,6.195068359375
6.8499999,-9.53849983215332,-0.689530074596405,-0.706289529800415,41.5191650390625,-17.1356201171875,3.9520263671875
6.869999900000001,-9.86889934539795,-0.7469909191131592,-1.1827356815338135,68.7255859375,-31.4483642578125,1.922607421875
6.8899999,-10.11789608001709,-0.6009446382522583,-1.4676456451416016,76.5533447265625,-33.3099365234375,0.396728515625
6.909999900000001,-10.371682167053223,-0.23702596127986908,-1.3215993642807007,80.169677734375,-27.28271484375,-4.1046142578125
6.9299999,-10.527304649353027,0.08858546614646912,-0.8547300100326538,86.4410400390625,-35.4156494140625,-5.7525634765625
6.949999900000001,-10.565611839294434,0.31603461503982544,-0.22744916379451752,82.33642578125,-36.6668701171875,-3.6468505859375
6.9699999,-10.575188636779785,0.43335050344467163,0.49559974670410156,70.6634521484375,-30.731201171875,-3.265380859375
6.989999900000001,-10.474632263183594,0.40940847992897034,1.0199298858642578,64.5599365234375,-18.463134765625,-6.134033203125
7.0099999,-10.319009780883789,0.38067805767059326,1.3958195447921753,73.1658935546875,-16.2200927734375,-6.16455078125
7.029999900000001,-10.788272857666016,0.5530605912208557,1.678335428237915,66.741943359375,-17.8375244140625,-1.1444091796875
7.0499999,-11.283872604370117,0.6847416758537292,1.920149803161621,31.585693359375,-24.35302734375,-16.876220703125
7.069999900000001,-11.8225679397583,0.9672574996948242,2.2577321529388428,-8.3160400390625,-25.3753662109375,-33.7066650390625
7.0899999000000005,-12.014103889465332,0.9792284965515137,2.410961151123047,-25.1922607421875,14.129638671875,-32.1044921875
7.109999900000001,-11.621455192565918,0.7661445140838623,2.1787235736846924,-21.3165283203125,45.34912109375,-23.2086181640625
7.1299999000000005,-10.92953109741211,0.3711012601852417,1.525106430053711,-8.6822509765625,38.8031005859375,-13.427734375
7.149999900000001,-10.158597946166992,-0.043095629662275314,0.706289529800415,3.936767578125,7.4615478515625,-0.701904296875
7.1699999000000005,-9.44752025604248,-0.4405331015586853,-0.004788403399288654,9.7198486328125,-9.8724365234375,9.70458984375
7.1899999,-8.78432559967041,-0.7493851184844971,-0.4429273009300232,12.6953125,0.244140625,12.115478515625
7.209999900000001,-8.274360656738281,-0.9552865028381348,-0.5650315880775452,23.590087890625,18.218994140625,7.965087890625
7.2299999,-8.003816604614258,-1.0295066833496094,-0.5219359993934631,32.745361328125,19.3634033203125,3.0670166015625
7.249999900000001,-7.994239330291748,-0.993593692779541,-0.35673606395721436,36.9720458984375,4.2877197265625,2.6092529296875
7.2699999,-8.190564155578613,-0.8331822156906128,-0.12928688526153564,36.6973876953125,-9.857177734375,6.439208984375
7.289999900000001,-8.403648376464844,-0.629675030708313,0.19153612852096558,32.8826904296875,-17.02880859375,8.9263916015625
7.3099999,-8.621520042419434,-0.37828385829925537,0.5602431893348694,28.25927734375,-9.5367431640625,7.75146484375
7.329999900000001,-8.848969459533691,-0.09816227108240128,0.9193734526634216,25.0244140625,4.1656494140625,1.0833740234375
7.3499999,-9.097966194152832,0.15322890877723694,1.2066776752471924,19.775390625,8.72802734375,-6.3018798828125
7.369999900000001,-9.390059471130371,0.35434186458587646,1.381454348564148,10.2691650390625,1.1138916015625,-6.195068359375
7.3899999,-9.651026725769043,0.4836287498474121,1.4484920501708984,0.244140625,-10.4827880859375,-1.861572265625
7.409999900000001,-9.81143856048584,0.4908113479614258,1.4437036514282227,-6.2408447265625,-12.5274658203125,0.7171630859375
7.4299999,-9.86889934539795,0.45250412821769714,1.3886369466781616,-10.3912353515625,-9.307861328125,4.8370361328125
7.449999900000001,-9.670180320739746,0.35913026332855225,1.37906014919281,-14.4805908203125,-3.2806396484375,9.0484619140625
7.4699999,-9.653421401977539,0.23942017555236816,1.1875240802764893,-11.1846923828125,32.5927734375,4.669189453125
7.489999900000001,-9.624691009521484,0.19632454216480255,0.9840168952941895,-6.805419921875,24.9786376953125,-1.8310546875
7.5099999,-9.720458984375,0.09816227108240128,0.6560112833976746,-6.7291259765625,-0.152587890625,-10.25390625
7.529999900000001,-9.806650161743164,0.009576806798577309,0.3423708379268646,-4.2877197265625,-9.552001953125,-5.9661865234375
7.5499999,-9.799467086791992,-0.10055647045373917,0.15083470940589905,2.1820068359375,-4.1656494140625,8.087158203125
7.569999900000001,-9.718064308166504,-0.1867477297782898,0.11971008777618408,6.1492919921875,-3.72314453125,17.8375244140625
7.5899999000000005,-9.691728591918945,-0.21787235140800476,0.2082955539226532,4.6844482421875,-4.2572021484375,14.9383544921875
7.609999900000001,-9.761159896850586,-0.16759411990642548,0.36152446269989014,4.150390625,-0.244140625,9.6435546875
7.6299999000000005,-9.880870819091797,-0.10773907601833344,0.5219359993934631,6.439208984375,1.495361328125,10.7879638671875
7.649999900000001,-10.000580787658691,-0.035913024097681046,0.6631938815116882,7.9803466796875,2.3956298828125,11.1541748046875
7.6699999000000005,-10.14902114868164,0.021547814831137657,0.7350199222564697,8.4991455078125,8.4991455078125,4.913330078125
7.6899999,-10.33098030090332,0.08379705995321274,0.7613561153411865,8.697509765625,5.5694580078125,-1.15966796875
7.709999900000001,-10.496180534362793,0.15801730751991272,0.7781155705451965,4.1046142578125,-13.2598876953125,-1.64794921875
7.7299999,-10.560823440551758,0.19632454216480255,0.8188169598579407,-3.23486328125,-22.4456787109375,-1.220703125
7.749999900000001,-10.47942066192627,0.18914192914962769,0.8978256583213806,-8.4686279296875,-13.8702392578125,-0.1068115234375
7.7699999,-10.271124839782715,0.15562310814857483,0.9792284965515137,-10.5133056640625,-2.3651123046875,2.01416015625
7.789999900000001,-10.036493301391602,0.10773907601833344,1.0031704902648926,-9.9945068359375,6.256103515625,-0.67138671875
7.8099999,-9.8784761428833,0.06464344263076782,0.9361328482627869,-7.659912109375,13.0767822265625,-6.317138671875
7.829999900000001,-9.847352027893066,0.038307227194309235,0.811634361743927,-5.0506591796875,12.6800537109375,-5.67626953125
7.8499999,-9.909601211547852,0.035913024097681046,0.6655880808830261,-4.5318603515625,3.11279296875,1.0223388671875
7.869999900000001,-9.947908401489258,0.040701430290937424,0.5626373887062073,-5.4931640625,-5.37109375,6.0882568359375
7.8899999,-9.923966407775879,0.0694318488240242,0.5099649429321289,-4.7454833984375,-1.8768310546875,8.3770751953125
7.909999900000001,-9.859322547912598,0.14365209639072418,0.4908113479614258,-1.190185546875,6.3934326171875,10.528564453125
7.9299999,-9.780313491821289,0.2585737705230713,0.5003881454467773,1.739501953125,4.8675537109375,10.6964111328125
7.949999900000001,-10.055646896362305,0.4189853072166443,0.524330198764801,2.1209716796875,-2.410888671875,6.3018798828125
7.9699999,-10.319009780883789,0.6200982332229614,0.524330198764801,1.46484375,-9.2926025390625,-10.101318359375
7.989999900000001,-10.81460952758789,0.7374141216278076,0.49559974670410156,1.5106201171875,-11.41357421875,-4.5623779296875
8.0099999,-10.936713218688965,0.8307880163192749,0.4189853072166443,5.340576171875,-9.6893310546875,1.983642578125
8.0299999,-10.819397926330566,0.8092401623725891,0.31364041566848755,9.9639892578125,-14.984130859375,-2.349853515625
8.049999900000001,-10.498574256896973,0.7350199222564697,0.2346317619085312,14.556884765625,-20.5078125,-7.4310302734375
8.069999900000001,-10.122684478759766,0.6368576288223267,0.17956513166427612,17.08984375,-24.0936279296875,-10.31494140625
8.0899999,-9.945513725280762,0.49799394607543945,0.16998831927776337,19.073486328125,-28.2135009765625,-10.0250244140625
8.1099999,-9.8784761428833,0.3687070608139038,0.2801215946674347,20.44677734375,-33.5235595703125,-9.8419189453125
8.129999900000001,-9.86889934539795,0.26336219906806946,0.507570743560791,17.364501953125,-34.24072265625,-8.6822509765625
8.149999900000001,-9.84256362915039,0.20350714027881622,0.8643068075180054,13.1683349609375,-30.7159423828125,-8.5601806640625
8.1699999,-9.765948295593262,0.13407529890537262,1.3527239561080933,11.9476318359375,-28.0303955078125,-9.3994140625
8.1899999,-9.667786598205566,0.15322890877723694,1.944091796875,7.232666015625,-22.735595703125,-8.0108642578125
8.2099999,-9.567230224609375,0.19153612852096558,2.5067291259765625,-4.2724609375,-11.65771484375,-6.317138671875
8.229999900000001,-9.50498104095459,0.27054479718208313,2.9951462745666504,-19.3634033203125,0.79345703125,-6.9732666015625
8.2499999,-9.495404243469238,0.2825157940387726,3.248931646347046,-33.99658203125,12.4053955078125,-8.575439453125
8.2699999,-9.478644371032715,0.31842881441116333,3.318363666534424,-38.970947265625,19.7601318359375,-6.744384765625
8.2899999,-9.569623947143555,0.13407529890537262,3.1914708614349365,-37.04833984375,25.665283203125,-5.37109375
8.309999900000001,-9.66299819946289,0.002394201699644327,2.691082715988159,-28.5491943359375,27.5726318359375,-6.1187744140625
8.3299999,-9.80904483795166,-0.20350714027881622,2.1045033931732178,-12.939453125,22.918701171875,-5.3558349609375
8.3499999,-9.988609313964844,-0.3423708379268646,1.2401964664459229,4.3792724609375,11.6729736328125,-4.0283203125
8.3699999,-10.129867553710938,-0.48602294921875,0.4381389021873474,20.263671875,-2.593994140625,-7.1868896484375
8.389999900000001,-10.225635528564453,-0.5841852426528931,-0.19632454216480255,31.9366455078125,-11.3372802734375,-12.26806640625
8.4099999,-10.273519515991211,-0.6392518281936646,-0.4668693244457245,37.994384765625,-16.7999267578125,-10.0555419921875
8.4299999,-10.225635528564453,-0.5841852426528931,-0.31364041566848755,33.8897705078125,-20.3704833984375,-5.67626953125
8.4499999,-10.089165687561035,-0.4141969084739685,0.1628057211637497,20.7977294921875,-18.00537109375,-3.0670166015625
8.469999900000001,-10.019734382629395,-0.20111294090747833,0.8451532125473022,10.162353515625,-13.1072998046875,0.213623046875
8.4899999,-9.859322547912598,-0.07182604819536209,1.5322890281677246,6.6680908203125,-15.106201171875,-2.532958984375
8.5099999,-9.751583099365234,-0.033518824726343155,2.0231003761291504,6.4239501953125,-12.8936767578125,-6.500244140625
8.5299999,-9.737217903137207,-0.3016694188117981,2.212242364883423,16.05224609375,-4.3182373046875,-2.593994140625
8.549999900000001,-9.787496566772461,-0.3878606855869293,2.0470423698425293,18.280029296875,-8.056640625,0.4730224609375
8.569999900000001,-9.876082420349121,-0.36152446269989014,1.944091796875,12.420654296875,-8.1329345703125,4.9591064453125
8.5899999,-9.86889934539795,-0.2346317619085312,1.900996208190918,1.617431640625,-7.598876953125,2.838134765625
8.6099999,-9.794678688049316,-0.1843535304069519,1.9608511924743652,-4.6844482421875,-4.3487548828125,-3.90625
8.629999900000001,-9.708487510681152,-0.10773907601833344,2.032677173614502,-5.584716796875,1.800537109375,-3.0975341796875
8.649999900000001,-9.706093788146973,-0.16519992053508759,2.0877439975738525,-7.4615478515625,7.110595703125,0.3814697265625
8.6699999,-9.694122314453125,-0.2082955539226532,2.0685901641845703,-9.246826171875,7.8887939453125,2.1820068359375
8.6899999,-9.78989028930664,-0.17956513166427612,1.968033790588379,-7.4615478515625,6.3629150390625,5.5694580078125
8.709999900000001,-9.8784761428833,-0.24420857429504395,1.8746598958969116,-2.471923828125,0.3814697265625,4.7607421875
8.729999900000001,-9.840168952941895,-0.1364694982767105,1.7621324062347412,-0.48828125,-1.4801025390625,-2.349853515625
8.7499999,-9.854534149169922,-0.24660277366638184,1.6879122257232666,-2.288818359375,4.4708251953125,-3.4637451171875
8.7699999,-9.816226959228516,-0.16519992053508759,1.6424223184585571,-1.708984375,8.087158203125,0.0457763671875
8.7899999,-9.821015357971191,-0.2585737705230713,1.6112977266311646,-0.152587890625,4.3487548828125,1.373291015625
8.809999900000001,-9.852140426635742,-0.2082955539226532,1.5275006294250488,-0.8697509765625,1.983642578125,4.94384765625
8.8299999,-9.938331604003906,-0.30885201692581177,1.4867992401123047,0.3509521484375,-2.13623046875,6.6986083984375
8.8499999,-9.885659217834473,-0.24181437492370605,1.501164436340332,3.021240234375,-5.523681640625,0.2288818359375
8.8699999,-9.847352027893066,-0.304063618183136,1.5969325304031372,0.3509521484375,-1.6326904296875,-2.8533935546875
8.889999900000001,-9.799467086791992,-0.17477671802043915,1.7166426181793213,-5.7220458984375,6.3629150390625,0.8697509765625
8.9099999,-9.75397777557373,-0.12928688526153564,1.778891921043396,-9.1552734375,7.232666015625,1.52587890625
8.9299999,-9.818621635437012,-0.040701430290937424,1.778891921043396,-7.904052734375,3.7689208984375,1.64794921875
8.9499999,-9.86650562286377,-0.028730420395731926,1.699883222579956,-4.08935546875,-1.678466796875,5.0506591796875
8.969999900000001,-9.90241813659668,-0.0694318488240242,1.6496049165725708,-2.44140625,-5.0506591796875,1.03759765625
8.9899999,-9.81143856048584,-0.09576806426048279,1.6304513216018677,-3.6468505859375,-1.2969970703125,-5.2642822265625
9.0099999,-9.835380554199219,-0.17717093229293823,1.699883222579956,-3.936767578125,5.5084228515625,-3.11279296875
9.0299999,-9.761159896850586,-0.1412578970193863,1.7764976024627686,-4.08935546875,6.4239501953125,1.3275146484375
9.049999900000001,-9.801861763000488,-0.1604115068912506,1.8100165128707886,-7.0648193359375,6.256103515625,1.556396484375
9.069999900000001,-9.84495735168457,-0.1604115068912506,1.7836803197860718,-7.8277587890625,5.5389404296875,3.9825439453125
9.0899999,-9.883264541625977,-0.15562310814857483,1.6950948238372803,-3.8909912109375,-0.4730224609375,2.8076171875
9.1099999,-9.828198432922363,-0.1843535304069519,1.6089035272598267,-1.46484375,-1.4495849609375,-4.8065185546875
9.129999900000001,-9.849745750427246,-0.19153612852096558,1.5059528350830078,-4.4403076171875,4.7454833984375,-5.3253173828125
9.149999900000001,-9.859322547912598,-0.181959331035614,1.4748282432556152,-4.8675537109375,6.65283203125,-0.7476806640625
9.1699999,-9.84256362915039,-0.19632454216480255,1.3910311460494995,-1.8310546875,3.11279296875,-0.6561279296875
9.1899999,-9.895236015319824,-0.2082955539226532,1.3120225667953491,0.8697509765625,-1.40380859375,1.8310546875
9.209999900000001,-9.940725326538086,-0.27054479718208313,1.2952631711959839,3.1585693359375,-7.26318359375,3.692626953125
9.229999900000001,-9.897629737854004,-0.28969839215278625,1.3192051649093628,5.6304931640625,-8.758544921875,-2.8839111328125
9.2499999,-9.856928825378418,-0.3256114423274994,1.460463047027588,6.0272216796875,-4.39453125,-5.79833984375
9.2699999,-9.840168952941895,-0.2777273952960968,1.6903064250946045,3.4942626953125,1.739501953125,-0.6866455078125
9.2899999,-9.749189376831055,-0.1173158809542656,1.9105730056762695,-3.0975341796875,4.8065185546875,0.7171630859375
9.309999900000001,-9.758766174316406,-0.021547814831137657,2.032677173614502,-10.772705078125,9.002685546875,-1.6937255859375
9.3299999,-9.765948295593262,0.12449848651885986,2.0901381969451904,-11.53564453125,8.697509765625,-0.0152587890625
9.3499999,-9.768342971801758,0.06703764945268631,1.9393033981323242,-8.9263916015625,1.983642578125,-0.762939453125
9.3699999,-9.832986831665039,-0.10295066982507706,1.7525556087493896,-4.7760009765625,0.48828125,-5.218505859375
9.389999900000001,-9.852140426635742,-0.40462008118629456,1.4676456451416016,2.4566650390625,1.495361328125,-4.6539306640625
9.4099999,-9.923966407775879,-0.6105214357376099,1.2234370708465576,10.55908203125,-0.9002685546875,3.021240234375
9.4299999,-9.945513725280762,-0.6871358752250671,1.036689281463623,12.5732421875,-6.805419921875,5.1116943359375
9.4499999,-9.945513725280762,-0.5746083855628967,1.0223240852355957,8.3770751953125,-6.500244140625,3.8604736328125
9.469999900000001,-9.967061996459961,-0.3663128614425659,1.1779472827911377,1.678466796875,-6.103515625,5.401611328125
9.4899999,-9.926360130310059,-0.15083470940589905,1.5466543436050415,-4.6539306640625,-8.4381103515625,5.7525634765625
9.5099999,-9.864110946655273,-0.07900865375995636,1.8411411046981812,-11.260986328125,-3.5247802734375,1.861572265625
9.5299999,-9.81143856048584,-0.07422025501728058,2.0231003761291504,-12.1002197265625,3.570556640625,0.30517578125
9.549999900000001,-9.806650161743164,-0.05985504388809204,2.0590133666992188,-5.8746337890625,4.4403076171875,4.21142578125
9.569999900000001,-9.744400978088379,-0.0454898327589035,1.9536685943603516,-6.40869140625,1.739501953125,5.157470703125
9.5899999,-9.78989028930664,0.10295066982507706,1.8579005002975464,-14.6636962890625,6.4849853515625,4.425048828125
9.6099999,-9.799467086791992,0.12689268589019775,1.7956513166427612,-17.0135498046875,4.2572021484375,2.9144287109375
9.629999900000001,-9.825803756713867,0.1388636976480484,1.6974890232086182,-11.04736328125,-0.6561279296875,-0.0457763671875
9.649999900000001,-9.856928825378418,-0.033518824726343155,1.5849615335464478,-2.349853515625,-1.9378662109375,-4.547119140625
9.6699999,-9.916783332824707,-0.2585737705230713,1.4077905416488647,7.843017578125,-0.213623046875,-4.7454833984375
9.6899999,-9.943120002746582,-0.3495534360408783,1.3287819623947144,16.29638671875,-2.9754638671875,-0.3204345703125
9.709999900000001,-9.9000244140625,-0.2968810200691223,1.3239935636520386,14.984130859375,-3.4332275390625,0.3204345703125
9.729999900000001,-9.895236015319824,-0.11971008777618408,1.4772224426269531,5.584716796875,-1.5411376953125,0.1068115234375
9.7499999,-9.797073364257812,0.07661445438861847,1.7190368175506592,-5.615234375,-1.800537109375,-1.678466796875
9.7699999,-9.75637149810791,0.15562310814857483,1.9488801956176758,-11.383056640625,-0.2899169921875,-3.2196044921875
9.7899999,-9.674968719482422,0.009576806798577309,2.0590133666992188,-9.46044921875,3.631591796875,-7.4005126953125
9.809999900000001,-9.710882186889648,-0.15562310814857483,2.011129379272461,-2.44140625,7.476806640625,-5.67626953125
9.8299999,-9.751583099365234,-0.3926490843296051,1.886630892753601,2.9296875,5.340576171875,1.2664794921875
9.8499999,-9.835380554199219,-0.47405192255973816,1.7190368175506592,1.556396484375,4.33349609375,5.0048828125
9.8699999,-9.96945571899414,-0.48602294921875,1.5825673341751099,-2.38037109375,3.47900390625,5.92041015625
9.889999900000001,-9.96945571899414,-0.3734954595565796,1.4676456451416016,-3.143310546875,-2.9449462890625,4.57763671875
9.9099999,-10.017339706420898,-0.3016694188117981,1.3718775510787964,-0.6866455078125,-7.0648193359375,2.8076171875
9.9299999,-9.921571731567383,-0.2753331959247589,1.3239935636520386,3.0975341796875,-6.2103271484375,-2.0599365234375
9.9499999,-9.95748519897461,-0.2513911724090576,1.3215993642807007,8.392333984375,-2.1209716796875,-1.8768310546875
9.969999900000001,-9.852140426635742,-0.17717093229293823,1.4700398445129395,10.986328125,-2.105712890625,2.6397705078125
9.9899999,-9.84256362915039,-0.033518824726343155,1.6424223184585571,5.6304931640625,-1.8463134765625,4.119873046875
10.0099999,-9.78989028930664,0.15083470940589905,1.922544002532959,-2.74658203125,2.3193359375,1.9989013671875
10.0299999,-9.725247383117676,0.2513911724090576,2.070984363555908,-7.1563720703125,1.40380859375,-0.640869140625
10.049999900000001,-9.737217903137207,0.2585737705230713,2.2218191623687744,-6.744384765625,1.678466796875,-2.2125244140625
10.069999900000001,-9.691728591918945,0.11013327538967133,2.2146365642547607,-6.4697265625,5.9051513671875,-6.134033203125
10.0899999,-9.77791976928711,-0.028730420395731926,2.1164743900299072,-5.37109375,13.916015625,-5.8746337890625
10.1099999,-9.749189376831055,-0.16519992053508759,1.9297266006469727,-3.265380859375,14.16015625,0.1220703125
10.129999900000001,-9.852140426635742,-0.2585737705230713,1.6639702320098877,-2.5634765625,9.6435546875,2.960205078125
10.149999900000001,-9.916783332824707,-0.28730419278144836,1.3623007535934448,-1.0528564453125,5.37109375,2.74658203125
10.1699999,-9.979032516479492,-0.27054479718208313,1.0869675874710083,3.11279296875,-3.814697265625,0.4730224609375
10.1899999,-10.034099578857422,-0.3495534360408783,0.9481038451194763,8.30078125,-9.3231201171875,-1.3885498046875
10.209999900000001,-10.017339706420898,-0.40940847992897034,0.8930372595787048,12.9241943359375,-11.1846923828125,-3.8909912109375
10.229999900000001,-9.95748519897461,-0.4213795065879822,1.0007762908935547,15.6097412109375,-8.1634521484375,-3.2806396484375
10.2499999,-9.9000244140625,-0.363918662071228,1.2617442607879639,11.8865966796875,-5.9356689453125,3.3416748046875
10.2699999,-9.80904483795166,-0.2106897532939911,1.4772224426269531,1.8157958984375,-4.7607421875,6.0577392578125
10.2899999,-9.785101890563965,0.0071826050989329815,1.8124107122421265,-6.4239501953125,-1.8768310546875,5.55419921875
10.309999900000001,-9.751583099365234,0.090979665517807,1.9728221893310547,-9.521484375,-3.875732421875,2.8839111328125
10.3299999,-9.77791976928711,0.1149216815829277,2.032677173614502,-6.5765380859375,-5.889892578125,1.495361328125
10.3499999,-9.739612579345703,0.011971008032560349,2.030282974243164,0.7476806640625,-6.04248046875,-2.5482177734375
10.3699999,-9.75397777557373,-0.1149216815829277,1.9560627937316895,6.7138671875,-2.6092529296875,-3.997802734375
10.389999900000001,-9.758766174316406,-0.14365209639072418,1.867477297782898,7.110595703125,0,1.64794921875
10.4099999,-9.739612579345703,-0.1412578970193863,1.9369091987609863,1.739501953125,0.244140625,4.3487548828125
10.4299999,-9.773131370544434,0.014365210197865963,1.922544002532959,-3.5247802734375,1.8310546875,3.5400390625
10.4499999,-9.75637149810791,0.15562310814857483,2.0231003761291504,-4.302978515625,-0.8392333984375,-0.4425048828125
10.469999900000001,-9.787496566772461,0.17956513166427612,2.0446481704711914,-3.448486328125,-1.922607421875,-2.4871826171875
10.4899999,-9.770736694335938,0.12928688526153564,1.987187385559082,-2.4261474609375,1.03759765625,-5.2337646484375
10.5099999,-9.746794700622559,-0.06224924325942993,1.9321208000183105,-0.244140625,5.645751953125,-6.9427490234375
10.5299999,-9.816226959228516,-0.1867477297782898,1.824381709098816,3.0670166015625,8.148193359375,-0.7476806640625
10.549999900000001,-9.797073364257812,-0.24181437492370605,1.7741034030914307,2.38037109375,5.462646484375,3.7078857421875
10.569999900000001,-9.86650562286377,-0.2513911724090576,1.699883222579956,-1.52587890625,5.5999755859375,3.96728515625
10.5899999,-9.8784761428833,-0.14844051003456116,1.647210717201233,-1.068115234375,1.3427734375,2.166748046875
10.6099999,-9.873687744140625,-0.1604115068912506,1.6136919260025024,2.13623046875,-2.7313232421875,0.3204345703125
10.629999900000001,-9.880870819091797,-0.14844051003456116,1.5514427423477173,4.4097900390625,-2.838134765625,-2.38037109375
10.649999900000001,-9.84256362915039,-0.19632454216480255,1.5322890281677246,4.6844482421875,0.2899169921875,-5.4473876953125
10.6699999,-9.880870819091797,-0.1867477297782898,1.5418659448623657,4.4708251953125,3.4027099609375,-0.91552734375
10.6899999,-9.840168952941895,-0.08379705995321274,1.556231141090393,1.0223388671875,1.2359619140625,4.0740966796875
10.709999900000001,-9.86889934539795,-0.033518824726343155,1.6184803247451782,-5.4168701171875,0.8392333984375,4.2724609375
10.729999900000001,-9.871294021606445,0.047884032130241394,1.6065093278884888,-6.6680908203125,-1.953125,2.7008056640625
10.7499999,-9.888052940368652,-0.002394201699644327,1.659181833267212,-1.8463134765625,-8.23974609375,2.1514892578125
10.7699999,-9.890447616577148,-0.15801730751991272,1.6711528301239014,3.082275390625,-9.27734375,0.8087158203125
10.7899999,-9.835380554199219,-0.22744916379451752,1.6950948238372803,4.547119140625,-5.157470703125,-2.3193359375
10.809999900000001,-9.77791976928711,-0.24181437492370605,1.802833914756775,2.6397705078125,1.8157958984375,0.152587890625
10.8299999,-9.732429504394531,-0.033518824726343155,1.9393033981323242,-4.058837890625,3.72314453125,5.1116943359375
10.8499999,-9.674968719482422,0.15562310814857483,2.0661959648132324,-13.7481689453125,6.866455078125,5.2490234375
10.8699999,-9.674968719482422,0.2992752194404602,2.166752576828003,-16.9525146484375,8.392333984375,2.3345947265625
10.889999900000001,-9.734824180603027,0.2801215946674347,2.094926595687866,-9.307861328125,2.3651123046875,-0.823974609375
10.9099999,-9.81143856048584,0.11252748221158981,2.013523578643799,1.495361328125,-1.190185546875,-2.3193359375
10.9299999,-9.830592155456543,-0.07182604819536209,1.8076223134994507,6.591796875,0.518798828125,-5.5084228515625
10.9499999,-9.861717224121094,-0.1388636976480484,1.7286136150360107,6.2408447265625,6.683349609375,-4.7454833984375
10.969999900000001,-9.75637149810791,-0.043095629662275314,1.7621324062347412,-4.0283203125,9.033203125,0.5950927734375
10.9899999,-9.727641105651855,0.17238251864910126,2.0877439975738525,-29.35791015625,16.17431640625,1.28173828125
11.0099999,-9.624691009521484,0.4165911078453064,2.3750481605529785,-55.8624267578125,29.4036865234375,-2.777099609375
11.0299999,-9.552865028381348,0.5650315880775452,2.7030537128448486,-68.6187744140625,34.8358154296875,-1.434326171875
11.049999900000001,-9.373299598693848,0.5913678407669067,2.8634653091430664,-79.437255859375,45.562744140625,1.220703125
11.069999900000001,-8.652645111083984,0.11971008777618408,2.559401512145996,-93.07861328125,52.8411865234375,9.2926025390625
11.0899999,-7.613561630249023,-0.7565677165985107,1.7357962131500244,-70.6634521484375,48.1414794921875,20.0653076171875
11.1099999,-7.1490864753723145,-1.8267759084701538,0.26336219906806946,6.3323974609375,19.134521484375,19.8211669921875
11.129999900000001,-7.438784599304199,-2.542642116546631,-1.455674648284912,94.8638916015625,-26.153564453125,21.331787109375
11.149999900000001,-8.655038833618164,-2.4181437492370605,-2.6862943172454834,141.6168212890625,-61.7828369140625,22.5677490234375
11.1699999,-10.69489860534668,-0.7589619159698486,-1.7932571172714233,126.0528564453125,-70.9075927734375,16.876220703125
11.1899999,-12.15057373046875,1.216254472732544,0.16998831927776337,0.0457763671875,-7.659912109375,-0.5645751953125
11.209999900000001,-12.6365966796875,3.155557870864868,3.045424461364746,-122.6959228515625,72.1435546875,-3.5400390625
11.229999900000001,-12.172121047973633,4.3861775398254395,5.231330871582031,-166.9921875,90.057373046875,-1.6937255859375
11.2499999,-11.216835021972656,3.9240965843200684,4.819528102874756,-194.671630859375,83.404541015625,8.941650390625
11.2699999,-10.522516250610352,2.190694570541382,2.8203697204589844,-125.518798828125,50.9796142578125,15.4876708984375
11.2899999,-10.15141487121582,0.08140286058187485,-0.2968810200691223,5.1422119140625,-4.08935546875,8.23974609375
11.309999900000001,-10.412383079528809,-1.98958158493042,-3.0310592651367188,88.4857177734375,-55.7861328125,14.7552490234375
11.3299999,-10.400412559509277,-2.765302896499634,-4.077325344085693,107.2998046875,-71.7010498046875,14.2059326171875
11.3499999,-10.053253173828125,-2.140416383743286,-3.203441858291626,79.986572265625,-55.8624267578125,10.7879638671875
11.3699999,-9.478644371032715,-0.6943184733390808,-0.950498104095459,31.9061279296875,-21.270751953125,3.0059814453125
11.389999900000001,-8.942343711853027,0.9816226959228516,1.6328455209732056,-56.09130859375,27.4505615234375,-13.702392578125
11.4099999,-8.820239067077637,2.056619167327881,3.4739866256713867,-68.4051513671875,44.98291015625,-20.93505859375
11.4299999,-9.038111686706543,2.4372973442077637,3.9408559799194336,-15.4266357421875,36.7431640625,-18.37158203125
11.4499999,-9.53849983215332,2.013523578643799,3.2417490482330322,9.6588134765625,21.4691162109375,-16.876220703125
11.469999900000001,-9.962273597717285,1.1971008777618408,1.8962076902389526,26.6265869140625,6.072998046875,-17.669677734375
11.4899999,-10.182539939880371,0.3471592366695404,0.7876923680305481,21.0418701171875,2.288818359375,-14.2822265625
11.5099999,-10.20887565612793,-0.2849099934101105,0.2082955539226532,-12.7716064453125,13.1378173828125,-5.126953125
11.5299999,-10.141838073730469,-0.5602431893348694,0.17956513166427612,-41.778564453125,22.8118896484375,1.129150390625
11.549999900000001,-10.04846477508545,-0.5530605912208557,0.3878606855869293,-40.8935546875,25.1922607421875,0.42724609375
11.569999900000001,-9.998186111450195,-0.36152446269989014,0.5554547905921936,-25.5126953125,24.2156982421875,-4.241943359375
11.5899999,-9.938331604003906,-0.13407529890537262,0.5602431893348694,-8.697509765625,20.2178955078125,-9.5062255859375
11.6099999,-9.914389610290527,0.08858546614646912,0.4405331015586853,0.67138671875,15.8538818359375,-11.5966796875
11.629999900000001,-9.914389610290527,0.21547815203666687,0.3016694188117981,5.2337646484375,12.5885009765625,-14.2059326171875
11.649999900000001,-9.938331604003906,0.2346317619085312,0.22505496442317963,1.0986328125,12.75634765625,-15.9149169921875
11.6699999,-10.02452278137207,0.22744916379451752,0.19871874153614044,-17.791748046875,16.5557861328125,-13.1072998046875
11.6899999,-9.974244117736816,0.06464344263076782,0.2346317619085312,-80.841064453125,16.4337158203125,-5.7220458984375
11.709999900000001,-9.988609313964844,-0.0933738648891449,0.17956513166427612,-8.4381103515625,15.19775390625,-13.763427734375
11.729999900000001,-9.967061996459961,-0.3974374830722809,0.08140286058187485,11.1083984375,15.1519775390625,-16.3116455078125
11.7499999,-10.034099578857422,-0.8020575642585754,-0.16519992053508759,13.24462890625,9.857177734375,-11.0015869140625
11.7699999,-10.139444351196289,-1.1659762859344482,-0.47405192255973816,19.134521484375,0.9918212890625,0.0457763671875
11.7899999,-10.20648193359375,-1.436521053314209,-0.7230489253997803,19.7601318359375,-9.2620849609375,7.4462890625
11.809999900000001,-10.26394271850586,-1.4053963422775269,-0.8571242094039917,15.44189453125,-11.41357421875,10.19287109375
11.8299999,-10.268731117248535,-1.0869675874710083,-0.7781155705451965,11.29150390625,-13.6260986328125,8.5601806640625
11.8499999,-10.261548042297363,-0.569819986820221,-0.8259995579719543,13.3819580078125,-21.148681640625,3.9825439453125
11.8699999,-10.218452453613281,-0.17717093229293823,-0.7206547260284424,25.421142578125,-38.4979248046875,-2.471923828125
11.889999900000001,-10.156203269958496,0.10295066982507706,-0.6320692300796509,36.68212890625,-48.004150390625,-7.2479248046875
11.9099999,-10.036493301391602,0.08140286058187485,-0.2513911724090576,50.5523681640625,-41.168212890625,-6.7138671875
11.9299999,-9.847352027893066,-0.08858546614646912,0.4165911078453064,45.47119140625,-36.7889404296875,-5.18798828125
11.9499999,-9.720458984375,-0.2298433631658554,1.2114660739898682,35.308837890625,-21.759033203125,-0.885009765625
11.969999900000001,-9.66299819946289,-0.33997663855552673,1.824381709098816,10.711669921875,-1.983642578125,3.5858154296875
11.9899999,-9.799467086791992,-0.2801215946674347,2.0159177780151367,3.9215087890625,5.5084228515625,3.96728515625
12.0099999,-9.785101890563965,-0.2801215946674347,1.802833914756775,19.5770263671875,-1.007080078125,1.0833740234375
12.0299999,-10.036493301391602,-0.181959331035614,1.2114660739898682,37.8875732421875,9.8876953125,9.1094970703125
12.049999900000001,-10.113107681274414,-0.31124621629714966,0.40940847992897034,57.373046875,17.9290771484375,11.9476318359375
12.069999900000001,-10.18493366241455,-0.35913026332855225,-0.33758243918418884,65.8416748046875,8.544921875,8.8348388671875
12.0899999,-10.441113471984863,-0.5913678407669067,-1.2186486721038818,84.1522216796875,5.889892578125,6.89697265625
12.1099999,-10.551246643066406,-0.7637503147125244,-1.7980455160140991,126.6632080078125,-8.0718994140625,-0.1983642578125
12.129999900000001,-10.553641319274902,-0.7038952708244324,-1.6879122257232666,152.1759033203125,-22.03369140625,-2.1209716796875
12.149999900000001,-10.299856185913086,-0.38067805767059326,-0.6943184733390808,116.7144775390625,-24.5208740234375,5.218505859375
12.1699999,-9.885659217834473,0.090979665517807,0.9433154463768005,41.1834716796875,-9.4451904296875,14.0838623046875
12.1899999,-9.509769439697266,0.5051765441894531,2.3295583724975586,3.5858154296875,12.786865234375,12.7410888671875
12.209999900000001,-9.282320022583008,0.8475474119186401,3.3686418533325195,22.705078125,17.6849365234375,0.9002685546875
12.229999900000001,-9.287108421325684,0.9983820915222168,3.56017804145813,16.9677734375,5.5694580078125,2.01416015625
12.2499999,-9.485827445983887,1.0199298858642578,3.2537200450897217,-12.75634765625,14.2974853515625,4.4097900390625
12.2699999,-9.706093788146973,0.9361328482627869,2.5234885215759277,-7.6446533203125,21.54541015625,0.732421875
12.289999900000002,-9.90241813659668,0.7541735172271729,1.5825673341751099,33.4930419921875,3.0059814453125,-1.77001953125
12.309999900000001,-10.067618370056152,0.507570743560791,0.6536170840263367,57.9071044921875,-13.5345458984375,-6.744384765625
12.3299999,-10.007762908935547,0.38546648621559143,0.2513911724090576,39.642333984375,-12.8021240234375,-7.080078125
12.3499999,-10.02691650390625,0.12449848651885986,0.1867477297782898,13.7939453125,-0.885009765625,-2.3345947265625
12.3699999,-10.089165687561035,-0.14365209639072418,0.21308395266532898,31.951904296875,5.3253173828125,-2.0599365234375
12.389999900000001,-10.237606048583984,-0.5793967843055725,-0.07900865375995636,76.446533203125,-17.2576904296875,-0.1220703125
12.4099999,-10.247182846069336,-0.7445967197418213,-0.24660277366638184,116.2109375,-41.2139892578125,-1.9683837890625
12.4299999,-10.072406768798828,-0.4644751250743866,0.07661445438861847,113.1134033203125,-35.5224609375,-1.5411376953125
12.4499999,-9.59596061706543,0.38067805767059326,1.2617442607879639,61.767578125,-7.14111328125,-2.1514892578125
12.469999900000001,-9.10993766784668,2.8347349166870117,4.110844135284424,-104.400634765625,64.9871826171875,0.2288818359375
12.4899999,-9.157821655273438,3.6128504276275635,4.55616569519043,-153.5797119140625,63.018798828125,-3.60107421875
12.5099999,-9.979032516479492,3.804386615753174,3.7014358043670654,-166.595458984375,78.5675048828125,-9.185791015625
12.5299999,-10.8505220413208,3.1268274784088135,1.8507179021835327,-139.5111083984375,72.509765625,-28.86962890625
12.549999900000001,-11.405977249145508,1.6280571222305298,-0.7206547260284424,-76.2786865234375,47.149658203125,-29.6478271484375
12.569999900000001,-11.820174217224121,0.009576806798577309,-3.1459810733795166,-6.1187744140625,-3.0364990234375,-12.0849609375
12.5899999,-11.60948371887207,-1.7693150043487549,-4.774038314819336,38.39111328125,-49.163818359375,-4.94384765625
12.6099999,-11.386823654174805,-2.736572504043579,-4.9368438720703125,58.04443359375,-51.025390625,1.5106201171875
12.629999900000001,-11.563994407653809,-2.9089550971984863,-3.801992416381836,51.33056640625,-40.6036376953125,-6.805419921875
12.649999900000001,-11.827356338500977,-2.3247697353363037,-1.8315643072128296,32.0587158203125,-23.9410400390625,-27.4200439453125
12.6699999,-12.24155330657959,-1.2713210582733154,0.13168109953403473,10.711669921875,2.0599365234375,-33.538818359375
12.6899999,-12.145785331726074,-0.3064578175544739,1.5131354331970215,-2.960205078125,16.2200927734375,-34.72900390625
12.709999900000001,-11.463438034057617,0.3758896589279175,2.0901381969451904,-6.9732666015625,14.739990234375,-26.6265869140625
12.729999900000001,-10.345345497131348,0.545877993106842,1.9608511924743652,-2.5787353515625,7.2784423828125,-14.5111083984375
12.7499999,-9.014169692993164,0.4118026793003082,1.4532804489135742,7.8125,3.3111572265625,1.2969970703125
12.7699999,-7.754819393157959,0.026336219161748886,0.9265560507774353,14.1754150390625,9.124755859375,17.669677734375
12.789999900000002,-6.794744491577148,-0.3878606855869293,0.5123591423034668,10.25390625,18.9971923828125,31.8145751953125
12.809999900000001,-6.435614109039307,-0.7158663272857666,0.19871874153614044,10.2996826171875,16.2811279296875,41.19873046875
12.8299999,-6.5696892738342285,-0.8379706144332886,0.031124621629714966,9.8114013671875,-17.974853515625,38.0706787109375
12.8499999,-7.122750282287598,-0.8044517636299133,-0.06224924325942993,8.8958740234375,-41.0919189453125,23.2696533203125
12.8699999,-7.797914981842041,-0.6416460275650024,0.002394201699644327,11.3372802734375,-27.9388427734375,11.383056640625
12.889999900000001,-8.406042098999023,-0.47165772318840027,0.24181437492370605,9.002685546875,-3.265380859375,3.753662109375
12.9099999,-8.959102630615234,-0.33518823981285095,0.5003881454467773,6.439208984375,11.77978515625,-2.716064453125
12.9299999,-9.495404243469238,-0.22744916379451752,0.7326257228851318,-1.3427734375,2.38037109375,-8.9263916015625
12.9499999,-9.93593692779541,-0.15801730751991272,0.8906430602073669,-16.78466796875,-21.0723876953125,-12.847900390625
12.969999900000001,-10.093954086303711,-0.09816227108240128,1.039083480834961,-29.022216796875,-33.3404541015625,-11.5203857421875
12.9899999,-10.0580415725708,-0.21787235140800476,1.0773907899856567,-36.376953125,-12.87841796875,-7.9803466796875
13.0099999,-9.782708168029785,-0.3280056416988373,1.091755986213684,-32.318115234375,27.3590087890625,-10.8489990234375
13.0299999,-9.727641105651855,-0.5267243981361389,0.8978256583213806,-27.16064453125,48.64501953125,-20.6146240234375
13.049999900000001,-9.80904483795166,-0.6799532771110535,0.5937620401382446,-28.50341796875,15.777587890625,-21.270751953125
13.069999900000001,-9.974244117736816,-0.7781155705451965,0.27054479718208313,-29.510498046875,-19.439697265625,-12.1917724609375
13.0899999,-10.070012092590332,-0.8355764150619507,0.016759412363171577,-24.59716796875,-14.9993896484375,-5.3863525390625
13.1099999,-9.962273597717285,-0.8331822156906128,-0.08619125932455063,-16.9830322265625,6.8206787109375,-4.180908203125
13.129999900000001,-9.765948295593262,-0.7637503147125244,-0.05506663769483566,-12.0391845703125,18.707275390625,-3.90625
13.149999900000001,-9.641449928283691,-0.5913678407669067,0.021547814831137657,-10.3607177734375,21.4385986328125,-2.777099609375
13.1699999,-9.59596061706543,-0.395043283700943,0.1173158809542656,-8.97216796875,13.458251953125,3.2501220703125
13.1899999,-9.641449928283691,-0.22744916379451752,0.19393034279346466,-8.636474609375,5.6915283203125,12.9241943359375
13.209999900000001,-9.715670585632324,-0.09576806426048279,0.21547815203666687,-5.2947998046875,5.06591796875,19.8516845703125
13.229999900000001,-9.794678688049316,0.014365210197865963,0.22266076505184174,0,6.927490234375,18.402099609375
13.2499999,-9.890447616577148,0.07661445438861847,0.1843535304069519,5.706787109375,11.8255615234375,10.6964111328125
13.2699999,-10.010157585144043,0.14844051003456116,0.14365209639072418,6.9732666015625,3.570556640625,9.33837890625
13.289999900000002,-10.15141487121582,0.19871874153614044,0.12928688526153564,2.3651123046875,-11.8255615234375,10.9100341796875
13.309999900000001,-10.292673110961914,0.20350714027881622,0.16519992053508759,-0.7781982421875,-13.885498046875,7.3089599609375
13.3299999,-10.417171478271484,0.17477671802043915,0.2585737705230713,-1.6632080078125,-2.50244140625,5.37109375
13.3499999,-10.599130630493164,0.12689268589019775,0.3734954595565796,-3.11279296875,5.5084228515625,10.1776123046875
13.3699999,-10.78587818145752,0.07661445438861847,0.4644751250743866,-3.8909912109375,0.8087158203125,12.1917724609375
13.389999900000001,-10.92953109741211,0.023942016065120697,0.5171475410461426,-3.0059814453125,-8.6517333984375,4.547119140625
13.4099999,-10.931924819946289,-0.0071826050989329815,0.5267243981361389,-0.6256103515625,-9.3841552734375,-3.5858154296875
13.4299999,-10.757147789001465,-0.05985504388809204,0.524330198764801,1.007080078125,-2.288818359375,-5.3863525390625
13.4499999,-10.484209060668945,-0.10295066982507706,0.5171475410461426,1.5716552734375,1.64794921875,-4.241943359375
13.469999900000001,-10.189722061157227,-0.1628057211637497,0.5051765441894531,1.0528564453125,-4.852294921875,-5.279541015625
13.4899999,-9.93593692779541,-0.19153612852096558,0.49799394607543945,-1.1138916015625,-17.7154541015625,-4.1961669921875
13.5099999,-9.909601211547852,-0.12928688526153564,0.5195417404174805,-3.35693359375,-22.0184326171875,0.6256103515625
13.5299999,-9.8784761428833,-0.11971008777618408,0.5410895943641663,-4.150390625,-8.0413818359375,-2.593994140625
13.549999900000001,-9.99339771270752,0.004788403399288654,0.5937620401382446,-5.096435546875,7.415771484375,-10.7269287109375
13.569999900000001,-10.022128105163574,0.08379705995321274,0.586579442024231,-8.0718994140625,5.43212890625,-11.0931396484375
13.5899999,-10.101137161254883,0.2322375625371933,0.524330198764801,-7.6141357421875,0.579833984375,-6.6986083984375
13.6099999,-10.06043529510498,0.35434186458587646,0.3926490843296051,-2.62451171875,-4.3792724609375,-5.0811767578125
13.629999900000001,-9.797073364257812,0.3280056416988373,0.24660277366638184,1.373291015625,-9.33837890625,-5.0201416015625
13.649999900000001,-9.928754806518555,0.33518823981285095,0.10534487664699554,0.42724609375,-13.0767822265625,-5.2032470703125
13.6699999,-9.81143856048584,0.1867477297782898,0.011971008032560349,2.5787353515625,-15.4266357421875,-10.711669921875
13.6899999,-10.08198356628418,0.0933738648891449,0.016759412363171577,8.8043212890625,-19.3939208984375,-11.199951171875
13.709999900000001,-10.223240852355957,-0.08140286058187485,0.07900865375995636,10.7574462890625,-23.6053466796875,-11.0321044921875
13.729999900000001,-10.271124839782715,-0.31603461503982544,0.23702596127986908,8.087158203125,-24.7344970703125,-7.4615478515625
13.7499999,-10.160991668701172,-0.5817909836769104,0.5339069962501526,5.6610107421875,-23.2086181640625,-4.57763671875
13.7699999,-10.034099578857422,-0.8068459630012512,0.9217676520347595,1.15966796875,-19.2108154296875,0.1373291015625
13.789999900000002,-9.940725326538086,-0.9888052940368652,1.3335703611373901,-6.591796875,-13.5650634765625,3.9520263671875
13.809999900000001,-9.890447616577148,-1.1252747774124146,1.678335428237915,-11.962890625,-7.8125,10.009765625
13.8299999,-9.835380554199219,-1.170764684677124,1.9105730056762695,-13.9007568359375,-4.150390625,16.4337158203125
13.8499999,-9.782708168029785,-1.094150185585022,2.0685901641845703,-18.524169921875,-0.732421875,19.683837890625
13.8699999,-9.742006301879883,-0.8044517636299133,2.1356279850006104,-29.8309326171875,7.7056884765625,19.622802734375
13.889999900000001,-9.68933391571045,-0.4429273009300232,2.078166961669922,-37.6739501953125,14.923095703125,18.646240234375
13.9099999,-9.730035781860352,-0.021547814831137657,1.8746598958969116,-34.8968505859375,14.3280029296875,14.801025390625
13.9299999,-9.761159896850586,0.23942017555236816,1.5059528350830078,-25.421142578125,9.7198486328125,9.796142578125
13.9499999,-9.86650562286377,0.3974374830722809,1.0271124839782715,-12.6495361328125,6.9580078125,5.7373046875
13.969999900000001,-9.981427192687988,0.40462008118629456,0.5051765441894531,2.8076171875,1.9073486328125,3.0670166015625
13.9899999,-10.086771965026855,0.33997663855552673,0.11252748221158981,17.4560546875,-7.6751708984375,0.1983642578125
14.0099999,-10.11789608001709,0.3016694188117981,-0.05746084079146385,21.5911865234375,-12.8936767578125,-0.8392333984375
14.0299999,-10.110713958740234,0.2585737705230713,0.033518824726343155,15.13671875,-12.3138427734375,-0.0457763671875
14.049999900000001,-10.08437728881836,0.1867477297782898,0.33997663855552673,9.1094970703125,-13.48876953125,0.091552734375
14.069999900000001,-9.979032516479492,0.1173158809542656,0.7996633648872375,6.8359375,-15.7012939453125,-1.1444091796875
14.0899999,-9.911994934082031,-0.05985504388809204,1.2425906658172607,4.1656494140625,-11.0626220703125,-1.6326904296875
14.1099999,-9.832986831665039,-0.2106897532939911,1.5897499322891235,1.0986328125,-3.35693359375,-0.4425048828125
14.129999900000001,-9.77791976928711,-0.272938996553421,1.867477297782898,-2.38037109375,1.5716552734375,1.983642578125
14.149999900000001,-9.770736694335938,-0.22744916379451752,1.9536685943603516,-7.8125,5.1116943359375,4.5166015625
14.1699999,-9.780313491821289,-0.0933738648891449,1.86508309841156,-13.763427734375,8.1787109375,4.5623779296875
14.1899999,-9.84495735168457,0.090979665517807,1.6280571222305298,-14.9688720703125,9.8724365234375,4.364013671875
14.209999900000001,-9.945513725280762,0.24181437492370605,1.3263877630233765,-10.5133056640625,3.23486328125,3.90625
14.229999900000001,-10.007762908935547,0.2561795711517334,1.039083480834961,-5.2490234375,-4.4708251953125,0.6103515625
14.2499999,-10.062829971313477,0.23702596127986908,0.8475474119186401,-0.9307861328125,-4.2572021484375,-3.448486328125
14.2699999,-9.998186111450195,0.1388636976480484,0.7709329724311829,3.96728515625,-2.4566650390625,-4.913330078125
14.289999900000002,-9.971850395202637,0.10055647045373917,0.811634361743927,8.7127685546875,-2.0599365234375,-4.913330078125
14.309999900000001,-9.914389610290527,0.0454898327589035,0.9481038451194763,8.6822509765625,-1.495361328125,-3.9825439453125
14.3299999,-9.888052940368652,0.05985504388809204,1.094150185585022,2.8839111328125,1.3885498046875,-1.9073486328125
14.3499999,-9.909601211547852,0.014365210197865963,1.2425906658172607,-2.044677734375,2.655029296875,0.8087158203125
14.3699999,-9.921571731567383,-0.05506663769483566,1.3048399686813354,-2.410888671875,-1.6326904296875,1.922607421875
14.389999900000001,-9.923966407775879,-0.12928688526153564,1.3096283674240112,-0.1678466796875,-5.126953125,-0.213623046875
14.4099999,-9.950302124023438,-0.21547815203666687,1.2234370708465576,1.77001953125,-3.5858154296875,-1.89208984375
14.4299999,-9.911994934082031,-0.26336219906806946,1.1492167711257935,3.6468505859375,-2.3040771484375,-0.30517578125
14.4499999,-9.904812812805176,-0.22266076505184174,1.0582371950149536,5.8746337890625,-1.03759765625,1.3275146484375
14.469999900000001,-9.907206535339355,-0.15562310814857483,1.0319008827209473,6.7138671875,-2.532958984375,1.15966796875
14.4899999,-9.919178009033203,-0.004788403399288654,1.05105459690094,5.1116943359375,-3.3721923828125,2.2430419921875
14.5099999,-9.95748519897461,0.08858546614646912,1.1276689767837524,1.15966796875,-4.852294921875,4.2572021484375
14.5299999,-9.952696800231934,0.1604115068912506,1.2545616626739502,-1.8310546875,-6.8511962890625,2.1514892578125
14.549999900000001,-9.909601211547852,0.18914192914962769,1.3623007535934448,-2.7008056640625,-5.645751953125,-2.86865234375
14.569999900000001,-9.835380554199219,0.14365209639072418,1.5418659448623657,-5.4168701171875,-0.579833984375,-3.6773681640625
14.5899999,-9.773131370544434,0.12928688526153564,1.6089035272598267,-8.697509765625,6.1798095703125,-0.579833984375
14.6099999,-9.758766174316406,0.06224924325942993,1.6639702320098877,-8.514404296875,8.2855224609375,0.2593994140625
14.629999900000001,-9.770736694335938,0.033518824726343155,1.5729905366897583,-5.126953125,5.92041015625,0.6103515625
14.649999900000001,-9.8784761428833,-0.016759412363171577,1.4101848602294922,-1.800537109375,2.960205078125,3.021240234375
14.6699999,-9.919178009033203,-0.047884032130241394,1.2258312702178955,0.1983642578125,-1.373291015625,3.3111572265625
14.6899999,-10.007762908935547,-0.0454898327589035,1.0893617868423462,2.13623046875,-4.5166015625,-2.288818359375
14.709999900000001,-9.971850395202637,-0.07900865375995636,1.0414776802062988,4.669189453125,-4.21142578125,-5.462646484375
14.729999900000001,-9.943120002746582,-0.05746084079146385,1.070208191871643,4.1656494140625,-1.0528564453125,-2.86865234375
14.7499999,-9.888052940368652,-0.05746084079146385,1.173158884048462,1.1138916015625,3.265380859375,0.1373291015625
14.7699999,-9.871294021606445,-0.023942016065120697,1.2665326595306396,-1.0528564453125,3.6468505859375,0.1373291015625
14.789999900000002,-9.8784761428833,0.021547814831137657,1.314416766166687,-0.396728515625,2.6702880859375,1.8463134765625
14.809999900000001,-9.940725326538086,0.038307227194309235,1.3263877630233765,0.2593994140625,-1.0833740234375,4.974365234375
14.8299999,-9.988609313964844,0.0454898327589035,1.2952631711959839,0.4425048828125,-5.7373046875,2.349853515625
14.8499999,-9.959878921508789,0.011971008032560349,1.2832920551300049,0.091552734375,-5.157470703125,-2.899169921875
14.8699999,-9.931148529052734,-0.06464344263076782,1.3048399686813354,-2.197265625,-2.2430419921875,-1.4495849609375
14.889999900000001,-9.873687744140625,-0.09816227108240128,1.3192051649093628,-5.2947998046875,1.800537109375,2.960205078125
14.9099999,-9.830592155456543,-0.13168109953403473,1.3192051649093628,-6.072998046875,1.495361328125,4.2724609375
14.9299999,-9.864110946655273,-0.13407529890537262,1.3048399686813354,-4.730224609375,-0.0762939453125,5.06591796875
14.9499999,-9.907206535339355,-0.05267243832349777,1.2617442607879639,-3.326416015625,-1.77001953125,8.1329345703125
14.969999900000001,-9.96945571899414,-0.040701430290937424,1.2090718746185303,-1.9073486328125,-6.4239501953125,9.33837890625
14.9899999,-9.962273597717285,0.06464344263076782,1.1994950771331787,0.579833984375,-9.9334716796875,4.2877197265625
15.0099999,-9.931148529052734,0.07661445438861847,1.256955862045288,1.068115234375,-7.8277587890625,-0.030517578125
15.0299999,-9.86650562286377,0.17956513166427612,1.3718775510787964,-2.50244140625,-3.662109375,0.457763671875
15.049999900000001,-9.80904483795166,0.20350714027881622,1.50355863571167,-5.9661865234375,0.244140625,2.8228759765625
15.069999900000001,-9.799467086791992,0.24181437492370605,1.5897499322891235,-7.415771484375,1.46484375,3.3721923828125
15.0899999,-9.785101890563965,0.29209262132644653,1.623268723487854,-7.049560546875,1.800537109375,3.387451171875
15.1099999,-9.799467086791992,0.3280056416988373,1.6208745241165161,-5.2642822265625,1.556396484375,4.5623779296875
15.129999900000001,-9.835380554199219,0.33039984107017517,1.6208745241165161,-5.18798828125,0.152587890625,4.8828125
15.149999900000001,-9.852140426635742,0.31603461503982544,1.5873557329177856,-3.4027099609375,-3.5552978515625,1.1138916015625
15.1699999,-9.888052940368652,0.22505496442317963,1.5897499322891235,2.288818359375,-2.99072265625,-4.1046142578125
15.1899999,-9.888052940368652,0.14365209639072418,1.556231141090393,5.157470703125,-0.885009765625,-4.2877197265625
15.209999900000001,-9.914389610290527,0.028730420395731926,1.5298948287963867,6.4697265625,1.922607421875,-1.190185546875
15.229999900000001,-9.873687744140625,0.05506663769483566,1.5514427423477173,4.8980712890625,3.692626953125,1.4495849609375
15.2499999,-9.84256362915039,0.10773907601833344,1.601720929145813,-2.2125244140625,6.683349609375,2.166748046875
15.2699999,-9.804255485534668,0.2753331959247589,1.678335428237915,-11.29150390625,9.6588134765625,3.143310546875
15.289999900000002,-9.77791976928711,0.40701428055763245,1.7262194156646729,-16.0980224609375,9.1552734375,2.62451171875
15.309999900000001,-9.799467086791992,0.43335050344467163,1.6328455209732056,-12.542724609375,6.1492919921875,-0.9765625
15.3299999,-9.883264541625977,0.33758243918418884,1.414973258972168,-1.007080078125,2.7008056640625,-6.2408447265625
15.3499999,-9.921571731567383,0.1364694982767105,1.072602391242981,12.8021240234375,-1.52587890625,-6.591796875
15.3699999,-9.986215591430664,-0.05027823522686958,0.7661445140838623,21.5606689453125,-4.547119140625,-3.0670166015625
15.389999900000001,-9.96945571899414,-0.13168109953403473,0.646434485912323,21.3470458984375,-7.537841796875,-0.8392333984375
15.4099999,-9.979032516479492,-0.035913024097681046,0.8020575642585754,10.955810546875,-5.340576171875,-0.4730224609375
15.4299999,-9.895236015319824,0.11971008777618408,1.1851298809051514,-5.3558349609375,-0.7171630859375,2.13623046875
15.4499999,-9.856928825378418,0.2825157940387726,1.6519991159439087,-17.547607421875,2.8228759765625,2.2735595703125
15.469999900000001,-9.799467086791992,0.33518823981285095,1.9632453918457031,-19.10400390625,4.8065185546875,1.556396484375
15.4899999,-9.813833236694336,0.21547815203666687,1.9967641830444336,-12.14599609375,7.1258544921875,-1.6021728515625
15.5099999,-9.86650562286377,0.023942016065120697,1.742978811264038,-0.701904296875,4.547119140625,-0.6103515625
15.5299999,-9.940725326538086,-0.11013327538967133,1.3455413579940796,7.2174072265625,1.1444091796875,2.38037109375
15.549999900000001,-9.979032516479492,-0.12210428714752197,1.0031704902648926,7.843017578125,-2.0599365234375,4.8980712890625
15.569999900000001,-10.02691650390625,-0.0071826050989329815,0.8140285611152649,2.9449462890625,-2.8839111328125,5.096435546875
15.5899999,-10.012551307678223,0.17238251864910126,0.8571242094039917,-2.685546875,-5.218505859375,4.94384765625
15.6099999,-9.99339771270752,0.304063618183136,1.0582371950149536,-5.92041015625,-6.8511962890625,4.1046142578125
15.629999900000001,-9.931148529052734,0.31364041566848755,1.3072341680526733,-3.96728515625,-7.01904296875,3.3721923828125
15.649999900000001,-9.885659217834473,0.2561795711517334,1.5275006294250488,1.617431640625,-3.8604736328125,-0.7171630859375
15.6699999,-9.801861763000488,0.16519992053508759,1.6543933153152466,6.8206787109375,-2.44140625,-1.495361328125
15.6899999,-9.780313491821289,0.13407529890537262,1.7405846118927002,7.904052734375,1.2969970703125,0.18310546875
15.709999900000001,-9.710882186889648,0.19871874153614044,1.7836803197860718,3.173828125,4.8828125,2.9296875
15.729999900000001,-9.742006301879883,0.30885201692581177,1.7812861204147339,-6.0882568359375,9.307861328125,3.448486328125
15.7499999,-9.739612579345703,0.4141969084739685,1.7717092037200928,-12.1002197265625,8.3160400390625,2.9754638671875
15.7699999,-9.80904483795166,0.4836287498474121,1.6687586307525635,-13.00048828125,4.9896240234375,1.617431640625
15.789999900000002,-9.849745750427246,0.43095630407333374,1.4844050407409668,-7.3089599609375,1.4801025390625,1.129150390625
15.809999900000001,-9.928754806518555,0.3280056416988373,1.2832920551300049,2.349853515625,-0.18310546875,-3.082275390625
15.8299999,-9.909601211547852,0.1867477297782898,1.0606313943862915,11.1236572265625,-3.23486328125,-3.96728515625
15.8499999,-9.950302124023438,0.090979665517807,0.912190854549408,16.326904296875,-4.119873046875,-2.716064453125
15.869999900000002,-9.943120002746582,0.05985504388809204,0.8810662031173706,16.5252685546875,-4.8065185546875,-0.1373291015625
15.889999900000001,-9.909601211547852,0.14604631066322327,1.015141487121582,11.322021484375,-4.638671875,1.678466796875
15.9099999,-9.923966407775879,0.26336219906806946,1.237802267074585,3.84521484375,-3.3721923828125,1.40380859375
15.9299999,-9.856928825378418,0.3998316824436188,1.5394717454910278,-3.5552978515625,-1.77001953125,-0.8544921875
15.9499999,-9.84256362915039,0.4812345504760742,1.7980455160140991,-6.6070556640625,0.6256103515625,0.1983642578125
15.969999900000001,-9.816226959228516,0.4405331015586853,1.8962076902389526,-4.669189453125,1.0833740234375,-0.5645751953125
15.9899999,-9.787496566772461,0.3734954595565796,1.8698714971542358,-0.457763671875,2.5787353515625,-2.9296875
16.0099999,-9.78989028930664,0.17717093229293823,1.699883222579956,2.044677734375,2.5482177734375,-3.47900390625
16.0299999,-9.77791976928711,0.10773907601833344,1.5418659448623657,2.3651123046875,5.2490234375,-1.4801025390625
16.0499999,-9.821015357971191,0.047884032130241394,1.3742717504501343,1.220703125,4.45556640625,2.044677734375
16.0699999,-9.90241813659668,0.19153612852096558,1.2401964664459229,-4.57763671875,2.227783203125,2.9296875
16.089999900000002,-9.904812812805176,0.26336219906806946,1.2042834758758545,-3.6468505859375,-0.2593994140625,1.4495849609375
16.109999900000002,-9.931148529052734,0.272938996553421,1.2042834758758545,0.54931640625,-3.692626953125,0.823974609375
16.1299999,-9.93354320526123,0.30885201692581177,1.2306196689605713,5.7373046875,-7.3394775390625,1.739501953125
16.1499999,-9.940725326538086,0.24660277366638184,1.2665326595306396,8.6669921875,-8.23974609375,-0.7781982421875
16.1699999,-9.907206535339355,0.22744916379451752,1.3742717504501343,8.2855224609375,-5.126953125,-2.4871826171875
16.1899999,-9.854534149169922,0.1867477297782898,1.4652514457702637,5.5389404296875,-3.753662109375,-2.0294189453125
16.2099999,-9.840168952941895,0.14844051003456116,1.5610195398330688,2.197265625,0.030517578125,0.823974609375
16.2299999,-9.813833236694336,0.1604115068912506,1.6376339197158813,-1.3885498046875,1.6937255859375,3.143310546875
16.249999900000002,-9.84256362915039,0.23942017555236816,1.6663644313812256,-4.69970703125,2.0294189453125,5.279541015625
16.269999900000002,-9.852140426635742,0.2944868206977844,1.659181833267212,-6.0272216796875,2.1820068359375,5.2490234375
16.2899999,-9.871294021606445,0.40940847992897034,1.644816517829895,-4.974365234375,1.5869140625,3.936767578125
16.3099999,-9.864110946655273,0.4381389021873474,1.5945383310317993,-4.94384765625,-0.5645751953125,2.532958984375
16.3299999,-9.861717224121094,0.49799394607543945,1.5394717454910278,-5.06591796875,-1.220703125,2.7923583984375
16.3499999,-9.861717224121094,0.4620809257030487,1.4867992401123047,-3.84521484375,-2.5177001953125,2.0599365234375
16.3699999,-9.828198432922363,0.4620809257030487,1.4748282432556152,-1.40380859375,-2.593994140625,-1.0223388671875
16.3899999,-9.80904483795166,0.3663128614425659,1.5155296325683594,-0.152587890625,-0.91552734375,-2.1514892578125
16.4099999,-9.806650161743164,0.26815059781074524,1.5466543436050415,-1.953125,2.5634765625,-1.190185546875
16.429999900000002,-9.818621635437012,0.21787235140800476,1.6136919260025024,-2.166748046875,6.2408447265625,1.8768310546875
16.4499999,-9.84495735168457,0.22026655077934265,1.580173134803772,-0.48828125,5.2490234375,2.6397705078125
16.4699999,-9.861717224121094,0.3064578175544739,1.5634137392044067,0.6561279296875,2.8839111328125,2.899169921875
16.4899999,-9.890447616577148,0.43095630407333374,1.4652514457702637,0.8544921875,2.5482177734375,1.2054443359375
16.5099999,-9.86650562286377,0.569819986820221,1.403002142906189,2.0294189453125,0.946044921875,-0.3662109375
16.5299999,-9.890447616577148,0.6536170840263367,1.357512354850769,2.7008056640625,-2.74658203125,-2.6702880859375
16.5499999,-9.952696800231934,0.6344634294509888,1.3239935636520386,3.143310546875,-4.119873046875,-2.9754638671875
16.5699999,-9.955090522766113,0.586579442024231,1.3694833517074585,3.631591796875,-4.9896240234375,-2.5787353515625
16.589999900000002,-10.034099578857422,0.45010992884635925,1.4077905416488647,4.2572021484375,-4.669189453125,-3.6468505859375
16.609999900000002,-10.019734382629395,0.3471592366695404,1.482010841369629,5.2490234375,-2.6702880859375,-4.241943359375
16.6299999,-10.019734382629395,0.33518823981285095,1.5298948287963867,6.4239501953125,-1.1444091796875,-5.1422119140625
16.6499999,-9.943120002746582,0.38307225704193115,1.6424223184585571,7.6751708984375,1.8463134765625,-6.1187744140625
16.6699999,-9.914389610290527,0.3926490843296051,1.601720929145813,8.575439453125,4.0740966796875,-6.77490234375
16.6899999,-9.787496566772461,0.42616790533065796,1.702277421951294,17.791748046875,0.4119873046875,-5.5999755859375
16.7099999,-9.725247383117676,0.36152446269989014,1.7310078144073486,20.20263671875,-0.06103515625,-5.3863525390625
16.7299999,-9.641449928283691,0.2944868206977844,1.922544002532959,10.80322265625,6.8359375,-4.9591064453125
16.749999900000002,-9.600749015808105,0.22505496442317963,2.1523873805999756,-0.732421875,15.13671875,-2.5177001953125
16.769999900000002,-9.66539192199707,0.15801730751991272,2.3056161403656006,-7.01904296875,21.7132568359375,0.1068115234375
16.7899999,-9.670180320739746,0.08858546614646912,2.2816741466522217,-6.7291259765625,24.0325927734375,1.922607421875
16.8099999,-9.821015357971191,0.0694318488240242,2.073378562927246,-5.4168701171875,23.37646484375,10.92529296875
16.8299999,-9.885659217834473,0.08858546614646912,1.7094600200653076,-4.730224609375,28.228759765625,9.857177734375
16.8499999,-10.393229484558105,0.2753331959247589,1.2880805730819702,-4.058837890625,20.1263427734375,1.373291015625
16.8699999,-10.898406028747559,0.3902548849582672,0.9193734526634216,-0.7171630859375,3.3416748046875,-2.3345947265625
16.8899999,-11.578359603881836,0.5770025849342346,0.6392518281936646,-1.0528564453125,-15.7012939453125,-5.1116943359375
16.9099999,-12.018892288208008,0.6416460275650024,0.45250412821769714,-0.457763671875,-10.8184814453125,-8.0108642578125
16.929999900000002,-11.96861457824707,0.6631938815116882,0.38067805767059326,4.7149658203125,0.4425048828125,-15.13671875
16.9499999,-11.468226432800293,0.629675030708313,0.33518823981285095,9.46044921875,12.481689453125,-21.8505859375
16.9699999,-10.639832496643066,0.5482721924781799,0.28969839215278625,10.528564453125,17.9595947265625,-22.39990234375
16.9899999,-9.648633003234863,0.3687070608139038,0.23942017555236816,8.819580078125,10.19287109375,-17.8680419921875
17.0099999,-8.65982723236084,0.08140286058187485,0.20350714027881622,5.8746337890625,2.7923583984375,-10.7879638671875
17.0299999,-7.805097579956055,-0.26815059781074524,0.20350714027881622,3.6163330078125,6.2103271484375,-1.64794921875
17.0499999,-7.225700855255127,-0.6009446382522583,0.24181437492370605,2.6702880859375,14.6484375,6.89697265625
17.0699999,-7.050923824310303,-0.8092401623725891,0.3064578175544739,3.0059814453125,18.2342529296875,9.307861328125
17.089999900000002,-7.299921035766602,-0.8475474119186401,0.4141969084739685,4.150390625,11.29150390625,3.3721923828125
17.109999900000002,-7.905653953552246,-0.7398083209991455,0.5674257874488831,5.06591796875,5.79833984375,-3.265380859375
17.1299999,-8.69095230102539,-0.524330198764801,0.768538773059845,3.814697265625,4.5623779296875,-3.326416015625
17.1499999,-9.469067573547363,-0.30885201692581177,1.0103530883789062,1.1138916015625,2.8076171875,-1.6937255859375
17.1699999,-10.108319282531738,-0.1149216815829277,1.2473790645599365,-1.0223388671875,0.7476806640625,-1.0833740234375
17.1899999,-10.56800651550293,0.033518824726343155,1.4508862495422363,-3.60107421875,-0.5950927734375,0.1068115234375
17.2099999,-10.852916717529297,0.13168109953403473,1.5729905366897583,-7.7667236328125,-1.251220703125,0.91552734375
17.2299999,-10.912771224975586,0.181959331035614,1.6304513216018677,-11.1541748046875,-6.622314453125,-1.007080078125
17.249999900000002,-10.805032730102539,0.20111294090747833,1.6065093278884888,-12.2222900390625,-8.4228515625,-3.021240234375
17.269999900000002,-10.563218116760254,0.20350714027881622,1.5394717454910278,-11.444091796875,-4.2877197265625,-0.640869140625
17.2899999,-10.278307914733887,0.22744916379451752,1.4269442558288574,-11.8408203125,-1.3885498046875,5.3863525390625
17.3099999,-9.981427192687988,0.29209262132644653,1.3000515699386597,-12.481689453125,-6.4544677734375,9.735107421875
17.3299999,-9.696516990661621,0.38546648621559143,1.170764684677124,-11.2457275390625,-10.1470947265625,12.02392578125
17.3499999,-9.641449928283691,0.5482721924781799,1.072602391242981,-8.941650390625,-3.60107421875,18.0816650390625
17.3699999,-9.854534149169922,0.5578489899635315,0.9864110946655273,-8.697509765625,0.79345703125,14.7247314453125
17.3899999,-10.141838073730469,0.6177040338516235,0.8643068075180054,-10.2996826171875,3.662109375,-11.53564453125
17.409999900000003,-10.5344877243042,0.4812345504760742,0.7230489253997803,-8.148193359375,3.509521484375,-0.457763671875
17.429999900000002,-10.65898609161377,0.395043283700943,0.5530605912208557,-3.9215087890625,-2.9449462890625,7.5225830078125
17.4499999,-10.503362655639648,0.2513911724090576,0.4165911078453064,-1.3427734375,-4.4403076171875,1.6632080078125
17.4699999,-10.32858657836914,0.12449848651885986,0.33518823981285095,-0.0457763671875,-7.8582763671875,2.7923583984375
17.4899999,-10.122684478759766,0.0454898327589035,0.35673606395721436,3.4332275390625,-12.359619140625,3.021240234375
17.5099999,-10.034099578857422,0.031124621629714966,0.48602294921875,5.4931640625,-14.2059326171875,6.0272216796875
17.5299999,-9.940725326538086,0.08379705995321274,0.667982280254364,3.35693359375,-13.580322265625,5.55419921875
17.5499999,-9.86889934539795,0.19871874153614044,0.9385270476341248,2.0294189453125,-12.603759765625,3.6468505859375
17.5699999,-9.792284965515137,0.363918662071228,1.3000515699386597,-0.2593994140625,-10.8184814453125,3.021240234375
17.589999900000002,-9.701305389404297,0.5674257874488831,1.7573440074920654,-10.101318359375,-4.1046142578125,3.3416748046875
17.609999900000002,-9.653421401977539,0.7805097699165344,2.1595699787139893,-27.130126953125,8.697509765625,1.8463134765625
17.6299999,-9.579200744628906,0.8858546018600464,2.449268341064453,-39.48974609375,18.73779296875,-0.1068115234375
17.6499999,-9.636661529541016,0.7972691655158997,2.456450939178467,-42.29736328125,22.613525390625,1.617431640625
17.6699999,-9.710882186889648,0.6512228846549988,2.1068975925445557,-37.6434326171875,23.1170654296875,4.0130615234375
17.6899999,-9.921571731567383,0.28730419278144836,1.5203180313110352,-25.8026123046875,15.44189453125,5.1116943359375
17.7099999,-10.113107681274414,0.0694318488240242,0.7996633648872375,-8.0718994140625,2.105712890625,4.638671875
17.7299999,-10.216058731079102,-0.12689268589019775,0.15083470940589905,8.819580078125,-7.4310302734375,1.3427734375
17.749999900000002,-10.24239444732666,-0.17477671802043915,-0.2992752194404602,20.1568603515625,-13.6871337890625,-1.4190673828125
17.769999900000002,-10.220847129821777,-0.1364694982767105,-0.4405331015586853,25.57373046875,-16.632080078125,-2.1209716796875
17.7899999,-10.122684478759766,0.05027823522686958,-0.31364041566848755,26.3671875,-19.3328857421875,-0.946044921875
17.8099999,-10.077195167541504,0.363918662071228,0.11252748221158981,23.7274169921875,-20.5535888671875,1.068115234375
17.8299999,-9.981427192687988,0.5650315880775452,0.7110779285430908,16.54052734375,-22.4609375,-0.152587890625
17.8499999,-9.832986831665039,0.8092401623725891,1.3287819623947144,8.0413818359375,-19.8211669921875,-6.134033203125
17.8699999,-9.696516990661621,0.8523358106613159,2.011129379272461,3.3721923828125,-9.490966796875,-8.60595703125
17.8899999,-9.605537414550781,0.7158663272857666,2.451662540435791,-1.7242431640625,0.7171630859375,-7.50732421875
17.909999900000003,-9.512163162231445,0.6200982332229614,2.7030537128448486,-8.8653564453125,9.6588134765625,-4.486083984375
17.929999900000002,-9.627084732055664,0.35913026332855225,2.6168625354766846,-13.519287109375,13.8092041015625,0.091552734375
17.9499999,-9.734824180603027,0.24899697303771973,2.3056161403656006,-12.0849609375,10.8184814453125,4.0130615234375
17.9699999,-9.86889934539795,-0.002394201699644327,1.8339585065841675,-7.4462890625,3.1890869140625,1.8768310546875
17.9899999,-9.964667320251465,-0.06224924325942993,1.3096283674240112,-2.288818359375,1.861572265625,-1.2359619140625
18.0099999,-10.019734382629395,-0.19871874153614044,0.8882488012313843,3.84521484375,2.9449462890625,1.129150390625
18.0299999,-10.02452278137207,-0.14604631066322327,0.6440402865409851,9.8876953125,0.5035400390625,2.685546875
18.0499999,-10.000580787658691,-0.0071826050989329815,0.5626373887062073,11.0931396484375,-4.638671875,4.058837890625
18.0699999,-10.050858497619629,0.1604115068912506,0.7374141216278076,6.9427490234375,-5.8441162109375,6.1798095703125
18.089999900000002,-9.93593692779541,0.3878606855869293,0.9864110946655273,2.5177001953125,-6.866455078125,4.1961669921875
18.109999900000002,-9.885659217834473,0.47884035110473633,1.3455413579940796,-0.396728515625,-5.279541015625,-2.5482177734375
18.1299999,-9.780313491821289,0.6344634294509888,1.5658079385757446,-3.47900390625,0.42724609375,-3.1585693359375
18.1499999,-9.749189376831055,0.5722141861915588,1.7286136150360107,-6.16455078125,7.0343017578125,-0.7781982421875
18.1699999,-9.730035781860352,0.5482721924781799,1.7070658206939697,-6.561279296875,7.2021484375,0.213623046875
18.1899999,-9.818621635437012,0.5219359993934631,1.5705963373184204,-5.2337646484375,3.570556640625,2.74658203125
18.2099999,-9.897629737854004,0.3519476354122162,1.3982137441635132,-1.89208984375,-2.9449462890625,4.058837890625
18.2299999,-9.952696800231934,0.2777273952960968,1.2210428714752197,0.79345703125,-5.2490234375,-1.373291015625
18.249999900000002,-9.93354320526123,0.17956513166427612,1.1300631761550903,2.0599365234375,-2.5787353515625,-2.9754638671875
18.269999900000002,-9.955090522766113,0.05027823522686958,1.1540051698684692,3.5400390625,0.8544921875,1.495361328125
18.2899999,-9.852140426635742,0.06703764945268631,1.2545616626739502,2.50244140625,2.5177001953125,4.4403076171875
18.3099999,-9.816226959228516,0.20350714027881622,1.3287819623947144,-2.0294189453125,3.2196044921875,5.37109375
18.3299999,-9.876082420349121,0.3208230137825012,1.4413094520568848,-4.0283203125,0.2288818359375,6.8206787109375
18.3499999,-9.828198432922363,0.49799394607543945,1.4915876388549805,-4.3182373046875,-3.2806396484375,1.8768310546875
18.3699999,-9.837775230407715,0.586579442024231,1.5610195398330688,-7.75146484375,1.312255859375,-4.1961669921875
18.3899999,-9.825803756713867,0.6009446382522583,1.5131354331970215,-10.7879638671875,8.4686279296875,-2.777099609375
18.409999900000003,-9.830592155456543,0.5793967843055725,1.4700398445129395,-7.598876953125,9.613037109375,0.48828125
18.429999900000002,-9.861717224121094,0.4884171485900879,1.3024457693099976,-3.3721923828125,5.615234375,1.190185546875
18.4499999,-9.971850395202637,0.3974374830722809,1.1468225717544556,-1.1444091796875,1.5106201171875,4.6539306640625
18.4699999,-10.050858497619629,0.26815059781074524,1.0247182846069336,1.5411376953125,-5.2337646484375,5.218505859375
18.4899999,-10.012551307678223,0.22744916379451752,1.05105459690094,2.0751953125,-5.6304931640625,-1.5411376953125
18.5099999,-9.938331604003906,0.24660277366638184,1.1085153818130493,-0.67138671875,-0.91552734375,-2.532958984375
18.5299999,-9.8784761428833,0.2777273952960968,1.2425906658172607,-2.86865234375,3.2196044921875,1.556396484375
18.5499999,-9.799467086791992,0.3064578175544739,1.338358759880066,-3.6468505859375,3.570556640625,3.8299560546875
18.5699999,-9.852140426635742,0.36152446269989014,1.3934253454208374,-4.82177734375,2.1209716796875,4.7149658203125
18.589999900000002,-9.919178009033203,0.3926490843296051,1.4317326545715332,-5.126953125,-2.1209716796875,7.2021484375
18.609999900000002,-9.907206535339355,0.47405192255973816,1.45806884765625,-5.8135986328125,-4.3792724609375,3.326416015625
18.6299999,-9.859322547912598,0.4596867263317108,1.4460978507995605,-6.40869140625,0.335693359375,-2.3345947265625
18.6499999,-9.816226959228516,0.4884171485900879,1.4460978507995605,-3.60107421875,2.471923828125,-1.0223388671875
18.6699999,-9.763554573059082,0.4644751250743866,1.4101848602294922,-1.3580322265625,3.875732421875,3.2196044921875
18.6899999,-9.785101890563965,0.524330198764801,1.37906014919281,-5.706787109375,6.3934326171875,3.60107421875
18.7099999,-9.832986831665039,0.608127236366272,1.338358759880066,-9.246826171875,5.8746337890625,4.4403076171875
18.7299999,-9.904812812805176,0.6655880808830261,1.3527239561080933,-7.87353515625,0.06103515625,4.364013671875
18.749999900000002,-9.921571731567383,0.6105214357376099,1.3048399686813354,-5.9814453125,-0.030517578125,-0.946044921875
18.769999900000002,-9.919178009033203,0.5291185975074768,1.2761094570159912,-2.716064453125,2.960205078125,-3.631591796875
18.7899999,-9.892841339111328,0.3926490843296051,1.2306196689605713,2.288818359375,4.058837890625,0
18.8099999,-9.813833236694336,0.35673606395721436,1.2401964664459229,1.89208984375,4.852294921875,3.1585693359375
18.8299999,-9.852140426635742,0.3926490843296051,1.2713210582733154,-6.6070556640625,8.4228515625,4.119873046875
18.8499999,-9.880870819091797,0.507570743560791,1.381454348564148,-13.6566162109375,7.2479248046875,5.7220458984375
18.8699999,-9.926360130310059,0.49559974670410156,1.3982137441635132,-13.85498046875,3.753662109375,4.791259765625
18.8899999,-9.952696800231934,0.47405192255973816,1.3479355573654175,-6.2713623046875,3.35693359375,-0.30517578125
18.909999900000003,-9.921571731567383,0.363918662071228,1.1755530834197998,3.5247802734375,1.4495849609375,-1.9989013671875
18.929999900000002,-9.919178009033203,0.3423708379268646,0.9911994934082031,8.209228515625,1.2664794921875,1.6632080078125
18.9499999,-9.93354320526123,0.43095630407333374,0.8451532125473022,4.241943359375,1.7547607421875,2.9754638671875
18.9699999,-9.928754806518555,0.5841852426528931,0.8403648138046265,-3.4027099609375,0.335693359375,2.5482177734375
18.9899999,-9.931148529052734,0.7733271718025208,0.9289502501487732,-8.8043212890625,-2.9449462890625,1.9989013671875
19.0099999,-9.926360130310059,0.7661445140838623,0.9911994934082031,-7.7362060546875,-4.94384765625,0.9613037109375
19.0299999,-9.907206535339355,0.6823474764823914,1.1109095811843872,-0.823974609375,-3.5858154296875,-3.96728515625
19.0499999,-9.909601211547852,0.4836287498474121,1.1803414821624756,6.34765625,-3.753662109375,-3.90625
19.0699999,-9.892841339111328,0.33758243918418884,1.2976573705673218,6.9580078125,0.8087158203125,0.213623046875
19.089999900000002,-9.84495735168457,0.3447650372982025,1.4269442558288574,0.8544921875,4.730224609375,4.3792724609375
19.109999900000002,-9.84495735168457,0.4381389021873474,1.5658079385757446,-7.01904296875,6.3018798828125,3.509521484375
19.1299999,-9.78989028930664,0.6368576288223267,1.6160861253738403,-10.5743408203125,3.9215087890625,3.0059814453125
19.1499999,-9.799467086791992,0.6823474764823914,1.556231141090393,-10.467529296875,2.62451171875,1.64794921875
19.1699999,-9.825803756713867,0.6991068720817566,1.4293384552001953,-5.828857421875,4.608154296875,-3.7078857421875
19.1899999,-9.837775230407715,0.5410895943641663,1.2018892765045166,1.1138916015625,3.9520263671875,-3.8299560546875
19.2099999,-9.938331604003906,0.4836287498474121,0.9864110946655273,6.4697265625,3.4637451171875,-0.9002685546875
19.2299999,-9.967061996459961,0.4572925269603729,0.7781155705451965,8.0718994140625,0.2593994140625,2.44140625
19.249999900000002,-10.014945983886719,0.47644615173339844,0.6871358752250671,6.561279296875,-3.387451171875,1.556396484375
19.269999900000002,-10.019734382629395,0.6177040338516235,0.7852981686592102,5.5084228515625,-8.697509765625,0.7781982421875
19.2899999,-9.983820915222168,0.608127236366272,0.9265560507774353,2.716064453125,-9.7808837890625,0.244140625
19.3099999,-9.911994934082031,0.6009446382522583,1.1755530834197998,0.30517578125,-5.0201416015625,-3.47900390625
19.3299999,-9.852140426635742,0.5051765441894531,1.3958195447921753,0.0152587890625,-0.4119873046875,-4.08935546875
19.3499999,-9.75637149810791,0.5027823448181152,1.501164436340332,-0.8544921875,4.7607421875,0.9002685546875
19.3699999,-9.730035781860352,0.5027823448181152,1.5682021379470825,-4.638671875,6.0577392578125,5.035400390625
19.3899999,-9.792284965515137,0.5434837937355042,1.5682021379470825,-8.11767578125,5.2947998046875,4.21142578125
19.409999900000003,-9.825803756713867,0.6272808313369751,1.4676456451416016,-7.14111328125,0.9918212890625,3.0517578125
19.429999900000002,-9.95748519897461,0.5746083855628967,1.41257905960083,-4.94384765625,-2.8839111328125,2.9296875
19.4499999,-9.967061996459961,0.524330198764801,1.2641384601593018,-2.227783203125,-2.197265625,-1.28173828125
19.4699999,-9.974244117736816,0.47165772318840027,1.0869675874710083,2.288818359375,-1.0833740234375,-2.838134765625
19.4899999,-9.947908401489258,0.4429273009300232,1.0031704902648926,7.1868896484375,0.091552734375,1.4801025390625
19.5099999,-9.890447616577148,0.5339069962501526,0.9672574996948242,5.157470703125,-1.4190673828125,5.5694580078125
19.5299999,-9.8784761428833,0.6272808313369751,1.0630255937576294,-2.7618408203125,-0.4730224609375,4.5013427734375
19.5499999,-9.854534149169922,0.768538773059845,1.2689268589019775,-7.75146484375,-0.518798828125,2.960205078125
19.5699999,-9.8784761428833,0.8068459630012512,1.5418659448623657,-5.523681640625,0.152587890625,-3.41796875
19.589999900000002,-9.80904483795166,0.7374141216278076,1.5275006294250488,-3.143310546875,3.7078857421875,-5.9814453125
19.609999900000002,-9.84256362915039,0.6751648783683777,1.4245500564575195,-0.335693359375,7.2021484375,-1.983642578125
19.6299999,-9.78989028930664,0.6272808313369751,1.3239935636520386,-0.3204345703125,5.462646484375,1.6937255859375
19.6499999,-9.818621635437012,0.629675030708313,1.2114660739898682,-4.180908203125,4.150390625,1.739501953125
19.6699999,-9.84495735168457,0.6344634294509888,1.1540051698684692,-4.9896240234375,0.9002685546875,0.579833984375
19.6899999,-9.909601211547852,0.5841852426528931,1.1324573755264282,-0.6866455078125,-2.899169921875,-0.457763671875
19.7099999,-9.952696800231934,0.5147533416748047,1.1252747774124146,5.2337646484375,-3.997802734375,-3.5247802734375
19.7299999,-9.907206535339355,0.4381389021873474,1.170764684677124,6.9122314453125,-1.3427734375,-6.1492919921875
19.749999900000002,-9.93354320526123,0.43335050344467163,1.192312479019165,4.5928955078125,4.913330078125,-3.9825439453125
19.769999900000002,-9.852140426635742,0.48602294921875,1.2114660739898682,1.068115234375,6.1187744140625,2.2735595703125
19.7899999,-9.864110946655273,0.5674257874488831,1.278503656387329,-4.3792724609375,4.5928955078125,2.99072265625
19.8099999,-9.880870819091797,0.6607996821403503,1.2258312702178955,-6.9427490234375,2.1514892578125,1.495361328125
19.8299999,-9.904812812805176,0.6512228846549988,1.2545616626739502,-4.1656494140625,-1.5716552734375,-0.274658203125
19.8499999,-9.967061996459961,0.5889736413955688,1.1827356815338135,1.9989013671875,-3.5858154296875,-2.3956298828125
19.8699999,-9.938331604003906,0.4812345504760742,1.139639973640442,7.32421875,-3.5247802734375,-4.6539306640625
19.8899999,-9.916783332824707,0.3974374830722809,1.1061211824417114,7.8277587890625,0.4119873046875,-2.9754638671875
19.909999900000003,-9.852140426635742,0.4692635238170624,1.1109095811843872,3.570556640625,3.997802734375,3.3721923828125
19.929999900000002,-9.81143856048584,0.5339069962501526,1.2042834758758545,-4.1351318359375,4.5013427734375,5.1116943359375
19.9499999,-9.801861763000488,0.6751648783683777,1.280897855758667,-8.11767578125,2.777099609375,3.509521484375
19.9699999,-9.854534149169922,0.730231523513794,1.3431471586227417,-7.4462890625,-0.3662109375,1.953125
19.9899999,-9.880870819091797,0.6584054827690125,1.3239935636520386,-2.4261474609375,-1.800537109375,-1.0223388671875
20.0099999,-9.921571731567383,0.6177040338516235,1.237802267074585,4.57763671875,-1.8157958984375,-5.06591796875
20.0299999,-9.928754806518555,0.48602294921875,1.1252747774124146,8.2244873046875,0.091552734375,-4.08935546875
20.0499999,-9.928754806518555,0.5195417404174805,1.0462661981582642,7.50732421875,1.7852783203125,2.0751953125
20.0699999,-9.895236015319824,0.5291185975074768,1.094150185585022,3.387451171875,-0.091552734375,4.547119140625
20.089999900000002,-9.90241813659668,0.6799532771110535,1.0965443849563599,-0.6256103515625,-0.7171630859375,2.2125244140625
20.109999900000002,-9.9000244140625,0.7230489253997803,1.2665326595306396,-1.3580322265625,-3.72314453125,0.2288818359375
