# Time (seconds),Accel_X,Accel_Y,Accel_Z,Gyro_X,Gyro_Y,Gyro_Z
0.0099999,-10.251971244812012,0.9457096457481384,0.19153612852096558,-1.5106201171875,0.3509521484375,0.8544921875
0.029999900000000003,-9.96945571899414,0.8906430602073669,0.17717093229293823,0.274658203125,-1.0833740234375,2.8076171875
0.0499999,-9.837775230407715,0.811634361743927,0.20111294090747833,0.2899169921875,0.3509521484375,2.5634765625
0.0699999,-9.794678688049316,0.7637503147125244,0.24181437492370605,0.823974609375,0.579833984375,0.9918212890625
0.08999990000000001,-9.804255485534668,0.7326257228851318,0.28969839215278625,1.7547607421875,-1.0223388671875,1.9683837890625
0.10999990000000001,-9.854534149169922,0.7086837291717529,0.33039984107017517,1.89208984375,-1.3580322265625,4.57763671875
0.1299999,-9.904812812805176,0.7182605266571045,0.33518823981285095,2.01416015625,-0.7781982421875,4.4403076171875
0.14999990000000002,-9.950302124023438,0.7398083209991455,0.31603461503982544,2.86865234375,-1.6937255859375,3.753662109375
0.1699999,-9.988609313964844,0.811634361743927,0.2849099934101105,2.716064453125,-3.8604736328125,4.9896240234375
0.1899999,-10.014945983886719,0.8858546018600464,0.22744916379451752,1.434326171875,-5.1116943359375,5.4168701171875
0.20999990000000002,-10.029311180114746,0.9744400978088379,0.1867477297782898,0.091552734375,-5.5999755859375,4.0740966796875
0.2299999,-10.000580787658691,1.05105459690094,0.181959331035614,-2.38037109375,-6.6375732421875,3.7994384765625
0.2499999,-9.955090522766113,1.1061211824417114,0.24899697303771973,-8.0108642578125,-7.4920654296875,4.6234130859375
0.2699999,-9.904812812805176,1.1420341730117798,0.4141969084739685,-16.3421630859375,-4.5166015625,4.8828125
0.28999990000000003,-9.871294021606445,1.1324573755264282,0.629675030708313,-22.39990234375,0.5340576171875,4.5623779296875
0.3099999,-9.799467086791992,1.1420341730117798,0.8762778043746948,-26.5960693359375,4.638671875,5.035400390625
0.3299999,-9.787496566772461,1.1204863786697388,0.9696516990661621,-27.1148681640625,5.7220458984375,5.67626953125
0.34999990000000003,-9.806650161743164,1.0797849893569946,0.9265560507774353,-20.93505859375,5.1422119140625,7.568359375
0.3699999,-9.880870819091797,0.9816226959228516,0.6847416758537292,-11.7340087890625,-1.6021728515625,8.270263671875
0.3899999,-9.93593692779541,0.8475474119186401,0.3687070608139038,1.7242431640625,-9.2926025390625,2.3956298828125
0.40999990000000003,-10.002974510192871,0.8212111592292786,-0.028730420395731926,16.9219970703125,-12.8631591796875,-1.7547607421875
0.4299999,-10.014945983886719,0.768538773059845,-0.17477671802043915,26.7333984375,-15.7928466796875,1.1444091796875
0.4499999,-9.967061996459961,1.0438719987869263,-0.27054479718208313,25.45166015625,-16.3116455078125,3.8299560546875
0.4699999,-9.876082420349121,1.4748282432556152,0.5195417404174805,4.5928955078125,-24.7344970703125,0.6103515625
0.4899999,-9.696516990661621,1.6711528301239014,1.2713210582733154,-12.7105712890625,-2.8228759765625,-2.7923583984375
0.5099999,-9.466673851013184,1.7405846118927002,2.03507137298584,-30.9906005859375,16.0675048828125,-2.410888671875
0.5299999,-9.334992408752441,1.6903064250946045,2.6408045291900635,-47.2259521484375,31.3262939453125,3.1280517578125
0.5499999,-9.318233489990234,1.5322890281677246,2.762908697128296,-55.633544921875,38.1011962890625,3.7078857421875
0.5699999,-9.488221168518066,1.2856862545013428,2.5546131134033203,-46.3409423828125,34.5306396484375,1.708984375
0.5899998999999999,-9.715670585632324,0.9696516990661621,1.6831238269805908,-35.9649658203125,38.63525390625,-0.6256103515625
0.6099998999999999,-9.914389610290527,0.7326257228851318,0.7541735172271729,-15.56396484375,31.9671630859375,0.152587890625
0.6299999,-10.129867553710938,0.6512228846549988,-0.17956513166427612,11.2762451171875,16.1285400390625,1.15966796875
0.6499999,-10.237606048583984,0.6943184733390808,-0.9792284965515137,14.7552490234375,9.2010498046875,4.7149658203125
0.6699999,-10.314221382141113,0.8643068075180054,-1.4053963422775269,14.7857666015625,-1.708984375,0.9002685546875
0.6899999,-10.357316970825195,1.0055646896362305,-1.4724340438842773,19.0277099609375,-10.498046875,-8.636474609375
0.7099999,-10.24000072479248,1.1755530834197998,-1.4077905416488647,19.775390625,-12.20703125,-8.6212158203125
0.7299998999999999,-10.15141487121582,1.259350061416626,-1.1085153818130493,22.8271484375,-13.1683349609375,-4.0283203125
0.7499998999999999,-10.160991668701172,1.194706678390503,-0.7709329724311829,23.712158203125,-19.5159912109375,-0.8697509765625
0.7699999,-9.988609313964844,1.161187767982483,-0.2753331959247589,24.8870849609375,-28.3660888671875,-2.8076171875
0.7899999,-9.979032516479492,1.0103530883789062,0.15562310814857483,23.529052734375,-25.4669189453125,-5.55419921875
0.8099999,-9.806650161743164,0.9169792532920837,0.6727706789970398,15.350341796875,-15.0604248046875,-4.2724609375
0.8299999,-9.75397777557373,0.9002198576927185,1.192312479019165,0.5645751953125,-7.3699951171875,2.716064453125
0.8499998999999999,-9.636661529541016,1.01753568649292,1.647210717201233,-22.2015380859375,3.173828125,10.55908203125
0.8699998999999999,-9.667786598205566,1.115697979927063,1.8626888990402222,-35.8123779296875,7.62939453125,9.7503662109375
0.8899999,-9.682151794433594,1.1444283723831177,1.7980455160140991,-31.73828125,6.3018798828125,2.838134765625
0.9099999,-9.744400978088379,1.072602391242981,1.3910311460494995,-16.0980224609375,9.3536376953125,2.0751953125
0.9299999,-9.849745750427246,1.0797849893569946,0.8690952062606812,-1.5411376953125,5.645751953125,4.7607421875
0.9499999,-9.926360130310059,1.1252747774124146,0.3016694188117981,3.143310546875,0.0457763671875,5.7525634765625
0.9699998999999999,-10.079588890075684,1.1875240802764893,-0.12210428714752197,5.7830810546875,-6.77490234375,2.86865234375
0.9899998999999999,-10.103530883789062,1.290474772453308,-0.28730419278144836,12.6495361328125,-17.974853515625,-4.608154296875
1.0099999,-10.022128105163574,1.2449848651885986,-0.3447650372982025,18.2952880859375,-16.4031982421875,-6.8511962890625
1.0299999,-10.022128105163574,1.2545616626739502,-0.08619125932455063,16.632080078125,-11.322021484375,-2.716064453125
1.0499999,-9.888052940368652,1.1563993692398071,0.304063618183136,7.26318359375,-8.819580078125,1.6326904296875
1.0699999,-9.792284965515137,1.2832920551300049,0.8619126081466675,-2.1820068359375,-8.5906982421875,1.9683837890625
1.0899999,-9.782708168029785,1.2186486721038818,1.235408067703247,-6.805419921875,-7.75146484375,-1.3275146484375
1.1099999,-9.718064308166504,1.1851298809051514,1.4915876388549805,-6.6986083984375,1.6632080078125,-3.6773681640625
1.1299999,-9.694122314453125,1.0893617868423462,1.5514427423477173,-1.5411376953125,5.2337646484375,-2.0294189453125
1.1499999,-9.72285270690918,1.094150185585022,1.455674648284912,-2.4871826171875,5.6915283203125,6.0577392578125
1.1699998999999999,-9.751583099365234,1.094150185585022,1.3120225667953491,-11.0931396484375,8.7890625,7.14111328125
1.1899998999999999,-9.823410034179688,1.235408067703247,1.2401964664459229,-15.655517578125,4.1656494140625,-0.67138671875
1.2099999,-9.806650161743164,1.290474772453308,1.048660397529602,-18.5394287109375,9.552001953125,-3.0670166015625
1.2299999,-9.837775230407715,1.37906014919281,0.9002198576927185,-18.6004638671875,14.7857666015625,-4.180908203125
1.2499999,-9.926360130310059,1.256955862045288,0.7398083209991455,-18.7530517578125,13.48876953125,0.8392333984375
1.2699999,-9.799467086791992,1.2401964664459229,0.42856210470199585,-16.8914794921875,9.2010498046875,2.1820068359375
1.2899999,-9.974244117736816,1.0749965906143188,0.13168109953403473,-1.9378662109375,-2.349853515625,2.0751953125
1.3099999,-9.955090522766113,0.9816226959228516,-0.06224924325942993,6.1492919921875,-12.02392578125,-3.2958984375
1.3299999,-9.876082420349121,0.9840168952941895,-0.26575639843940735,3.41796875,-9.94873046875,-6.103515625
1.3499999,-10.043676376342773,0.9002198576927185,-0.004788403399288654,5.401611328125,-8.087158203125,-2.1209716796875
1.3699999,-9.959878921508789,1.0199298858642578,0.15562310814857483,1.0833740234375,-6.6986083984375,2.410888671875
1.3899999,-10.070012092590332,0.871489405632019,0.3711012601852417,3.7078857421875,-11.505126953125,3.936767578125
1.4099999,-10.08437728881836,0.9457096457481384,0.5770025849342346,21.881103515625,-22.1405029296875,-3.0517578125
1.4299998999999999,-10.067618370056152,0.9241618514060974,0.5410895943641663,30.4412841796875,-20.9503173828125,-3.570556640625
1.4499999,-9.998186111450195,1.048660397529602,0.8044517636299133,28.350830078125,-14.9383544921875,-4.8675537109375
1.4699999,-9.84256362915039,1.3000515699386597,1.1994950771331787,12.0697021484375,-9.0789794921875,-0.457763671875
1.4899999,-9.782708168029785,1.403002142906189,1.5682021379470825,-13.031005859375,0.9613037109375,4.058837890625
1.5099999,-9.607931137084961,1.5275006294250488,1.9800047874450684,-20.233154296875,3.8604736328125,-0.18310546875
1.5299999,-9.591172218322754,1.3455413579940796,2.027888774871826,-15.68603515625,6.89697265625,-2.1820068359375
1.5499999,-9.62947940826416,1.2545616626739502,1.8076223134994507,-10.986328125,12.6800537109375,-1.4495849609375
1.5699999,-9.739612579345703,1.048660397529602,1.4077905416488647,-2.5787353515625,11.8560791015625,1.3275146484375
1.5899999,-9.885659217834473,0.9744400978088379,0.9528923034667969,8.2550048828125,1.3580322265625,2.9296875
1.6099999,-9.964667320251465,0.9672574996948242,0.5219359993934631,13.4429931640625,-7.659912109375,-0.1373291015625
1.6299999,-10.074800491333008,1.0319008827209473,0.36152446269989014,13.00048828125,-7.843017578125,-6.40869140625
1.6499999,-9.871294021606445,1.2090718746185303,0.569819986820221,4.241943359375,-2.8533935546875,-6.7901611328125
1.6699999,-9.823410034179688,1.3958195447921753,1.0127472877502441,-17.333984375,13.580322265625,-4.4403076171875
1.6899998999999999,-9.648633003234863,1.522712230682373,1.501164436340332,-33.966064453125,21.30126953125,-2.0599365234375
1.7099999,-9.526528358459473,1.501164436340332,1.7764976024627686,-37.78076171875,23.3306884765625,0.1983642578125
1.7299999,-9.749189376831055,1.292868971824646,1.5873557329177856,-26.4892578125,17.6849365234375,2.6092529296875
1.7499999,-9.768342971801758,1.05105459690094,1.1683704853057861,-17.08984375,12.1917724609375,-1.8463134765625
1.7699999,-10.007762908935547,0.7445967197418213,0.44532153010368347,-7.38525390625,9.0179443359375,-4.1046142578125
1.7899999,-10.046070098876953,0.5889736413955688,-0.13168109953403473,16.4642333984375,-3.692626953125,-3.1585693359375
1.8099999,-10.182539939880371,0.507570743560791,-0.4836287498474121,28.86962890625,-11.3067626953125,-1.03759765625
1.8299999,-10.24000072479248,0.5003881454467773,-0.6344634294509888,19.775390625,-13.36669921875,3.4027099609375
1.8499999,-10.189722061157227,0.6607996821403503,-0.3926490843296051,14.495849609375,-20.904541015625,2.6702880859375
1.8699999,-10.20648193359375,0.8547300100326538,0.040701430290937424,17.1356201171875,-23.3917236328125,0.0457763671875
1.8899999,-9.955090522766113,1.1085153818130493,0.5482721924781799,8.1024169921875,-15.594482421875,-0.0762939453125
1.9099999,-9.816226959228516,1.3479355573654175,1.2497732639312744,-4.6844482421875,-5.4931640625,-2.288818359375
1.9299998999999999,-9.670180320739746,1.4269442558288574,1.7501614093780518,-16.1895751953125,8.7127685546875,-2.166748046875
1.9499999,-9.648633003234863,1.3958195447921753,1.9991583824157715,-18.3868408203125,14.0838623046875,3.47900390625
1.9699999,-9.694122314453125,1.1085153818130493,1.800439715385437,-5.523681640625,0.3814697265625,5.5999755859375
1.9899999,-9.837775230407715,0.9959878921508789,1.2689268589019775,11.3372802734375,-9.979248046875,0.518798828125
2.0099999,-9.907206535339355,0.7565677165985107,0.8140285611152649,22.491455078125,-14.7247314453125,1.3885498046875
2.0299999,-9.816226959228516,0.9361328482627869,0.8068459630012512,13.48876953125,-8.697509765625,-1.9989013671875
2.0499999,-9.782708168029785,1.0606313943862915,1.015141487121582,-12.9547119140625,12.9547119140625,-1.2664794921875
2.0699999,-9.615114212036133,1.2114660739898682,1.4173674583435059,-24.261474609375,16.845703125,4.1351318359375
2.0899999,-9.658209800720215,1.3000515699386597,1.577778935432434,-17.974853515625,10.80322265625,6.5460205078125
2.1099999,-9.6989107131958,1.335964560508728,1.5179238319396973,-19.378662109375,8.60595703125,4.3182373046875
2.1299999,-9.775525093078613,1.3862427473068237,1.37906014919281,-29.083251953125,13.641357421875,1.922607421875
2.1499999,-9.852140426635742,1.4628572463989258,1.158793568611145,-34.5458984375,17.1051025390625,-1.6632080078125
2.1699999,-9.890447616577148,1.3742717504501343,0.9959878921508789,-25.054931640625,18.402099609375,-8.270263671875
2.1899999,-9.981427192687988,1.1683704853057861,0.706289529800415,-10.5133056640625,15.2740478515625,-3.7689208984375
2.2099999,-10.089165687561035,0.6847416758537292,0.2585737705230713,4.8370361328125,5.340576171875,6.16455078125
2.2299999,-10.177751541137695,0.38307225704193115,-0.22026655077934265,28.38134765625,-13.885498046875,4.302978515625
2.2499999,-10.247182846069336,0.31842881441116333,-0.4644751250743866,47.4853515625,-25.054931640625,1.9989013671875
2.2699999,-10.108319282531738,0.5937620401382446,-0.3016694188117981,37.567138671875,-23.3154296875,1.0833740234375
2.2899999,-9.931148529052734,1.170764684677124,0.507570743560791,6.134033203125,-6.2713623046875,-5.6915283203125
2.3099999,-9.603142738342285,1.644816517829895,1.5107412338256836,-26.8402099609375,18.6614990234375,-7.0953369140625
2.3299999,-9.53849983215332,1.8698714971542358,2.2170307636260986,-47.4853515625,33.721923828125,-0.30517578125
2.3499999,-9.550470352172852,1.625662922859192,2.140416383743286,-36.1175537109375,23.13232421875,5.9814453125
2.3699999,-9.80904483795166,1.2186486721038818,1.3646949529647827,-3.8909912109375,1.220703125,2.0294189453125
2.3899999,-9.998186111450195,0.8667010068893433,0.4118026793003082,21.759033203125,-10.7879638671875,1.953125
2.4099999,-10.137049674987793,0.7733271718025208,-0.12449848651885986,23.49853515625,-14.2364501953125,-3.7384033203125
2.4299999,-10.014945983886719,0.9289502501487732,0.033518824726343155,8.7127685546875,-4.730224609375,-7.8277587890625
2.4499999,-9.93354320526123,1.115697979927063,0.5291185975074768,-14.83154296875,12.786865234375,-4.180908203125
2.4699999,-9.830592155456543,1.1061211824417114,1.0007762908935547,-25.177001953125,16.021728515625,7.3394775390625
2.4899999,-9.818621635437012,0.9744400978088379,1.0462661981582642,-13.641357421875,2.8228759765625,8.1329345703125
2.5099999,-9.885659217834473,0.8571242094039917,0.6967126727104187,4.8675537109375,-5.6610107421875,2.716064453125
2.5299999,-9.938331604003906,0.871489405632019,0.49320554733276367,17.4713134765625,-11.4593505859375,2.899169921875
2.5499999,-9.86650562286377,1.0606313943862915,0.5339069962501526,9.857177734375,-7.6141357421875,-1.373291015625
2.5699999,-9.823410034179688,1.2114660739898682,0.9026140570640564,-10.5133056640625,7.8277587890625,-3.2196044921875
2.5899999,-9.792284965515137,1.3096283674240112,1.1755530834197998,-23.7274169921875,19.866943359375,1.6937255859375
2.6099999,-9.823410034179688,1.1563993692398071,1.1444283723831177,-16.845703125,8.056640625,10.2081298828125
2.6299999,-9.940725326538086,1.0007762908935547,0.6129156351089478,3.753662109375,-9.368896484375,4.486083984375
2.6499999,-10.079588890075684,0.933738648891449,0.11971008777618408,23.8800048828125,-18.3258056640625,0.30517578125
2.6699999,-9.950302124023438,1.0773907899856567,0.10773907601833344,24.169921875,-20.3857421875,-1.03759765625
2.6899999,-9.828198432922363,1.3192051649093628,0.7589619159698486,-6.2103271484375,-2.960205078125,-4.08935546875
2.7099999,-9.569623947143555,1.5538369417190552,1.656787633895874,-49.25537109375,32.5469970703125,-2.471923828125
2.7299999,-9.59835433959961,1.4963760375976562,2.1356279850006104,-61.82861328125,43.6553955078125,8.23974609375
2.7499999,-9.617507934570312,1.2425906658172607,1.8531121015548706,-34.759521484375,19.0582275390625,11.41357421875
2.7699999,-9.988609313964844,0.9576807022094727,0.7254431247711182,5.9661865234375,-2.0599365234375,2.8839111328125
2.7899999,-10.153809547424316,0.849941611289978,-0.3256114423274994,33.38623046875,-19.2108154296875,-0.6256103515625
2.8099999,-10.192116737365723,1.0031704902648926,-0.7374141216278076,33.447265625,-23.25439453125,-9.2620849609375
2.8299999,-10.06043529510498,1.2306196689605713,-0.3998316824436188,11.9171142578125,-7.2479248046875,-12.5732421875
2.8499999,-9.885659217834473,1.3215993642807007,0.26575639843940735,-9.6282958984375,10.833740234375,-4.1351318359375
2.8699999,-9.830592155456543,1.158793568611145,0.7781155705451965,-6.988525390625,5.0201416015625,9.6435546875
2.8899999,-9.828198432922363,0.8619126081466675,0.7924807667732239,12.5732421875,-14.7552490234375,8.2550048828125
2.9099999,-9.99100399017334,0.7613561153411865,0.5410895943641663,25.6500244140625,-21.05712890625,2.8533935546875
2.9299999,-9.885659217834473,0.9217676520347595,0.6607996821403503,15.838623046875,-19.6685791015625,2.5482177734375
2.9499999,-9.715670585632324,1.3670891523361206,1.3048399686813354,-20.7977294921875,-1.8768310546875,0.48828125
2.9699999,-9.495404243469238,1.6831238269805908,1.8770540952682495,-64.544677734375,31.4788818359375,1.1444091796875
2.9899999,-9.509769439697266,1.6711528301239014,2.0374655723571777,-63.2476806640625,39.2303466796875,9.490966796875
3.0099999,-9.658209800720215,1.3311761617660522,1.4413094520568848,-17.2882080078125,4.1961669921875,13.092041015625
3.0299999,-10.065223693847656,0.8930372595787048,0.17477671802043915,23.7579345703125,-20.538330078125,6.103515625
3.0499999,-10.280701637268066,0.730231523513794,-0.7254431247711182,46.234130859375,-33.2489013671875,0.335693359375
3.0699999,-10.18493366241455,0.9576807022094727,-0.6991068720817566,36.834716796875,-33.0657958984375,-2.166748046875
3.0899999,-9.892841339111328,1.3910311460494995,0.22026655077934265,-3.143310546875,-10.833740234375,-3.326416015625
3.1099999,-9.550470352172852,1.6855180263519287,1.4173674583435059,-42.96875,19.04296875,0.9918212890625
3.1299999,-9.394847869873047,1.678335428237915,2.2242133617401123,-44.158935546875,26.885986328125,9.7198486328125
3.1499999,-9.493009567260742,1.45806884765625,2.1954829692840576,-16.845703125,7.720947265625,10.467529296875
3.1699999,-9.804255485534668,1.170764684677124,1.4077905416488647,8.026123046875,-5.8441162109375,5.8135986328125
3.1899999,-9.919178009033203,1.1468225717544556,0.7493851184844971,17.425537109375,-13.36669921875,0.823974609375
3.2099999,-9.921571731567383,1.3263877630233765,0.5793967843055725,8.1634521484375,-10.833740234375,-1.9683837890625
3.2299999,-9.72285270690918,1.6352397203445435,1.213860273361206,-21.3470458984375,12.176513671875,-2.9296875
3.2499999,-9.466673851013184,1.9177556037902832,2.0446481704711914,-63.17138671875,41.6259765625,1.1749267578125
3.2699999,-9.519346237182617,1.9704279899597168,2.293645143508911,-82.2296142578125,59.5245361328125,9.521484375
3.2899999,-9.603142738342285,1.867477297782898,1.745373010635376,-44.37255859375,33.26416015625,9.2010498046875
3.3099999,-9.897629737854004,1.5179238319396973,0.40222588181495667,6.9580078125,-3.8604736328125,-7.75146484375
3.3299999000000002,-10.201693534851074,1.235408067703247,-0.950498104095459,38.7420654296875,-18.00537109375,-18.61572265625
3.3499999,-9.967061996459961,0.9576807022094727,-1.3742717504501343,52.734375,-26.9927978515625,-11.41357421875
3.3699999,-9.188945770263672,0.8307880163192749,-0.6200982332229614,35.9344482421875,-16.1285400390625,-6.0272216796875
3.3899999,-7.862558364868164,0.545877993106842,0.5219359993934631,-7.659912109375,22.2625732421875,4.33349609375
3.4099999,-7.127538681030273,0.586579442024231,1.6950948238372803,-21.4385986328125,39.2913818359375,18.310546875
3.4299999,-7.378929615020752,0.8044517636299133,2.049436569213867,-13.8702392578125,31.6009521484375,13.12255859375
3.4499999,-8.62391471862793,1.2497732639312744,1.50355863571167,-24.261474609375,24.4903564453125,0.213623046875
3.4699999,-10.38844108581543,1.8722656965255737,0.6272808313369751,-31.4788818359375,8.6669921875,-2.38037109375
3.4899999,-11.669339179992676,2.2170307636260986,-0.1628057211637497,-23.2391357421875,2.685546875,-3.1890869140625
3.5099999,-12.425907135009766,1.900996208190918,-0.8259995579719543,-2.5177001953125,-1.64794921875,-3.265380859375
3.5299999,-12.588712692260742,1.3120225667953491,-1.070208191871643,26.3214111328125,-20.8282470703125,4.21142578125
3.5499999,-12.646173477172852,0.5219359993934631,-1.161187767982483,52.8106689453125,-33.38623046875,17.4102783203125
3.5699999,-12.131420135498047,0.1388636976480484,-0.9840168952941895,67.5506591796875,-42.0379638671875,19.22607421875
3.5899999,-11.319786071777344,0.40701428055763245,-0.23942017555236816,67.230224609375,-37.1551513671875,13.397216796875
3.6099999,-10.625467300415039,1.1540051698684692,0.5530605912208557,37.04833984375,-19.9127197265625,4.82177734375
3.6299999,-10.304644584655762,2.0015525817871094,1.2306196689605713,15.93017578125,-6.3323974609375,-11.6119384765625
3.6499999,-10.139444351196289,2.5474305152893066,1.659181833267212,33.2183837890625,-13.48876953125,-7.0343017578125
3.6699999,-10.493785858154297,2.8993782997131348,1.699883222579956,32.073974609375,-15.7623291015625,-1.007080078125
3.6899999,-10.398017883300781,2.8347349166870117,1.721431016921997,16.8304443359375,-9.4451904296875,-14.7705078125
3.7099999,-9.861717224121094,2.698265314102173,1.8842366933822632,-0.274658203125,8.6212158203125,-15.93017578125
3.7299999,-9.988609313964844,2.542642116546631,2.0638017654418945,-19.3328857421875,19.195556640625,-6.866455078125
3.7499999,-9.923966407775879,2.008735179901123,1.8986018896102905,-30.4412841796875,15.0299072265625,-15.5181884765625
3.7699999,-10.896012306213379,1.7334020137786865,1.4628572463989258,-23.5595703125,14.83154296875,-11.0626220703125
3.7899999,-12.038045883178711,1.3718775510787964,0.6991068720817566,-8.6822509765625,5.462646484375,-3.5552978515625
3.8099999,-12.744335174560547,1.2330138683319092,-0.016759412363171577,4.5318603515625,-14.251708984375,-18.768310546875
3.8299999000000002,-12.773066520690918,1.194706678390503,-0.4620809257030487,16.41845703125,-32.806396484375,-22.15576171875
3.8499999,-11.884817123413086,1.1971008777618408,-0.5410895943641663,27.099609375,-21.2860107421875,-26.9012451171875
3.8699999,-10.304644584655762,1.115697979927063,-0.28969839215278625,32.958984375,0.0152587890625,-30.303955078125
3.8899999,-8.547300338745117,0.9720458984375,0.10773907601833344,29.9835205078125,11.29150390625,-23.92578125
3.9099999,-6.962338447570801,0.7374141216278076,0.4836287498474121,21.514892578125,10.6048583984375,-13.763427734375
3.9299999,-5.8203043937683105,0.5027823448181152,0.7398083209991455,13.36669921875,0.4730224609375,-4.6539306640625
3.9499999,-5.224148273468018,0.33997663855552673,0.8810662031173706,8.9263916015625,-7.0037841796875,0.6866455078125
3.9699999,-5.212177276611328,0.26575639843940735,0.9385270476341248,7.8887939453125,2.86865234375,-1.190185546875
3.9899999,-5.705382823944092,0.2585737705230713,0.9768342971801758,6.1798095703125,13.946533203125,-6.0577392578125
4.0099999,-6.596025466918945,0.2801215946674347,1.0462661981582642,2.6092529296875,9.368896484375,-2.4871826171875
4.029999900000001,-7.694964408874512,0.33518823981285095,1.1444283723831177,-1.40380859375,-0.2593994140625,4.425048828125
4.0499999,-8.786720275878906,0.4141969084739685,1.2545616626739502,-4.150390625,-0.9613037109375,2.13623046875
4.069999900000001,-10.431536674499512,0.6991068720817566,1.434126853942871,-12.3291015625,0.1373291015625,1.2359619140625
4.0899999000000005,-10.845733642578125,0.8307880163192749,1.41257905960083,-19.10400390625,3.204345703125,-0.2899169921875
4.1099999,-10.994174003601074,0.9050082564353943,1.2976573705673218,-21.17919921875,9.58251953125,-4.6234130859375
4.1299999000000005,-10.936713218688965,0.9217676520347595,1.0749965906143188,-18.707275390625,11.5509033203125,-0.396728515625
4.1499999,-10.721235275268555,0.9074024558067322,0.7852981686592102,-13.85498046875,4.7454833984375,7.4005126953125
4.1699999000000005,-10.453084945678711,0.8810662031173706,0.48602294921875,-6.89697265625,-0.6256103515625,8.9111328125
4.1899999,-10.20887565612793,0.8786720037460327,0.2585737705230713,0.4730224609375,-2.5177001953125,8.7127685546875
4.209999900000001,-10.072406768798828,0.9385270476341248,0.15801730751991272,4.180908203125,0.5340576171875,9.490966796875
4.2299999,-10.424354553222656,1.0414776802062988,0.17477671802043915,4.0435791015625,6.6680908203125,1.2969970703125
4.249999900000001,-10.627861022949219,1.1276689767837524,0.26336219906806946,0.7781982421875,-6.317138671875,-13.24462890625
4.2699999,-11.061211585998535,1.1635819673538208,0.35673606395721436,0.91552734375,-6.134033203125,-1.2054443359375
4.289999900000001,-11.037269592285156,1.1755530834197998,0.44532153010368347,3.5552978515625,-5.3558349609375,-0.335693359375
4.3099999,-10.72841739654541,1.072602391242981,0.5506663918495178,7.568359375,-3.631591796875,-5.523681640625
4.329999900000001,-10.323798179626465,0.9720458984375,0.6823474764823914,7.8887939453125,1.129150390625,-7.62939453125
4.3499999,-9.950302124023438,0.8355764150619507,0.8475474119186401,5.859375,-7.4005126953125,-1.708984375
4.369999900000001,-9.801861763000488,0.7206547260284424,0.9959878921508789,6.103515625,-10.0860595703125,4.69970703125
4.3899999,-9.715670585632324,0.6536170840263367,1.1085153818130493,5.7373046875,-4.4708251953125,6.4544677734375
4.409999900000001,-9.734824180603027,0.6560112833976746,1.173158884048462,1.617431640625,-0.9765625,7.354736328125
4.4299999,-9.785101890563965,0.751779317855835,1.1875240802764893,-1.678466796875,-1.2359619140625,6.8511962890625
4.449999900000001,-9.830592155456543,0.8379706144332886,1.1516109704971313,-2.593994140625,-1.5716552734375,3.8909912109375
4.4699999,-9.890447616577148,0.8978256583213806,1.0869675874710083,-3.7078857421875,-2.4871826171875,-0.274658203125
4.489999900000001,-9.96945571899414,0.8906430602073669,0.9959878921508789,-3.9215087890625,1.1444091796875,-4.9285888671875
4.5099999,-10.101137161254883,0.8307880163192749,0.9457096457481384,-2.3651123046875,2.7618408203125,-6.072998046875
4.529999900000001,-10.204087257385254,0.7350199222564697,0.9409212470054626,-2.532958984375,-3.3721923828125,-4.1656494140625
4.5499999,-10.247182846069336,0.6967126727104187,0.9457096457481384,-3.1890869140625,-5.43212890625,-0.3204345703125
4.569999900000001,-10.105925559997559,0.7182605266571045,0.9648633003234863,-1.220703125,-3.3416748046875,0.1373291015625
4.5899999000000005,-9.761159896850586,0.8164227604866028,0.9600749015808105,-0.3814697265625,-0.885009765625,-0.762939453125
4.609999900000001,-9.275136947631836,0.9457096457481384,0.9289502501487732,-2.9144287109375,0.0762939453125,2.3040771484375
4.6299999000000005,-8.863334655761719,1.0893617868423462,0.9074024558067322,-5.9051513671875,-0.48828125,10.6658935546875
4.6499999,-9.138668060302734,1.235408067703247,0.9241618514060974,-9.0484619140625,0.9765625,13.6260986328125
4.6699999000000005,-9.332598686218262,1.3551181554794312,0.8834604024887085,-12.20703125,1.0986328125,-7.2021484375
4.6899999,-10.038887977600098,1.3862427473068237,0.8379706144332886,-8.819580078125,2.9449462890625,5.5694580078125
4.709999900000001,-10.357316970825195,1.3718775510787964,0.730231523513794,-1.4495849609375,-2.6397705078125,8.7738037109375
4.7299999,-10.426748275756836,1.2545616626739502,0.6153098344802856,6.439208984375,-7.3394775390625,3.47900390625
4.749999900000001,-10.342951774597168,1.0893617868423462,0.5171475410461426,10.5438232421875,-9.27734375,3.5247802734375
4.7699999,-10.194510459899902,1.0103530883789062,0.5315127968788147,11.383056640625,-11.9781494140625,4.9285888671875
4.789999900000001,-10.02452278137207,0.9864110946655273,0.6727706789970398,8.148193359375,-12.8631591796875,4.364013671875
4.8099999,-9.847352027893066,1.0989385843276978,0.9600749015808105,-2.4566650390625,-7.75146484375,3.6468505859375
4.829999900000001,-9.703699111938477,1.2665326595306396,1.2952631711959839,-15.869140625,0.0762939453125,2.25830078125
4.8499999,-9.588777542114258,1.4197616577148438,1.623268723487854,-21.8048095703125,4.3182373046875,1.220703125
4.869999900000001,-9.533711433410645,1.4891934394836426,1.8387469053268433,-23.8494873046875,7.232666015625,1.983642578125
4.8899999,-9.622296333312988,1.4437036514282227,1.7836803197860718,-22.5677490234375,8.8958740234375,1.0223388671875
4.909999900000001,-9.694122314453125,1.280897855758667,1.5298948287963867,-15.0299072265625,6.8511962890625,0.6561279296875
4.9299999,-9.821015357971191,1.1348515748977661,1.2665326595306396,-4.94384765625,0.5035400390625,2.197265625
4.949999900000001,-9.931148529052734,1.0438719987869263,1.0271124839782715,-1.556396484375,-2.9754638671875,2.8839111328125
4.9699999,-9.974244117736816,1.01753568649292,0.8858546018600464,-2.8228759765625,-3.4637451171875,0.4425048828125
4.989999900000001,-9.971850395202637,0.9648633003234863,0.8475474119186401,-0.640869140625,-4.608154296875,-1.52587890625
5.0099999,-9.90241813659668,0.9744400978088379,0.871489405632019,2.9296875,-4.241943359375,-0.5035400390625
5.029999900000001,-9.847352027893066,0.9696516990661621,0.8571242094039917,0.732421875,-0.6256103515625,2.4261474609375
5.0499999,-9.739612579345703,1.094150185585022,1.091755986213684,-8.7890625,3.6468505859375,0.5035400390625
5.069999900000001,-9.761159896850586,1.2018892765045166,1.2641384601593018,-24.6429443359375,6.2255859375,1.007080078125
5.0899999000000005,-9.75397777557373,1.3718775510787964,1.5418659448623657,-31.4788818359375,10.162353515625,6.6070556640625
5.109999900000001,-9.775525093078613,1.3670891523361206,1.745373010635376,-30.1666259765625,8.6669921875,6.5460205078125
5.1299999000000005,-9.75397777557373,1.3455413579940796,1.7573440074920654,-31.55517578125,16.204833984375,0.091552734375
5.1499999,-9.77791976928711,1.1516109704971313,1.599326729774475,-29.47998046875,19.8211669921875,-1.708984375
5.1699999000000005,-9.84256362915039,0.9409212470054626,1.1085153818130493,-11.9476318359375,12.1612548828125,-0.9307861328125
5.1899999,-9.926360130310059,0.8068459630012512,0.6871358752250671,10.6048583984375,-1.220703125,0.48828125
5.209999900000001,-10.04846477508545,0.7422025203704834,0.1604115068912506,12.7105712890625,-5.096435546875,5.2642822265625
5.2299999,-10.11550235748291,0.7829039692878723,-0.028730420395731926,6.0577392578125,-4.7454833984375,8.4991455078125
5.249999900000001,-10.055646896362305,0.8858546018600464,-0.0454898327589035,9.8724365234375,-15.655517578125,4.2266845703125
5.2699999,-10.055646896362305,0.9840168952941895,0.2322375625371933,14.9993896484375,-20.5535888671875,-1.7547607421875
5.289999900000001,-9.926360130310059,1.094150185585022,0.5051765441894531,10.7421875,-15.1519775390625,1.15966796875
5.3099999,-9.880870819091797,1.216254472732544,1.0079588890075684,6.5765380859375,-8.3770751953125,2.1209716796875
5.329999900000001,-9.75637149810791,1.403002142906189,1.4077905416488647,2.9144287109375,-5.645751953125,2.044677734375
5.3499999,-9.68933391571045,1.5107412338256836,1.8315643072128296,-9.2010498046875,-1.7547607421875,4.8828125
5.369999900000001,-9.653421401977539,1.5466543436050415,1.9584569931030273,-24.3988037109375,8.30078125,6.622314453125
5.3899999,-9.627084732055664,1.4748282432556152,2.0159177780151367,-19.683837890625,5.37109375,6.622314453125
5.409999900000001,-9.66299819946289,1.3742717504501343,1.9393033981323242,-8.48388671875,-0.1373291015625,1.0986328125
5.4299999,-9.682151794433594,1.2425906658172607,1.6903064250946045,-7.5836181640625,4.57763671875,-2.9296875
5.449999900000001,-9.75397777557373,1.0989385843276978,1.5083470344543457,-6.65283203125,10.9405517578125,-0.1220703125
5.4699999,-9.725247383117676,1.1492167711257935,1.2976573705673218,-3.021240234375,9.3841552734375,4.3487548828125
5.489999900000001,-9.847352027893066,1.1420341730117798,1.0893617868423462,-4.547119140625,6.1798095703125,4.33349609375
5.5099999,-9.832986831665039,1.2952631711959839,0.9792284965515137,-12.26806640625,8.3160400390625,4.638671875
5.529999900000001,-9.93593692779541,1.3670891523361206,0.9026140570640564,-15.411376953125,7.2021484375,3.662109375
5.5499999,-9.947908401489258,1.37906014919281,0.7613561153411865,-2.4261474609375,-2.5482177734375,0.579833984375
5.569999900000001,-9.976638793945312,1.280897855758667,0.5722141861915588,11.0626220703125,-6.77490234375,-4.45556640625
5.5899999000000005,-9.998186111450195,1.161187767982483,0.304063618183136,23.8800048828125,-10.7574462890625,-6.1798095703125
5.609999900000001,-9.892841339111328,1.1061211824417114,0.3064578175544739,32.4859619140625,-16.4794921875,-3.1890869140625
5.6299999000000005,-9.892841339111328,1.2234370708465576,0.5123591423034668,23.6053466796875,-15.5029296875,0.48828125
5.6499999,-9.720458984375,1.3503297567367554,0.9648633003234863,6.77490234375,-7.8582763671875,-3.35693359375
5.6699999000000005,-9.715670585632324,1.4867992401123047,1.4221558570861816,-3.143310546875,-1.8463134765625,-1.5716552734375
5.6899999,-9.701305389404297,1.4963760375976562,1.86508309841156,-6.6986083984375,-2.5787353515625,0.3204345703125
5.709999900000001,-9.651026725769043,1.4293384552001953,2.03507137298584,-10.589599609375,1.1444091796875,-1.2664794921875
5.7299999,-9.660603523254395,1.3120225667953491,2.0877439975738525,-11.322021484375,5.7830810546875,-2.0751953125
5.749999900000001,-9.66299819946289,1.2234370708465576,1.968033790588379,-9.0789794921875,9.5367431640625,-0.396728515625
5.7699999,-9.677363395690918,1.1563993692398071,1.7573440074920654,-7.659912109375,10.3607177734375,3.96728515625
5.789999900000001,-9.725247383117676,1.2330138683319092,1.599326729774475,-11.3372802734375,11.322021484375,2.655029296875
5.8099999,-9.775525093078613,1.290474772453308,1.3958195447921753,-18.4326171875,13.9923095703125,1.434326171875
5.829999900000001,-9.775525093078613,1.3718775510787964,1.194706678390503,-16.7083740234375,12.8631591796875,1.617431640625
5.8499999,-9.775525093078613,1.4867992401123047,1.1109095811843872,-10.711669921875,6.8511962890625,-2.2735595703125
5.869999900000001,-9.801861763000488,1.4748282432556152,1.05105459690094,-18.6004638671875,10.9100341796875,-4.21142578125
5.8899999,-9.806650161743164,1.4652514457702637,1.0414776802062988,-26.947021484375,20.2484130859375,-6.04248046875
5.909999900000001,-9.828198432922363,1.316810965538025,0.9576807022094727,-14.068603515625,17.608642578125,-6.2103271484375
5.9299999,-9.921571731567383,1.2282254695892334,0.8571242094039917,2.6702880859375,8.23974609375,-3.1585693359375
5.949999900000001,-9.955090522766113,1.0079588890075684,0.47405192255973816,4.45556640625,5.0506591796875,-2.532958984375
5.9699999,-10.113107681274414,0.8738836050033569,0.1388636976480484,14.373779296875,0.2288818359375,-3.631591796875
5.989999900000001,-10.165780067443848,0.6392518281936646,-0.2106897532939911,27.83203125,-18.1732177734375,0.2593994140625
6.0099999,-10.251971244812012,0.6703764796257019,-0.5123591423034668,39.9932861328125,-29.2816162109375,-4.4097900390625
6.029999900000001,-10.108319282531738,0.730231523513794,-0.35673606395721436,47.2564697265625,-38.02490234375,-2.25830078125
6.0499999,-9.93354320526123,0.9744400978088379,0.06464344263076782,33.6761474609375,-29.23583984375,-6.7596435546875
6.069999900000001,-9.720458984375,1.3551181554794312,0.9792284965515137,8.4686279296875,-12.9852294921875,-2.7923583984375
6.0899999000000005,-9.466673851013184,1.5442601442337036,2.0685901641845703,-16.4794921875,-0.8087158203125,2.5177001953125
6.109999900000001,-9.397241592407227,1.7477672100067139,3.0526070594787598,-42.1295166015625,14.58740234375,3.3111572265625
6.1299999000000005,-9.423578262329102,1.6136919260025024,3.3854012489318848,-58.89892578125,28.8848876953125,7.2784423828125
6.149999900000001,-9.583989143371582,1.4652514457702637,3.1100680828094482,-44.37255859375,27.8472900390625,6.7138671875
6.1699999000000005,-9.653421401977539,1.1276689767837524,2.1954829692840576,-18.37158203125,10.1470947265625,2.960205078125
6.1899999,-9.928754806518555,0.9552865028381348,1.235408067703247,0.5645751953125,1.7547607421875,-1.8768310546875
6.209999900000001,-9.95748519897461,0.871489405632019,0.3998316824436188,5.7373046875,2.2735595703125,-1.495361328125
6.2299999,-9.998186111450195,0.9911994934082031,0.22744916379451752,8.1939697265625,1.5106201171875,-4.7149658203125
6.249999900000001,-9.959878921508789,1.1971008777618408,0.3687070608139038,2.1514892578125,2.7618408203125,-2.593994140625
6.2699999,-9.840168952941895,1.3742717504501343,0.9074024558067322,-17.425537109375,12.847900390625,-0.5340576171875
6.289999900000001,-9.785101890563965,1.41257905960083,1.3431471586227417,-36.8499755859375,20.8282470703125,0.0457763671875
6.3099999,-9.72285270690918,1.359906554222107,1.53707754611969,-30.1513671875,18.4783935546875,1.4495849609375
6.329999900000001,-9.861717224121094,1.1779472827911377,1.3479355573654175,-2.44140625,8.60595703125,0.946044921875
6.3499999,-9.897629737854004,1.0271124839782715,0.9241618514060974,11.4593505859375,0.54931640625,-7.843017578125
6.369999900000001,-10.012551307678223,0.9457096457481384,0.5171475410461426,16.5863037109375,-1.1138916015625,-10.6048583984375
6.3899999,-9.995792388916016,0.9385270476341248,0.3878606855869293,17.8070068359375,-0.732421875,-9.490966796875
6.409999900000001,-9.947908401489258,0.9864110946655273,0.5339069962501526,5.9967041015625,3.7689208984375,-3.173828125
6.4299999,-9.876082420349121,0.950498104095459,0.7206547260284424,-10.3759765625,9.429931640625,1.129150390625
6.449999900000001,-9.859322547912598,0.8403648138046265,0.9050082564353943,-11.810302734375,5.4931640625,3.1890869140625
6.4699999,-9.897629737854004,0.7589619159698486,0.7469909191131592,1.0833740234375,-2.2125244140625,2.62451171875
6.489999900000001,-9.988609313964844,0.6943184733390808,0.6153098344802856,14.9383544921875,-9.8419189453125,5.7220458984375
6.5099999,-9.974244117736816,0.8212111592292786,0.4644751250743866,9.521484375,-10.3912353515625,-1.52587890625
6.529999900000001,-9.938331604003906,1.0295066833496094,0.7206547260284424,-3.2958984375,-3.173828125,-3.7841796875
6.5499999,-9.80904483795166,1.194706678390503,0.9576807022094727,-17.2882080078125,9.0789794921875,-0.4730224609375
6.569999900000001,-9.75397777557373,1.2713210582733154,1.2401964664459229,-21.7742919921875,12.298583984375,4.5623779296875
6.5899999000000005,-9.830592155456543,1.158793568611145,1.1204863786697388,-13.00048828125,3.2806396484375,6.5460205078125
6.609999900000001,-9.861717224121094,1.0654197931289673,0.950498104095459,1.068115234375,-6.77490234375,4.2572021484375
6.6299999000000005,-9.976638793945312,1.0031704902648926,0.7158663272857666,7.1563720703125,-7.32421875,-0.3204345703125
6.649999900000001,-9.907206535339355,1.139639973640442,0.8906430602073669,3.60107421875,-4.364013671875,0.0762939453125
6.6699999000000005,-9.804255485534668,1.359906554222107,1.1851298809051514,-14.892578125,6.744384765625,-3.23486328125
6.6899999,-9.672574996948242,1.5107412338256836,1.6974890232086182,-32.53173828125,21.97265625,-7.38525390625
6.709999900000001,-9.636661529541016,1.5490485429763794,1.8076223134994507,-37.322998046875,31.2347412109375,-5.828857421875
6.7299999,-9.670180320739746,1.235408067703247,1.6089035272598267,-26.397705078125,24.169921875,2.777099609375
6.749999900000001,-9.8784761428833,0.8044517636299133,0.7326257228851318,-5.1422119140625,7.87353515625,4.6539306640625
6.7699999,-10.139444351196289,0.4596867263317108,-0.22026655077934265,27.679443359375,-13.36669921875,1.7547607421875
6.789999900000001,-10.314221382141113,0.40462008118629456,-0.9600749015808105,49.3316650390625,-29.23583984375,-1.9989013671875
6.8099999,-10.254365921020508,0.6703764796257019,-0.9816226959228516,43.365478515625,-32.0892333984375,-3.7994384765625
6.829999900000001,-10.079588890075684,1.173158884048462,-0.22505496442317963,16.5252685546875,-16.7236328125,-10.3912353515625
6.8499999,-9.761159896850586,1.5298948287963867,0.8547300100326538,-10.406494140625,2.9754638671875,-8.6822509765625
6.869999900000001,-9.57201862335205,1.6136919260025024,1.7812861204147339,-25.5889892578125,15.7928466796875,-1.922607421875
6.8899999,-9.509769439697266,1.3670891523361206,2.10210919380188,-14.373779296875,8.8958740234375,0.48828125
6.909999900000001,-9.651026725769043,0.9816226959228516,1.7525556087493896,5.8746337890625,-1.434326171875,1.5106201171875
6.9299999,-9.770736694335938,0.7733271718025208,1.3000515699386597,13.5040283203125,-8.270263671875,0.4119873046875
6.949999900000001,-9.854534149169922,0.7972691655158997,1.0678139925003052,-4.8828125,-6.9580078125,-2.8076171875
6.9699999,-9.859322547912598,0.9888052940368652,1.1851298809051514,-38.9556884765625,11.077880859375,-0.48828125
6.989999900000001,-9.715670585632324,1.137245774269104,1.53707754611969,-54.8858642578125,24.59716796875,0.4119873046875
7.0099999,-9.75397777557373,1.0031704902648926,1.6663644313812256,-48.6907958984375,26.42822265625,4.8828125
7.029999900000001,-9.763554573059082,0.7445967197418213,1.4221558570861816,-31.9671630859375,20.5078125,8.97216796875
7.0499999,-10.014945983886719,0.33997663855552673,0.6320692300796509,-10.8642578125,9.521484375,11.9171142578125
7.069999900000001,-10.24000072479248,0.19153612852096558,-0.3064578175544739,24.0478515625,-15.8233642578125,9.58251953125
7.0899999000000005,-10.376470565795898,0.8810662031173706,-1.5107412338256836,60.3485107421875,-49.0264892578125,-5.9356689453125
7.109999900000001,-10.192116737365723,1.5083470344543457,-0.9696516990661621,43.060302734375,-44.2657470703125,-13.1072998046875
7.1299999000000005,-9.823410034179688,1.9919757843017578,0.3711012601852417,14.9078369140625,-23.5137939453125,-13.9312744140625
7.149999900000001,-9.397241592407227,2.054224967956543,2.1116859912872314,-19.1497802734375,4.5013427734375,-6.16455078125
7.1699999000000005,-9.289502143859863,1.6903064250946045,3.2992098331451416,-48.675537109375,29.0679931640625,3.0975341796875
7.1899999,-9.306262016296387,1.094150185585022,3.5889084339141846,-41.259765625,28.62548828125,12.9852294921875
7.209999900000001,-9.569623947143555,0.5817909836769104,2.9089550971984863,-10.07080078125,9.3536376953125,13.5650634765625
7.2299999,-9.909601211547852,0.3878606855869293,1.558625340461731,17.02880859375,-6.9122314453125,5.9356689453125
7.249999900000001,-10.08198356628418,0.5410895943641663,0.4141969084739685,32.6080322265625,-15.8843994140625,-2.99072265625
7.2699999,-10.101137161254883,1.0079588890075684,-0.08858546614646912,29.23583984375,-19.775390625,-6.0882568359375
7.289999900000001,-9.923966407775879,1.5610195398330688,0.3208230137825012,1.220703125,-7.537841796875,-7.6904296875
7.3099999,-9.6989107131958,1.8626888990402222,1.0678139925003052,-38.6810302734375,20.965576171875,-8.2244873046875
7.329999900000001,-9.579200744628906,1.6903064250946045,1.7525556087493896,-48.7060546875,28.1829833984375,-2.8076171875
7.3499999,-9.646238327026367,1.2689268589019775,1.745373010635376,-23.7274169921875,14.6331787109375,4.57763671875
7.369999900000001,-9.832986831665039,0.6057330369949341,1.1420341730117798,11.0626220703125,-7.293701171875,5.2337646484375
7.3899999,-10.086771965026855,0.21787235140800476,0.3974374830722809,36.224365234375,-20.2178955078125,1.495361328125
7.409999900000001,-10.139444351196289,0.33758243918418884,0.11252748221158981,40.435791015625,-22.8729248046875,-1.5869140625
7.4299999,-10.029311180114746,0.7589619159698486,0.45010992884635925,20.08056640625,-14.0838623046875,-4.9896240234375
7.449999900000001,-9.818621635437012,1.3072341680526733,1.2282254695892334,-13.1683349609375,6.988525390625,-6.378173828125
7.4699999,-9.560047149658203,1.623268723487854,2.0590133666992188,-37.9180908203125,24.200439453125,-1.9989013671875
7.489999900000001,-9.461885452270508,1.5682021379470825,2.4899697303771973,-45.95947265625,28.2135009765625,4.2572021484375
7.5099999,-9.500192642211914,1.2521674633026123,2.319981336593628,-40.58837890625,25.0091552734375,8.453369140625
7.529999900000001,-9.710882186889648,0.912190854549408,1.5490485429763794,-21.0418701171875,11.7645263671875,9.552001953125
7.5499999,-9.928754806518555,0.7565677165985107,0.7086837291717529,-3.875732421875,-3.5552978515625,4.4403076171875
7.569999900000001,-10.053253173828125,0.7661445140838623,0.021547814831137657,-2.7923583984375,-5.9967041015625,-2.3345947265625
7.5899999000000005,-10.122684478759766,0.8882488012313843,-0.24420857429504395,-2.4871826171875,-4.57763671875,-5.584716796875
7.609999900000001,-10.000580787658691,0.9911994934082031,0.21787235140800476,-0.396728515625,-3.47900390625,-1.953125
7.6299999000000005,-9.880870819091797,1.0845733880996704,1.0271124839782715,-21.4080810546875,7.3699951171875,2.960205078125
7.649999900000001,-9.837775230407715,1.0199298858642578,1.6112977266311646,-56.0760498046875,28.99169921875,11.0015869140625
7.6699999000000005,-9.86650562286377,0.9241618514060974,1.6974890232086182,-45.7916259765625,24.6734619140625,13.824462890625
7.6899999,-9.995792388916016,0.8164227604866028,1.1659762859344482,2.8839111328125,-6.378173828125,6.1492919921875
7.709999900000001,-10.08198356628418,0.8451532125473022,0.3711012601852417,37.017822265625,-22.5067138671875,-3.9520263671875
7.7299999,-10.086771965026855,1.015141487121582,-0.1173158809542656,40.9393310546875,-22.64404296875,-9.5367431640625
7.749999900000001,-9.96945571899414,1.3407529592514038,0.13168109953403473,30.6396484375,-16.632080078125,-11.3525390625
7.7699999,-9.691728591918945,1.5682021379470825,0.9864110946655273,9.918212890625,-3.204345703125,-11.993408203125
7.789999900000001,-9.521739959716797,1.6041151285171509,1.941697597503662,-24.6734619140625,24.993896484375,-6.927490234375
7.8099999,-9.452308654785156,1.3024457693099976,2.564189910888672,-49.285888671875,37.872314453125,4.638671875
7.829999900000001,-9.63187313079834,0.9361328482627869,2.382230758666992,-44.036865234375,31.2347412109375,13.7786865234375
7.8499999,-9.825803756713867,0.5554547905921936,1.4077905416488647,-12.1917724609375,8.9874267578125,10.07080078125
7.869999900000001,-10.093954086303711,0.47644615173339844,0.181959331035614,24.5819091796875,-13.6566162109375,-0.946044921875
7.8899999,-10.24000072479248,0.6129156351089478,-0.7565677165985107,41.3970947265625,-24.810791015625,-6.65283203125
7.909999900000001,-10.103530883789062,0.9481038451194763,-0.6775590777397156,31.4788818359375,-23.1170654296875,-8.819580078125
7.9299999,-9.940725326538086,1.1971008777618408,0.11971008777618408,0.0152587890625,-3.204345703125,-4.638671875
7.949999900000001,-9.763554573059082,1.2330138683319092,1.2665326595306396,-33.782958984375,22.5677490234375,3.5400390625
7.9699999,-9.617507934570312,1.094150185585022,2.013523578643799,-50.1251220703125,29.8004150390625,14.9078369140625
7.989999900000001,-9.715670585632324,0.9600749015808105,2.0446481704711914,-36.0260009765625,19.3328857421875,19.7906494140625
8.0099999,-9.856928825378418,0.9193734526634216,1.3646949529647827,-12.9852294921875,3.326416015625,9.1552734375
8.0299999,-9.962273597717285,1.0342950820922852,0.5410895943641663,4.7760009765625,-4.33349609375,-4.3792724609375
8.049999900000001,-10.0580415725708,1.3072341680526733,-0.031124621629714966,15.3045654296875,-10.55908203125,-4.9285888671875
8.069999900000001,-9.6989107131958,1.5682021379470825,0.20111294090747833,9.429931640625,-9.4757080078125,-9.21630859375
8.0899999,-9.394847869873047,1.6280571222305298,1.0247182846069336,-21.78955078125,13.48876953125,-9.857177734375
8.1099999,-8.729259490966797,1.3910311460494995,2.0398597717285156,-64.1021728515625,46.8902587890625,5.43212890625
8.129999900000001,-8.669404029846191,0.8978256583213806,1.9584569931030273,-81.4666748046875,59.417724609375,23.040771484375
8.149999900000001,-8.848969459533691,0.45250412821769714,1.0127472877502441,-31.463623046875,19.561767578125,24.871826171875
8.1699999,-9.205705642700195,0.15801730751991272,-0.7015010714530945,40.4815673828125,-38.02490234375,12.908935546875
8.1899999,-9.260771751403809,0.1388636976480484,-2.0877439975738525,78.948974609375,-53.0242919921875,-5.1116943359375
8.2099999,-8.841787338256836,0.2777273952960968,-2.1499931812286377,90.9271240234375,-49.072265625,-0.8544921875
8.229999900000001,-8.413225173950195,0.5722141861915588,-0.9193734526634216,71.0296630859375,-35.9649658203125,6.77490234375
8.2499999,-8.774748802185059,1.1875240802764893,1.048660397529602,12.20703125,0.1068115234375,17.4713134765625
8.2699999,-9.828198432922363,2.2409727573394775,2.9089550971984863,-55.511474609375,38.3148193359375,13.427734375
8.2899999,-11.025299072265625,2.918531894683838,3.6990416049957275,-106.3385009765625,70.2972412109375,-4.5928955078125
8.309999900000001,-12.337321281433105,2.964021682739258,2.58813214302063,-80.5511474609375,56.9305419921875,-9.765625
8.3299999,-12.78503704071045,2.1140801906585693,0.6584054827690125,25.08544921875,-21.3165283203125,9.307861328125
8.3499999,-12.492944717407227,0.9816226959228516,-1.2832920551300049,104.888916015625,-79.9407958984375,13.8092041015625
8.3699999,-11.554417610168457,0.47884035110473633,-1.3024457693099976,94.6502685546875,-65.582275390625,9.6588134765625
8.389999900000001,-10.795455932617188,0.6775590777397156,-0.38067805767059326,11.993408203125,13.2904052734375,6.103515625
8.4099999,-9.62947940826416,1.455674648284912,1.460463047027588,-35.1409912109375,37.811279296875,4.730224609375
8.4299999,-9.327810287475586,2.1595699787139893,2.477998733520508,-37.078857421875,28.594970703125,16.265869140625
8.4499999,-9.41639518737793,2.3702597618103027,2.2385785579681396,-33.9508056640625,16.05224609375,5.340576171875
8.469999900000001,-9.411606788635254,2.3247697353363037,1.5729905366897583,-3.1585693359375,-0.4119873046875,4.638671875
8.4899999,-9.617507934570312,2.099714994430542,0.9576807022094727,24.35302734375,-4.5623779296875,6.8359375
8.5099999,-10.44350814819336,1.824381709098816,0.2322375625371933,17.9595947265625,-3.387451171875,-13.7481689453125
8.5299999,-10.766724586486816,1.6424223184585571,0.021547814831137657,21.484375,-7.6904296875,-13.427734375
8.549999900000001,-11.63103199005127,1.7525556087493896,0.07661445438861847,32.135009765625,-8.60595703125,7.720947265625
8.569999900000001,-12.02846908569336,1.7190368175506592,-0.033518824726343155,23.6663818359375,-14.8773193359375,-25.604248046875
8.5899999,-12.607866287231445,1.9991583824157715,0.2346317619085312,25.8026123046875,-10.589599609375,-17.242431640625
8.6099999,-12.627019882202148,2.1068975925445557,0.3232172429561615,31.463623046875,-11.4288330078125,-20.477294921875
8.629999900000001,-12.737153053283691,2.2170307636260986,0.4572925269603729,28.9154052734375,-17.2882080078125,-28.8238525390625
8.649999900000001,-12.145785331726074,2.1284453868865967,0.4141969084739685,30.2581787109375,-27.862548828125,-18.707275390625
8.6699999,-10.967838287353516,1.9919757843017578,0.5506663918495178,43.701171875,-41.7022705078125,-31.73828125
8.6899999,-9.548076629638672,1.745373010635376,0.6177040338516235,50.9185791015625,-12.75634765625,-34.5306396484375
8.709999900000001,-7.939172744750977,1.4676456451416016,0.8571242094039917,36.651611328125,10.894775390625,-26.91650390625
8.729999900000001,-6.567295074462891,1.2473790645599365,1.1348515748977661,14.6636962890625,21.8353271484375,-16.7694091796875
8.7499999,-5.705382823944092,1.091755986213684,1.2880805730819702,-1.0833740234375,40.618896484375,-13.1072998046875
8.7699999,-5.389348030090332,0.9528923034667969,1.2425906658172607,-6.9427490234375,39.7796630859375,-9.82666015625
8.7899999,-5.571307182312012,0.8212111592292786,0.9983820915222168,-4.7149658203125,16.0675048828125,0.4425048828125
8.809999900000001,-6.165069580078125,0.6775590777397156,0.6703764796257019,4.913330078125,1.7242431640625,8.8653564453125
8.8299999,-7.003039836883545,0.5267243981361389,0.3926490843296051,15.1519775390625,8.270263671875,6.744384765625
8.8499999,-7.924807548522949,0.3998316824436188,0.2585737705230713,18.310546875,7.232666015625,2.5177001953125
8.8699999,-8.846575736999512,0.35913026332855225,0.29209262132644653,15.899658203125,-5.8746337890625,5.126953125
8.889999900000001,-9.641449928283691,0.3687070608139038,0.4357447028160095,11.993408203125,-5.8746337890625,6.6680908203125
8.9099999,-10.24239444732666,0.4118026793003082,0.6512228846549988,6.65283203125,1.5411376953125,8.270263671875
8.9299999,-10.656591415405273,0.49320554733276367,0.871489405632019,0.274658203125,2.410888671875,14.862060546875
8.9499999,-10.931924819946289,0.5985504388809204,1.0319008827209473,-4.4097900390625,3.3111572265625,14.5721435546875
8.969999900000001,-11.077971458435059,0.6991068720817566,1.072602391242981,-5.615234375,7.4310302734375,3.4027099609375
8.9899999,-11.092336654663086,0.7829039692878723,1.0127472877502441,-3.753662109375,3.631591796875,-4.8065185546875
9.0099999,-11.025299072265625,0.828393816947937,0.9026140570640564,-1.190185546875,-3.6163330078125,-2.8076171875
9.0299999,-10.898406028747559,0.8307880163192749,0.8236053586006165,0.18310546875,-7.080078125,1.007080078125
9.049999900000001,-10.745177268981934,0.8068459630012512,0.8331822156906128,0.18310546875,-11.0321044921875,1.8310546875
9.069999900000001,-10.613495826721191,0.7948749661445618,0.9576807022094727,0.1068115234375,-16.4337158203125,1.007080078125
9.0899999,-10.529699325561523,0.7996633648872375,1.1827356815338135,0.152587890625,-18.768310546875,-2.5177001953125
9.1099999,-10.465055465698242,0.8140285611152649,1.4700398445129395,-1.4801025390625,-18.6614990234375,-8.2550048828125
9.129999900000001,-10.38604736328125,0.8140285611152649,1.7812861204147339,-4.45556640625,-20.0347900390625,-12.4969482421875
9.149999900000001,-10.273519515991211,0.8212111592292786,2.0446481704711914,-9.1400146484375,-25.787353515625,-8.7890625
9.1699999,-10.077195167541504,0.8236053586006165,2.1954829692840576,-15.56396484375,-31.707763671875,-3.814697265625
9.1899999,-9.768342971801758,0.8307880163192749,2.2146365642547607,-19.7296142578125,-26.18408203125,-6.103515625
9.209999900000001,-9.445125579833984,0.8690952062606812,2.070984363555908,-21.1181640625,-9.8419189453125,-9.521484375
9.229999900000001,-9.165003776550293,0.9097966551780701,1.7860745191574097,-22.9034423828125,0.2593994140625,-8.5296630859375
9.2499999,-8.959102630615234,0.9433154463768005,1.3910311460494995,-24.9786376953125,-2.960205078125,-4.7760009765625
9.2699999,-8.858546257019043,0.9624691009521484,0.9528923034667969,-23.1170654296875,-6.4239501953125,-0.1678466796875
9.2899999,-8.834604263305664,0.9840168952941895,0.5602431893348694,-17.0135498046875,-3.8299560546875,7.049560546875
9.309999900000001,-8.904036521911621,1.0199298858642578,0.28730419278144836,-11.3677978515625,2.9754638671875,11.5966796875
9.3299999,-9.10993766784668,1.094150185585022,0.1412578970193863,-7.14111328125,13.580322265625,6.8817138671875
9.3499999,-9.375694274902344,1.1516109704971313,0.09816227108240128,-2.9449462890625,17.0135498046875,-1.64794921875
9.3699999,-9.567230224609375,1.2018892765045166,0.17717093229293823,-0.5950927734375,7.32421875,2.5787353515625
9.389999900000001,-9.761159896850586,1.2713210582733154,0.31603461503982544,-1.28173828125,5.3863525390625,19.1192626953125
9.4099999,-10.371682167053223,1.2114660739898682,0.5626373887062073,-5.43212890625,8.23974609375,17.1051025390625
9.4299999,-10.508151054382324,1.1827356815338135,0.751779317855835,-9.5672607421875,2.7313232421875,-18.85986328125
9.4499999,-11.12346076965332,0.9816226959228516,0.9457096457481384,-4.82177734375,3.1585693359375,1.3885498046875
9.469999900000001,-11.022904396057129,0.8882488012313843,1.036689281463623,0.2593994140625,-0.1983642578125,8.2855224609375
9.4899999,-10.737994194030762,0.828393816947937,1.115697979927063,3.3721923828125,-0.457763671875,4.425048828125
9.5099999,-10.333374977111816,0.9241618514060974,1.2234370708465576,-0.9765625,1.15966796875,1.556396484375
9.5299999,-9.945513725280762,1.0965443849563599,1.3934253454208374,-12.6190185546875,4.5318603515625,0.9765625
9.549999900000001,-9.701305389404297,1.2832920551300049,1.50355863571167,-20.8892822265625,8.85009765625,1.373291015625
9.569999900000001,-9.612719535827637,1.357512354850769,1.4987702369689941,-17.5018310546875,9.8114013671875,-0.1373291015625
9.5899999,-9.658209800720215,1.2713210582733154,1.3239935636520386,-5.0048828125,4.82177734375,-4.8065185546875
9.6099999,-9.730035781860352,1.1875240802764893,1.0893617868423462,5.5389404296875,-0.3662109375,-8.026123046875
9.629999900000001,-9.804255485534668,1.0295066833496094,0.8762778043746948,9.8114013671875,0.335693359375,-6.9580078125
9.649999900000001,-9.897629737854004,0.8858546018600464,0.7709329724311829,9.5672607421875,2.0599365234375,-3.631591796875
9.6699999,-9.856928825378418,0.7398083209991455,0.768538773059845,5.0506591796875,0.6561279296875,1.3275146484375
9.6899999,-9.911994934082031,0.7158663272857666,0.8690952062606812,-2.44140625,1.5716552734375,6.2408447265625
9.709999900000001,-9.832986831665039,0.8355764150619507,1.137245774269104,-9.063720703125,0.4119873046875,4.058837890625
9.729999900000001,-9.861717224121094,0.9816226959228516,1.3311761617660522,-12.3748779296875,3.387451171875,-2.8228759765625
9.7499999,-9.775525093078613,1.1971008777618408,1.5179238319396973,-9.2315673828125,8.8043212890625,-6.2255859375
9.7699999,-9.701305389404297,1.1755530834197998,1.5298948287963867,-5.5999755859375,10.528564453125,-3.4942626953125
9.7899999,-9.761159896850586,1.015141487121582,1.4652514457702637,-9.674072265625,8.9263916015625,4.5166015625
9.809999900000001,-9.718064308166504,0.8068459630012512,1.3407529592514038,-15.5181884765625,14.739990234375,8.2244873046875
9.8299999,-9.821015357971191,0.6105214357376099,1.173158884048462,-21.05712890625,16.17431640625,9.09423828125
9.8499999,-9.945513725280762,0.6033388376235962,1.0055646896362305,-18.9056396484375,5.4473876953125,8.4075927734375
9.8699999,-9.986215591430664,0.6105214357376099,0.7254431247711182,-19.287109375,9.521484375,9.490966796875
9.889999900000001,-10.096348762512207,0.7326257228851318,0.31842881441116333,-21.42333984375,10.5743408203125,5.3558349609375
9.9099999,-10.156203269958496,0.8738836050033569,-0.028730420395731926,-5.31005859375,-1.6326904296875,3.0059814453125
9.9299999,-10.177751541137695,1.0055646896362305,-0.3208230137825012,12.6495361328125,-17.0745849609375,5.92041015625
9.9499999,-10.223240852355957,1.1420341730117798,-0.45010992884635925,12.6495361328125,-15.8233642578125,5.584716796875
9.969999900000001,-10.20648193359375,1.1228805780410767,-0.3447650372982025,13.0157470703125,-22.796630859375,3.570556640625
9.9899999,-10.072406768798828,1.139639973640442,0.0694318488240242,19.4549560546875,-31.463623046875,-0.4730224609375
10.0099999,-9.928754806518555,1.115697979927063,0.6655880808830261,17.2882080078125,-24.84130859375,-1.1138916015625
10.0299999,-9.68694019317627,1.137245774269104,1.3287819623947144,12.4969482421875,-12.5579833984375,0.2288818359375
10.049999900000001,-9.528923034667969,1.3263877630233765,2.1092917919158936,9.21630859375,-4.9896240234375,-0.8392333984375
10.069999900000001,-9.361329078674316,1.5682021379470825,2.8203697204589844,-9.002685546875,5.6304931640625,1.739501953125
10.0899999,-9.35893440246582,1.802833914756775,3.24414324760437,-37.0330810546875,26.8707275390625,3.662109375
10.1099999,-9.370905876159668,1.8794482946395874,3.3303346633911133,-49.62158203125,34.97314453125,-2.227783203125
10.129999900000001,-9.48343276977539,1.7334020137786865,2.868253707885742,-40.252685546875,32.318115234375,-9.4451904296875
10.149999900000001,-9.634267807006836,1.3407529592514038,1.987187385559082,-19.1497802734375,27.2979736328125,-4.9896240234375
10.1699999,-9.847352027893066,0.871489405632019,0.933738648891449,1.5106201171875,19.6380615234375,-1.5869140625
10.1899999,-9.998186111450195,0.5482721924781799,0.0933738648891449,13.73291015625,10.040283203125,-1.190185546875
10.209999900000001,-10.091560363769531,0.45250412821769714,-0.4165911078453064,10.406494140625,4.9591064453125,1.800537109375
10.229999900000001,-10.158597946166992,0.6440402865409851,-0.49320554733276367,3.0059814453125,3.631591796875,2.7923583984375
10.2499999,-10.062829971313477,0.8954314589500427,-0.21787235140800476,-2.50244140625,-1.1138916015625,-3.7689208984375
10.2699999,-10.043676376342773,1.0247182846069336,0.06703764945268631,-8.0108642578125,-0.8392333984375,-5.6915283203125
10.2899999,-9.919178009033203,1.0749965906143188,0.38546648621559143,-4.302978515625,1.617431640625,-1.129150390625
10.309999900000001,-9.967061996459961,0.9696516990661621,0.5961562395095825,2.6397705078125,-0.579833984375,2.5634765625
10.3299999,-9.885659217834473,0.9002198576927185,0.7254431247711182,0.79345703125,-3.204345703125,4.547119140625
10.3499999,-9.971850395202637,0.8930372595787048,0.8044517636299133,-3.662109375,-1.220703125,6.3018798828125
10.3699999,-9.90241813659668,0.9313444495201111,0.871489405632019,1.89208984375,-7.965087890625,3.2806396484375
10.389999900000001,-9.945513725280762,1.0678139925003052,0.9002198576927185,5.8135986328125,-11.810302734375,-1.617431640625
10.4099999,-9.880870819091797,1.1109095811843872,0.8882488012313843,-0.5340576171875,-4.638671875,-3.021240234375
10.4299999,-9.837775230407715,1.2282254695892334,0.9193734526634216,-5.859375,2.0599365234375,-2.471923828125
10.4499999,-9.782708168029785,1.3024457693099976,1.158793568611145,-11.4593505859375,3.72314453125,1.495361328125
10.469999900000001,-9.677363395690918,1.2473790645599365,1.314416766166687,-24.0631103515625,9.4146728515625,5.5084228515625
10.4899999,-9.742006301879883,1.0582371950149536,1.400607943534851,-24.200439453125,11.0626220703125,6.34765625
10.5099999,-9.830592155456543,0.849941611289978,1.2689268589019775,-6.2103271484375,1.922607421875,5.0811767578125
10.5299999,-9.93354320526123,0.7206547260284424,0.9385270476341248,10.1318359375,-4.4708251953125,4.974365234375
10.549999900000001,-9.90241813659668,0.8164227604866028,0.6751648783683777,11.077880859375,-5.9967041015625,-0.30517578125
10.569999900000001,-9.955090522766113,1.0606313943862915,0.5626373887062073,4.9896240234375,-0.1983642578125,-0.3509521484375
10.5899999,-9.813833236694336,1.314416766166687,0.7086837291717529,-7.080078125,4.4097900390625,-0.6103515625
10.6099999,-9.923966407775879,1.3934253454208374,0.7733271718025208,-15.350341796875,5.7525634765625,1.2054443359375
10.629999900000001,-9.883264541625977,1.357512354850769,0.8307880163192749,-4.3792724609375,-1.0528564453125,1.8463134765625
10.649999900000001,-9.940725326538086,1.2713210582733154,0.7709329724311829,13.214111328125,-8.0413818359375,-3.021240234375
10.6699999,-9.93354320526123,1.213860273361206,0.646434485912323,17.51708984375,-6.195068359375,-8.30078125
10.6899999,-9.837775230407715,1.1875240802764893,0.6631938815116882,17.9443359375,-5.9356689453125,-7.6446533203125
10.709999900000001,-9.84495735168457,1.192312479019165,0.9217676520347595,16.1895751953125,-4.852294921875,-4.058837890625
10.729999900000001,-9.785101890563965,1.1851298809051514,1.237802267074585,-6.317138671875,5.645751953125,0.3204345703125
10.7499999,-9.77791976928711,0.9983820915222168,1.577778935432434,-17.333984375,7.5225830078125,2.4871826171875
10.7699999,-9.921571731567383,0.9720458984375,1.4053963422775269,-1.3580322265625,3.7841796875,-0.274658203125
10.7899999,-9.890447616577148,0.9050082564353943,1.01753568649292,2.716064453125,6.8359375,-1.3580322265625
10.809999900000001,-9.93354320526123,0.9959878921508789,0.7350199222564697,5.706787109375,8.3770751953125,-5.584716796875
10.8299999,-9.919178009033203,1.0654197931289673,0.5315127968788147,7.0343017578125,-1.373291015625,-0.3509521484375
10.8499999,-9.856928825378418,1.070208191871643,0.2944868206977844,1.5411376953125,-1.983642578125,1.4495849609375
10.8699999,-9.928754806518555,1.1324573755264282,0.2322375625371933,6.195068359375,-7.9498291015625,-0.1678466796875
10.889999900000001,-9.943120002746582,1.113303780555725,0.2322375625371933,4.3182373046875,-11.7340087890625,0.1678466796875
10.9099999,-9.888052940368652,1.2018892765045166,0.47405192255973816,-7.171630859375,-9.857177734375,-6.683349609375
10.9299999,-9.84495735168457,1.2186486721038818,0.8379706144332886,-13.9007568359375,-0.2288818359375,-3.5552978515625
10.9499999,-9.742006301879883,1.2689268589019775,1.4053963422775269,-17.852783203125,10.31494140625,-2.5634765625
10.969999900000001,-9.646238327026367,1.2258312702178955,1.778891921043396,-35.1104736328125,18.7225341796875,0.732421875
10.9899999,-9.758766174316406,1.0295066833496094,1.7980455160140991,-39.642333984375,23.3917236328125,8.087158203125
11.0099999,-9.792284965515137,0.8092401623725891,1.4269442558288574,-15.13671875,5.767822265625,7.6904296875
11.0299999,-10.089165687561035,0.6105214357376099,0.7733271718025208,12.02392578125,-5.859375,5.67626953125
11.049999900000001,-10.098742485046387,0.5770025849342346,0.021547814831137657,23.3306884765625,-11.5814208984375,-2.777099609375
11.069999900000001,-10.177751541137695,0.8020575642585754,-0.20350714027881622,40.1763916015625,-20.843505859375,-4.9285888671875
11.0899999,-10.08198356628418,1.170764684677124,-0.17477671802043915,39.1387939453125,-15.0146484375,-9.4757080078125
11.1099999,-9.943120002746582,1.3934253454208374,0.16759411990642548,19.59228515625,-6.4544677734375,-8.6517333984375
11.129999900000001,-9.904812812805176,1.4915876388549805,0.7038952708244324,17.0135498046875,-14.434814453125,-2.9449462890625
11.149999900000001,-9.861717224121094,1.316810965538025,1.0558429956436157,13.336181640625,-15.2435302734375,-3.6773681640625
11.1699999,-9.909601211547852,1.1468225717544556,1.3694833517074585,2.716064453125,-7.3089599609375,-4.669189453125
11.1899999,-9.706093788146973,0.8906430602073669,1.50355863571167,-0.1678466796875,-4.6844482421875,-1.434326171875
11.209999900000001,-9.835380554199219,0.811634361743927,1.5514427423477173,1.9073486328125,-0.6256103515625,-1.251220703125
11.229999900000001,-9.694122314453125,0.727837324142456,1.4939818382263184,2.9449462890625,-4.8675537109375,3.90625
11.2499999,-9.832986831665039,0.6248866319656372,1.280897855758667,-1.0223388671875,-1.4801025390625,6.7901611328125
11.2699999,-9.955090522766113,0.7015010714530945,0.9983820915222168,3.7384033203125,-7.781982421875,6.439208984375
11.2899999,-9.995792388916016,0.7398083209991455,0.811634361743927,13.7176513671875,-21.331787109375,7.4615478515625
11.309999900000001,-10.014945983886719,1.0127472877502441,0.7805097699165344,4.3792724609375,-12.939453125,0.1068115234375
11.3299999,-9.852140426635742,1.280897855758667,1.1109095811843872,-8.23974609375,-0.885009765625,0.274658203125
11.3499999,-9.701305389404297,1.4867992401123047,1.6328455209732056,-14.8773193359375,7.4310302734375,2.50244140625
11.3699999,-9.502586364746094,1.5873557329177856,2.1787235736846924,-24.6124267578125,13.48876953125,0.30517578125
11.389999900000001,-9.533711433410645,1.434126853942871,2.2673089504241943,-30.6549072265625,20.93505859375,7.110595703125
11.4099999,-9.627084732055664,1.2282254695892334,2.056619167327881,-19.134521484375,12.7105712890625,10.7879638671875
11.4299999,-9.832986831665039,1.0965443849563599,1.3958195447921753,-2.99072265625,-0.2593994140625,3.90625
11.4499999,-9.890447616577148,1.0199298858642578,0.7422025203704834,9.4757080078125,-3.41796875,-2.9449462890625
11.469999900000001,-10.079588890075684,1.2234370708465576,0.42377370595932007,18.890380859375,-4.302978515625,-6.0272216796875
11.4899999,-9.830592155456543,1.3718775510787964,0.7541735172271729,13.18359375,-4.0435791015625,-7.0648193359375
11.5099999,-9.871294021606445,1.4915876388549805,1.2186486721038818,-18.6004638671875,20.7366943359375,-5.096435546875
11.5299999,-9.72285270690918,1.4484920501708984,1.6496049165725708,-32.9742431640625,27.4200439453125,2.25830078125
11.549999900000001,-9.81143856048584,1.158793568611145,1.5538369417190552,-15.3961181640625,11.04736328125,4.0130615234375
11.569999900000001,-9.876082420349121,0.9002198576927185,0.9911994934082031,11.41357421875,-1.9989013671875,-4.08935546875
11.5899999,-10.098742485046387,0.6200982332229614,0.2825157940387726,35.0341796875,-8.0718994140625,-6.9732666015625
11.6099999,-10.010157585144043,0.6919242739677429,0.19393034279346466,47.576904296875,-18.0206298828125,-3.0059814453125
11.629999900000001,-9.911994934082031,0.8451532125473022,0.5195417404174805,19.8822021484375,-3.448486328125,-4.547119140625
11.649999900000001,-9.732429504394531,1.113303780555725,1.1348515748977661,-22.0794677734375,18.524169921875,1.7852783203125
11.6699999,-9.674968719482422,1.259350061416626,1.5538369417190552,-35.3851318359375,17.02880859375,10.19287109375
11.6899999,-9.794678688049316,1.2856862545013428,1.3982137441635132,-15.1214599609375,3.814697265625,0.3662109375
11.709999900000001,-9.983820915222168,1.1971008777618408,0.8786720037460327,12.5274658203125,-7.7667236328125,-7.1563720703125
11.729999900000001,-10.041281700134277,1.1779472827911377,0.5482721924781799,26.4892578125,-12.969970703125,-7.87353515625
11.7499999,-10.019734382629395,1.194706678390503,0.5482721924781799,19.3328857421875,-6.1798095703125,-9.7198486328125
11.7699999,-9.835380554199219,1.1755530834197998,0.8954314589500427,-1.434326171875,3.509521484375,-7.3699951171875
11.7899999,-9.80904483795166,0.9911994934082031,1.1444283723831177,-15.533447265625,7.8582763671875,2.4871826171875
11.809999900000001,-9.787496566772461,0.8475474119186401,1.170764684677124,-7.8582763671875,-0.823974609375,8.026123046875
11.8299999,-9.883264541625977,0.6799532771110535,1.0127472877502441,6.2713623046875,-11.0626220703125,4.0283203125
11.8499999,-9.928754806518555,0.7924807667732239,0.9145850539207458,9.94873046875,-8.636474609375,-1.9989013671875
11.8699999,-9.856928825378418,1.0271124839782715,1.1037269830703735,0.4425048828125,0.2899169921875,-2.3345947265625
11.889999900000001,-9.744400978088379,1.3263877630233765,1.4915876388549805,-21.697998046875,14.34326171875,-1.46484375
11.9099999,-9.708487510681152,1.3958195447921753,1.6974890232086182,-35.9344482421875,21.3470458984375,2.838134765625
11.9299999,-9.713275909423828,1.2641384601593018,1.556231141090393,-27.2216796875,15.2435302734375,5.5084228515625
11.9499999,-9.888052940368652,1.0127472877502441,1.0534487962722778,-2.532958984375,-3.2196044921875,4.9285888671875
11.969999900000001,-10.034099578857422,0.8643068075180054,0.40940847992897034,14.9688720703125,-12.664794921875,0.8697509765625
11.9899999,-10.041281700134277,0.8259995579719543,0.08140286058187485,21.9879150390625,-13.946533203125,-5.157470703125
12.0099999,-10.017339706420898,0.9768342971801758,0.21547815203666687,22.4609375,-11.3677978515625,-7.6141357421875
12.0299999,-9.8784761428833,1.1348515748977661,0.6847416758537292,7.75146484375,0.1678466796875,-4.1656494140625
12.049999900000001,-9.823410034179688,1.1348515748977661,1.115697979927063,-4.119873046875,5.523681640625,1.5411376953125
12.069999900000001,-9.780313491821289,1.1085153818130493,1.3455413579940796,4.5013427734375,-3.7078857421875,3.509521484375
12.0899999,-9.873687744140625,1.072602391242981,1.335964560508728,14.9993896484375,-8.2855224609375,-1.15966796875
12.1099999,-9.847352027893066,1.0797849893569946,1.2713210582733154,9.3841552734375,-4.69970703125,-5.645751953125
12.129999900000001,-9.780313491821289,1.2042834758758545,1.5298948287963867,-3.9825439453125,2.01416015625,-9.2010498046875
12.149999900000001,-9.63187313079834,1.278503656387329,1.8986018896102905,-22.4761962890625,16.204833984375,-2.3651123046875
12.1699999,-9.569623947143555,1.2401964664459229,2.10210919380188,-41.7633056640625,30.6854248046875,3.4637451171875
12.1899999,-9.643844604492188,1.0295066833496094,1.8579005002975464,-35.400390625,24.169921875,5.8135986328125
12.209999900000001,-9.797073364257812,0.8307880163192749,1.1659762859344482,-11.23046875,6.805419921875,6.6070556640625
12.229999900000001,-10.11550235748291,0.790086567401886,0.07182604819536209,6.317138671875,-4.6234130859375,4.0740966796875
12.2499999,-10.125079154968262,0.7852981686592102,-0.586579442024231,17.3492431640625,-23.0560302734375,-2.288818359375
12.2699999,-10.093954086303711,0.9050082564353943,-0.6320692300796509,20.721435546875,-28.80859375,-14.0838623046875
12.289999900000002,-9.895236015319824,0.9792284965515137,0.016759412363171577,5.6304931640625,-8.2855224609375,-3.173828125
12.309999900000001,-9.634267807006836,0.9648633003234863,1.2880805730819702,-23.6358642578125,8.3160400390625,6.6070556640625
12.3299999,-9.493009567260742,0.8954314589500427,2.205059766769409,-52.9022216796875,25.45166015625,15.106201171875
12.3499999,-8.98543930053711,0.8188169598579407,2.4636335372924805,-45.71533203125,23.6663818359375,17.578125
12.3699999,-8.243236541748047,0.6536170840263367,1.886630892753601,-3.0975341796875,7.7667236328125,13.7481689453125
12.389999900000001,-7.374141216278076,0.38546648621559143,0.8738836050033569,39.1387939453125,-13.1683349609375,9.368896484375
12.4099999,-7.038952827453613,0.24660277366638184,-0.07182604819536209,62.713623046875,-21.575927734375,2.166748046875
12.4299999,-7.2783732414245605,0.31364041566848755,-0.29209262132644653,64.94140625,-25.57373046875,10.589599609375
12.4499999,-8.607154846191406,1.0295066833496094,0.3974374830722809,38.5894775390625,-17.1356201171875,16.7083740234375
12.469999900000001,-10.146626472473145,2.2601263523101807,1.7980455160140991,-28.99169921875,18.7530517578125,3.60107421875
12.4899999,-11.628637313842773,3.2800562381744385,2.5234885215759277,-112.4725341796875,69.5953369140625,-9.46044921875
12.5099999,-12.765883445739746,3.6846764087677,2.315192937850952,-92.83447265625,55.267333984375,-8.4686279296875
12.5299999,-13.024456977844238,2.7724854946136475,1.2761094570159912,-4.9896240234375,-26.519775390625,-2.4871826171875
12.549999900000001,-12.830527305603027,1.1899182796478271,-0.2801215946674347,50.079345703125,-43.1365966796875,9.7198486328125
12.569999900000001,-12.24394702911377,-0.26575639843940735,-0.9145850539207458,77.4078369140625,-38.0859375,22.27783203125
12.5899999,-11.200075149536133,-0.7565677165985107,-0.47405192255973816,73.8677978515625,-31.0211181640625,24.1546630859375
12.6099999,-10.271124839782715,-0.019153613597154617,0.9050082564353943,36.8804931640625,-1.861572265625,24.2767333984375
12.629999900000001,-9.560047149658203,1.3455413579940796,1.9919757843017578,-26.0467529296875,42.4652099609375,-4.0740966796875
12.649999900000001,-9.119514465332031,2.6862943172454834,2.849100112915039,-46.3409423828125,47.9278564453125,-12.9547119140625
12.6699999,-9.615114212036133,3.2585084438323975,2.542642116546631,-32.6995849609375,28.6865234375,-11.7034912109375
12.6899999,-10.541669845581055,2.9065608978271484,1.3503297567367554,-1.312255859375,3.5552978515625,-14.068603515625
12.709999900000001,-11.408370971679688,2.0829553604125977,0.11013327538967133,44.769287109375,-21.8505859375,-4.180908203125
12.729999900000001,-12.85207462310791,1.4628572463989258,-0.706289529800415,67.6422119140625,-28.0303955078125,-7.843017578125
12.7499999,-12.801796913146973,1.3120225667953491,-0.8667010068893433,66.8792724609375,-27.6641845703125,-35.2935791015625
12.7699999,-13.476961135864258,1.7621324062347412,-0.2298433631658554,51.57470703125,-11.9476318359375,-15.56396484375
12.789999900000002,-12.38759994506836,2.365471363067627,0.586579442024231,26.30615234375,-5.6304931640625,-51.33056640625
12.809999900000001,-11.57596492767334,2.691082715988159,1.37906014919281,5.462646484375,1.068115234375,-31.06689453125
12.8299999,-9.981427192687988,2.6647465229034424,1.8818424940109253,-0.823974609375,-0.213623046875,-23.8800048828125
12.8499999,-8.482656478881836,2.2194249629974365,2.0590133666992188,0.762939453125,-2.3956298828125,-18.218994140625
12.8699999,-7.297526836395264,1.6328455209732056,1.9345149993896484,1.9073486328125,19.10400390625,-4.425048828125
12.889999900000001,-6.557718276977539,0.9672574996948242,1.4077905416488647,7.26318359375,21.4996337890625,2.1209716796875
12.9099999,-6.315904140472412,0.47165772318840027,0.8762778043746948,21.881103515625,2.0294189453125,-2.3193359375
12.9299999,-6.5696892738342285,0.1364694982767105,0.30885201692581177,30.548095703125,-2.1209716796875,-9.27734375
12.9499999,-7.072471618652344,0.023942016065120697,0.05267243832349777,28.9306640625,9.09423828125,-14.312744140625
12.969999900000001,-7.65186882019043,0.035913024097681046,0.16998831927776337,21.331787109375,9.8876953125,-14.007568359375
12.9899999,-8.271966934204102,0.11013327538967133,0.4908113479614258,12.20703125,2.0599365234375,-3.90625
13.0099999,-8.848969459533691,0.18914192914962769,0.849941611289978,5.950927734375,1.2969970703125,3.6468505859375
13.0299999,-9.332598686218262,0.24899697303771973,1.113303780555725,2.38037109375,7.8277587890625,0.9613037109375
13.049999900000001,-9.742006301879883,0.3232172429561615,1.2210428714752197,-1.2054443359375,8.8348388671875,-2.2125244140625
13.069999900000001,-10.002974510192871,0.3902548849582672,1.1827356815338135,-5.3558349609375,0.9002685546875,-1.8310546875
13.0899999,-10.093954086303711,0.4213795065879822,1.036689281463623,-7.6904296875,-2.5787353515625,-1.2664794921875
13.1099999,-10.02691650390625,0.42856210470199585,0.828393816947937,-8.0718994140625,0.5645751953125,1.0986328125
13.129999900000001,-9.84495735168457,0.4381389021873474,0.629675030708313,-7.75146484375,-1.5411376953125,6.0577392578125
13.149999900000001,-9.646238327026367,0.4692635238170624,0.47884035110473633,-7.232666015625,-1.5106201171875,7.2784423828125
13.1699999,-9.521739959716797,0.524330198764801,0.40222588181495667,-6.5460205078125,5.4473876953125,3.3416748046875
13.1899999,-9.521739959716797,0.5817909836769104,0.38307225704193115,-6.011962890625,7.0953369140625,2.1820068359375
13.209999900000001,-9.62947940826416,0.6177040338516235,0.42616790533065796,-6.195068359375,-3.4637451171875,8.4228515625
13.229999900000001,-9.856928825378418,0.6440402865409851,0.4908113479614258,-5.9814453125,-7.3394775390625,11.9476318359375
13.2499999,-10.146626472473145,0.6847416758537292,0.5482721924781799,-3.72314453125,1.4190673828125,2.9296875
13.2699999,-10.395624160766602,0.7230489253997803,0.5961562395095825,-1.28173828125,3.5400390625,-9.1094970703125
13.289999900000002,-10.551246643066406,0.7613561153411865,0.6033388376235962,-0.8544921875,-2.8076171875,-11.2762451171875
13.309999900000001,-10.54406452178955,0.7829039692878723,0.5841852426528931,-0.152587890625,-2.685546875,-7.75146484375
13.3299999,-10.371682167053223,0.7781155705451965,0.5626373887062073,2.0294189453125,3.448486328125,-4.2877197265625
13.3499999,-10.280701637268066,0.8140285611152649,0.5770025849342346,1.64794921875,3.0975341796875,2.593994140625
13.3699999,-10.259154319763184,0.8547300100326538,0.6512228846549988,-1.953125,-2.3193359375,0.4730224609375
13.389999900000001,-10.266336441040039,0.9457096457481384,0.7158663272857666,-4.39453125,-4.2724609375,-8.48388671875
13.4099999,-10.350133895874023,1.0007762908935547,0.7924807667732239,-2.593994140625,-0.9918212890625,2.62451171875
13.4299999,-10.271124839782715,1.0606313943862915,0.811634361743927,-2.7923583984375,-2.4261474609375,2.38037109375
13.4499999,-10.137049674987793,1.091755986213684,0.8044517636299133,-4.2724609375,-2.410888671875,-1.861572265625
13.469999900000001,-9.967061996459961,1.0462661981582642,0.7637503147125244,-4.058837890625,-1.4190673828125,-3.5552978515625
13.4899999,-9.840168952941895,0.9624691009521484,0.790086567401886,-2.3193359375,-1.129150390625,-1.7547607421875
13.5099999,-9.770736694335938,0.8810662031173706,0.8690952062606812,-4.94384765625,-1.983642578125,-5.1727294921875
13.5299999,-9.749189376831055,0.828393816947937,1.015141487121582,-11.23046875,3.3721923828125,-1.15966796875
13.549999900000001,-9.780313491821289,0.7422025203704834,1.1492167711257935,-17.02880859375,8.8653564453125,3.2806396484375
13.569999900000001,-9.768342971801758,0.751779317855835,1.2952631711959839,-22.9339599609375,12.14599609375,2.9296875
13.5899999,-9.830592155456543,0.629675030708313,1.1827356815338135,-22.64404296875,11.077880859375,3.9215087890625
13.6099999,-9.888052940368652,0.5434837937355042,1.0342950820922852,-13.458251953125,6.8206787109375,4.1351318359375
13.629999900000001,-9.964667320251465,0.47405192255973816,0.706289529800415,0.7171630859375,2.532958984375,1.2664794921875
13.649999900000001,-10.072406768798828,0.3734954595565796,0.2513911724090576,11.2152099609375,-2.838134765625,1.617431640625
13.6699999,-10.046070098876953,0.5482721924781799,-0.11013327538967133,18.890380859375,-14.678955078125,6.3323974609375
13.6899999,-10.101137161254883,0.646434485912323,-0.23702596127986908,23.101806640625,-18.1427001953125,4.7149658203125
13.709999900000001,-9.99339771270752,0.9768342971801758,-0.05985504388809204,17.76123046875,-20.904541015625,-4.0435791015625
13.729999900000001,-9.955090522766113,1.1468225717544556,0.30885201692581177,4.2877197265625,-14.068603515625,-7.965087890625
13.7499999,-9.895236015319824,1.235408067703247,0.8906430602073669,-4.3792724609375,-2.01416015625,-6.9122314453125
13.7699999,-9.780313491821289,1.2880805730819702,1.5275006294250488,-11.199951171875,2.44140625,-3.6468505859375
13.789999900000002,-9.742006301879883,1.2186486721038818,1.9536685943603516,-28.0609130859375,14.9078369140625,1.8157958984375
13.809999900000001,-9.691728591918945,1.0989385843276978,2.2457611560821533,-36.0260009765625,21.5301513671875,2.0751953125
13.8299999,-9.751583099365234,0.811634361743927,2.075772762298584,-25.543212890625,16.571044921875,-6.9580078125
13.8499999,-9.832986831665039,0.4620809257030487,1.5083470344543457,-7.6751708984375,15.7928466796875,-2.716064453125
13.8699999,-9.976638793945312,0.1867477297782898,0.7493851184844971,11.3372802734375,10.650634765625,4.5623779296875
13.889999900000001,-10.137049674987793,0.12449848651885986,0.10773907601833344,16.6473388671875,-1.8157958984375,7.049560546875
13.9099999,-10.26394271850586,0.22026655077934265,-0.35434186458587646,11.4898681640625,-7.3394775390625,7.8887939453125
13.9299999,-10.14902114868164,0.5195417404174805,-0.3926490843296051,12.4664306640625,-10.284423828125,-2.99072265625
13.9499999,-10.165780067443848,0.7182605266571045,-0.2777273952960968,14.2822265625,-11.016845703125,-6.9122314453125
13.969999900000001,-9.988609313964844,0.9145850539207458,0.15562310814857483,9.6435546875,-5.1116943359375,0.9613037109375
13.9899999,-9.773131370544434,1.070208191871643,0.667982280254364,-3.1585693359375,-2.4871826171875,5.8441162109375
14.0099999,-9.677363395690918,1.1085153818130493,1.2689268589019775,-19.0582275390625,2.99072265625,8.6212158203125
14.0299999,-9.576807022094727,1.161187767982483,1.7310078144073486,-37.4908447265625,8.880615234375,1.739501953125
14.049999900000001,-9.497797966003418,0.9648633003234863,1.8698714971542358,-48.7213134765625,18.5394287109375,2.105712890625
14.069999900000001,-9.682151794433594,0.9002198576927185,1.6759412288665771,-36.9110107421875,21.8353271484375,7.4462890625
14.0899999,-9.86889934539795,0.6344634294509888,1.094150185585022,-17.364501953125,13.7176513671875,8.6517333984375
14.1099999,-10.15141487121582,0.5051765441894531,0.3663128614425659,-1.0223388671875,0.79345703125,10.1470947265625
14.129999900000001,-10.33098030090332,0.4908113479614258,-0.4141969084739685,21.636962890625,-17.9595947265625,4.5013427734375
14.149999900000001,-10.429142951965332,0.5315127968788147,-0.8906430602073669,40.6494140625,-28.7322998046875,-4.0130615234375
14.1699999,-10.36449909210205,0.730231523513794,-1.1109095811843872,48.1719970703125,-29.6630859375,-5.7830810546875
14.1899999,-10.168174743652344,1.091755986213684,-0.6991068720817566,44.403076171875,-31.3873291015625,-2.0751953125
14.209999900000001,-10.031704902648926,1.2880805730819702,0.05746084079146385,22.9949951171875,-26.06201171875,-0.091552734375
14.229999900000001,-9.746794700622559,1.4963760375976562,1.0965443849563599,0.9613037109375,-18.8751220703125,-5.1727294921875
14.2499999,-9.581595420837402,1.455674648284912,2.0638017654418945,-10.7574462890625,-6.103515625,-7.5836181640625
14.2699999,-9.454702377319336,1.2521674633026123,2.738966703414917,-18.2647705078125,7.781982421875,-2.227783203125
14.289999900000002,-9.41639518737793,1.0606313943862915,3.0382418632507324,-24.6124267578125,17.0745849609375,3.9215087890625
14.309999900000001,-9.461885452270508,0.9840168952941895,2.985569477081299,-32.135009765625,21.9268798828125,7.5225830078125
14.3299999,-9.66539192199707,0.7757213711738586,2.497152328491211,-31.219482421875,23.3154296875,5.3558349609375
14.3499999,-9.81143856048584,0.7876923680305481,1.8411411046981812,-13.5498046875,15.7318115234375,-2.8076171875
14.3699999,-9.916783332824707,0.7613561153411865,0.9361328482627869,6.1187744140625,9.6893310546875,-5.584716796875
14.389999900000001,-10.103530883789062,0.8379706144332886,-0.2753331959247589,16.937255859375,-1.6632080078125,-0.79345703125
14.4099999,-10.134655952453613,0.8690952062606812,-0.4429273009300232,8.209228515625,-8.1329345703125,-0.54931640625
14.4299999,-10.14902114868164,0.871489405632019,-0.17477671802043915,6.3018798828125,-12.0086669921875,-5.06591796875
14.4499999,-10.017339706420898,0.8164227604866028,0.2106897532939911,3.72314453125,-6.4697265625,-4.913330078125
14.469999900000001,-10.010157585144043,0.7852981686592102,0.6320692300796509,-1.6021728515625,2.1514892578125,-1.953125
14.4899999,-9.967061996459961,0.6751648783683777,0.9768342971801758,-2.62451171875,0.091552734375,5.79833984375
14.5099999,-9.904812812805176,0.7230489253997803,1.2090718746185303,-4.1656494140625,-2.44140625,8.1787109375
14.5299999,-9.861717224121094,0.768538773059845,1.2713210582733154,-5.31005859375,-4.82177734375,3.814697265625
14.549999900000001,-9.801861763000488,0.8643068075180054,1.3623007535934448,-8.97216796875,1.068115234375,-1.251220703125
14.569999900000001,-9.672574996948242,1.0534487962722778,1.3048399686813354,-15.19775390625,9.368896484375,-3.1890869140625
14.5899999,-9.751583099365234,1.1037269830703735,1.2665326595306396,-16.204833984375,11.962890625,1.373291015625
14.6099999,-9.72285270690918,1.1540051698684692,1.2114660739898682,-15.167236328125,9.033203125,2.7923583984375
14.629999900000001,-9.801861763000488,1.1324573755264282,1.0295066833496094,-13.48876953125,3.936767578125,0.5035400390625
14.649999900000001,-9.9000244140625,0.9816226959228516,0.9481038451194763,-12.939453125,5.0201416015625,-2.5482177734375
14.6699999,-9.749189376831055,0.8858546018600464,0.7757213711738586,-11.8255615234375,7.1868896484375,-6.134033203125
14.6899999,-9.950302124023438,0.6320692300796509,0.6344634294509888,-4.638671875,6.9122314453125,2.838134765625
14.709999900000001,-9.804255485534668,0.5363011956214905,0.5339069962501526,-0.4730224609375,0.335693359375,7.2479248046875
14.729999900000001,-10.04846477508545,0.4572925269603729,0.4213795065879822,4.302978515625,-4.364013671875,4.9591064453125
14.7499999,-9.959878921508789,0.6512228846549988,0.6416460275650024,5.0506591796875,-5.55419921875,1.190185546875
14.7699999,-10.11550235748291,0.8092401623725891,0.6392518281936646,-7.26318359375,4.5318603515625,-1.1444091796875
14.789999900000002,-10.012551307678223,0.9864110946655273,0.9289502501487732,-4.791259765625,6.8206787109375,-2.1820068359375
14.809999900000001,-10.02691650390625,1.0893617868423462,0.871489405632019,4.302978515625,0.457763671875,0.6866455078125
14.8299999,-10.065223693847656,0.950498104095459,0.7086837291717529,6.6070556640625,-4.5318603515625,2.105712890625
14.8499999,-10.007762908935547,0.9648633003234863,0.49320554733276367,19.5770263671875,-14.34326171875,-4.638671875
14.8699999,-10.02452278137207,0.8667010068893433,0.47405192255973816,25.4669189453125,-16.0064697265625,-8.1024169921875
14.889999900000001,-9.897629737854004,0.912190854549408,0.6871358752250671,13.7481689453125,-5.8441162109375,-6.65283203125
14.9099999,-9.775525093078613,1.0247182846069336,1.1061211824417114,-2.3040771484375,6.5155029296875,-2.777099609375
14.9299999,-9.801861763000488,0.9528923034667969,1.5155296325683594,-16.6168212890625,9.5672607421875,3.692626953125
14.9499999,-9.691728591918945,0.9457096457481384,1.6711528301239014,-20.2178955078125,5.706787109375,2.99072265625
14.969999900000001,-9.849745750427246,0.8188169598579407,1.5107412338256836,-11.7950439453125,7.0343017578125,1.220703125
14.9899999,-9.794678688049316,0.7326257228851318,1.357512354850769,-7.354736328125,7.9498291015625,0.1373291015625
15.0099999,-9.80904483795166,0.8355764150619507,1.1037269830703735,-12.9547119140625,14.5263671875,-0.885009765625
15.0299999,-9.861717224121094,0.8690952062606812,0.8427590131759644,-19.7906494140625,14.16015625,2.44140625
15.049999900000001,-9.888052940368652,0.9840168952941895,0.7110779285430908,-15.2587890625,4.1656494140625,3.448486328125
15.069999900000001,-10.04846477508545,1.0271124839782715,0.3280056416988373,-9.9029541015625,-1.52587890625,-1.8768310546875
15.0899999,-9.856928825378418,0.9361328482627869,0.21547815203666687,-9.5062255859375,-4.08935546875,-6.134033203125
15.1099999,-10.005369186401367,0.8164227604866028,0.0454898327589035,-2.9144287109375,-2.777099609375,-4.791259765625
15.129999900000001,-9.93354320526123,0.5339069962501526,-0.009576806798577309,7.354736328125,-10.8795166015625,2.288818359375
15.149999900000001,-10.067618370056152,0.3208230137825012,0.009576806798577309,19.9737548828125,-19.8211669921875,6.5155029296875
15.1699999,-10.132261276245117,0.22505496442317963,0.1628057211637497,25.7720947265625,-24.2462158203125,5.9814453125
15.1899999,-10.192116737365723,0.4357447028160095,0.5339069962501526,16.1285400390625,-17.9595947265625,2.3040771484375
15.209999900000001,-9.864110946655273,0.8236053586006165,1.3886369466781616,-0.8087158203125,-4.6539306640625,0.091552734375
15.229999900000001,-9.730035781860352,1.2401964664459229,2.0661959648132324,-23.92578125,17.608642578125,-0.8697509765625
15.2499999,-9.615114212036133,1.3862427473068237,2.52109432220459,-37.8570556640625,25.45166015625,7.080078125
15.2699999,-9.536105155944824,1.4844050407409668,2.319981336593628,-22.8271484375,12.481689453125,4.7149658203125
15.289999900000002,-9.794678688049316,1.2090718746185303,1.6519991159439087,4.669189453125,1.0833740234375,-2.7618408203125
15.309999900000001,-9.840168952941895,1.194706678390503,0.9624691009521484,16.3421630859375,-2.1209716796875,-6.7138671875
15.3299999,-9.955090522766113,1.0103530883789062,0.5602431893348694,9.7808837890625,4.39453125,-7.049560546875
15.3499999,-9.983820915222168,0.9816226959228516,0.5147533416748047,-8.026123046875,11.505126953125,-2.4566650390625
15.3699999,-10.002974510192871,0.7829039692878723,0.49799394607543945,-14.4805908203125,6.0577392578125,3.2501220703125
15.389999900000001,-9.988609313964844,0.6105214357376099,0.6033388376235962,-5.157470703125,1.6632080078125,1.373291015625
15.4099999,-9.976638793945312,0.524330198764801,0.5985504388809204,1.3885498046875,-0.4119873046875,-0.6256103515625
15.4299999,-9.907206535339355,0.4908113479614258,0.7709329724311829,-4.8828125,8.7738037109375,-0.0762939453125
15.4499999,-9.86650562286377,0.6991068720817566,0.9528923034667969,-17.9290771484375,17.852783203125,4.058837890625
15.469999900000001,-9.86889934539795,0.730231523513794,0.9457096457481384,-20.56884765625,10.8642578125,9.368896484375
15.4899999,-9.90241813659668,1.0869675874710083,0.7493851184844971,-9.8876953125,1.190185546875,6.4544677734375
15.5099999,-9.854534149169922,1.0558429956436157,0.4836287498474121,-7.1868896484375,-6.378173828125,-0.3814697265625
15.5299999,-9.861717224121094,1.216254472732544,0.2968810200691223,-9.979248046875,-0.54931640625,-11.9171142578125
15.549999900000001,-9.971850395202637,0.9648633003234863,0.12928688526153564,-2.0599365234375,-0.9002685546875,-2.838134765625
15.569999900000001,-9.911994934082031,0.7206547260284424,0.15801730751991272,14.2974853515625,-12.51220703125,5.645751953125
15.5899999,-10.211270332336426,0.3423708379268646,0.11252748221158981,26.9012451171875,-21.5606689453125,3.0517578125
15.6099999,-10.091560363769531,0.3758896589279175,0.35913026332855225,26.1077880859375,-19.0887451171875,2.2735595703125
15.629999900000001,-10.012551307678223,0.5650315880775452,1.0558429956436157,6.805419921875,-6.805419921875,5.37109375
15.649999900000001,-9.660603523254395,1.1013327836990356,1.9488801956176758,-25.7110595703125,17.3187255859375,0.091552734375
15.6699999,-9.612719535827637,1.3934253454208374,2.492363929748535,-56.884765625,44.2962646484375,2.7313232421875
15.6899999,-9.459490776062012,1.599326729774475,2.410961151123047,-49.2401123046875,31.5704345703125,10.4522705078125
15.709999900000001,-9.78989028930664,1.436521053314209,1.4891934394836426,-14.2669677734375,10.8795166015625,-0.091552734375
15.729999900000001,-9.919178009033203,1.2186486721038818,0.33279404044151306,16.265869140625,-5.3863525390625,-8.23974609375
15.7499999,-10.144232749938965,0.9720458984375,-0.5386953949928284,34.9578857421875,-13.1072998046875,-12.969970703125
15.7699999,-10.247182846069336,0.768538773059845,-0.8810662031173706,32.8826904296875,-8.0718994140625,-11.4288330078125
15.789999900000002,-10.218452453613281,0.569819986820221,-0.790086567401886,30.731201171875,-18.5546875,-0.2288818359375
15.809999900000001,-10.1753568649292,0.47405192255973816,-0.31124621629714966,34.5458984375,-26.30615234375,-0.4425048828125
15.8299999,-9.998186111450195,0.5746083855628967,0.4429273009300232,25.8331298828125,-21.5911865234375,-0.9307861328125
15.8499999,-9.739612579345703,0.8020575642585754,1.5682021379470825,-5.5084228515625,-1.3427734375,1.0223388671875
15.869999900000002,-9.488221168518066,1.1420341730117798,2.52109432220459,-50.1556396484375,34.912109375,1.64794921875
15.889999900000001,-9.516951560974121,1.1659762859344482,2.7317841053009033,-62.896728515625,43.2281494140625,10.9100341796875
15.9099999,-9.53849983215332,1.1300631761550903,2.1954829692840576,-29.632568359375,16.143798828125,9.796142578125
15.9299999,-9.828198432922363,0.9888052940368652,0.8906430602073669,6.9427490234375,-6.8511962890625,2.410888671875
15.9499999,-9.909601211547852,0.9648633003234863,0.08379705995321274,17.3187255859375,-14.46533203125,-4.9896240234375
15.969999900000001,-9.988609313964844,1.0773907899856567,-0.3447650372982025,3.4637451171875,0.79345703125,-11.5509033203125
15.9899999,-10.014945983886719,0.993593692779541,-0.10295066982507706,-8.60595703125,8.2244873046875,-3.23486328125
16.0099999,-9.892841339111328,0.8667010068893433,0.2346317619085312,-0.6256103515625,-5.828857421875,5.706787109375
16.0299999,-10.031704902648926,0.706289529800415,0.49320554733276367,5.0048828125,-10.955810546875,3.753662109375
16.0499999,-9.744400978088379,0.6775590777397156,0.8355764150619507,-5.9356689453125,-5.0048828125,2.9144287109375
16.0699999,-9.751583099365234,0.7589619159698486,1.2665326595306396,-21.7437744140625,13.1072998046875,-0.9002685546875
16.089999900000002,-9.66299819946289,0.8236053586006165,1.5729905366897583,-34.24072265625,23.5595703125,3.326416015625
16.109999900000002,-9.409213066101074,0.6655880808830261,1.414973258972168,-30.792236328125,18.9208984375,16.998291015625
16.1299999,-8.853757858276367,0.5195417404174805,1.1085153818130493,-2.7923583984375,0.54931640625,18.7530517578125
16.1499999,-8.398859977722168,0.6248866319656372,0.7254431247711182,9.368896484375,-3.997802734375,6.072998046875
16.1699999,-7.680599212646484,0.5267243981361389,0.3064578175544739,-12.054443359375,15.411376953125,-1.2054443359375
16.1899999,-7.510610580444336,0.7182605266571045,0.2346317619085312,-8.9263916015625,13.0767822265625,15.80810546875
16.2099999,-8.003816604614258,0.5578489899635315,0.026336219161748886,15.228271484375,-6.072998046875,16.387939453125
16.2299999,-9.117119789123535,0.7493851184844971,-0.031124621629714966,33.6761474609375,-15.3961181640625,15.3350830078125
16.249999900000002,-10.802638053894043,1.335964560508728,0.4118026793003082,31.9366455078125,-6.40869140625,6.3629150390625
16.269999900000002,-12.36605167388916,1.7046716213226318,0.7110779285430908,1.6326904296875,20.0958251953125,-11.383056640625
16.2899999,-13.469779014587402,2.1068975925445557,0.9169792532920837,-6.0577392578125,20.1568603515625,-14.1448974609375
16.3099999,-13.51766300201416,1.8339585065841675,0.7230489253997803,31.92138671875,-14.617919921875,8.97216796875
16.3299999,-13.306973457336426,1.3000515699386597,0.22505496442317963,52.6580810546875,-31.31103515625,17.4560546875
16.3499999,-12.131420135498047,1.0055646896362305,0.3016694188117981,47.8515625,-30.517578125,12.26806640625
16.3699999,-11.712434768676758,1.173158884048462,0.5027823448181152,20.8587646484375,-3.4027099609375,5.8746337890625
16.3899999,-10.6709566116333,1.3670891523361206,0.8020575642585754,14.4805908203125,5.2337646484375,-11.932373046875
16.4099999,-10.800244331359863,1.889025092124939,0.9768342971801758,37.322998046875,-0.9918212890625,-2.86865234375
16.429999900000002,-10.69489860534668,1.9800047874450684,0.7374141216278076,38.1011962890625,-20.4620361328125,-20.5078125
16.4499999,-10.189722061157227,1.8387469053268433,0.6129156351089478,26.7181396484375,-12.725830078125,0.18310546875
16.4699999,-9.196128845214844,1.8555063009262085,0.9241618514060974,12.298583984375,-3.814697265625,19.3634033203125
16.4899999,-7.654263019561768,1.599326729774475,1.4077905416488647,-8.7127685546875,-0.762939453125,3.5247802734375
16.5099999,-6.818686485290527,1.6112977266311646,1.946485996246338,-26.0009765625,16.0369873046875,-4.3487548828125
16.5299999,-7.173028469085693,1.5298948287963867,2.1547815799713135,-32.1044921875,29.0985107421875,-5.55419921875
16.5499999,-8.925583839416504,1.4724340438842773,1.8602946996688843,-29.022216796875,28.4576416015625,-1.77001953125
16.5699999,-10.970232009887695,1.3479355573654175,1.1061211824417114,-17.852783203125,16.754150390625,-13.36669921875
16.589999900000002,-12.801796913146973,1.3670891523361206,0.1412578970193863,4.9285888671875,7.904052734375,-16.66259765625
16.609999900000002,-13.886369705200195,1.41257905960083,-0.7589619159698486,29.35791015625,-8.636474609375,-10.7879638671875
16.6299999,-13.960590362548828,1.5203180313110352,-1.2425906658172607,42.388916015625,-31.43310546875,-25.1617431640625
16.6499999,-13.170503616333008,1.5729905366897583,-1.2306196689605713,44.5556640625,-50.8270263671875,-41.9158935546875
16.6699999,-11.798625946044922,1.5610195398330688,-0.6536170840263367,44.9371337890625,-37.2314453125,-41.4886474609375
16.6899999,-9.981427192687988,1.4700398445129395,0.24660277366638184,40.4510498046875,-19.10400390625,-25.543212890625
16.7099999,-8.2312650680542,1.3623007535934448,1.139639973640442,23.345947265625,4.4708251953125,-7.049560546875
16.7299999,-6.871358871459961,1.3215993642807007,1.778891921043396,1.7242431640625,25.5126953125,1.6021728515625
16.749999900000002,-6.026205539703369,1.290474772453308,2.030282974243164,-11.4288330078125,25.146484375,2.3651123046875
16.769999900000002,-5.70777702331543,1.2425906658172607,1.8722656965255737,-17.486572265625,14.6484375,2.3040771484375
16.7899999,-5.829881191253662,1.113303780555725,1.403002142906189,-14.2669677734375,13.763427734375,4.302978515625
16.8099999,-6.258443355560303,0.8906430602073669,0.8068459630012512,-4.547119140625,13.85498046875,5.4931640625
16.8299999,-6.943184852600098,0.6057330369949341,0.23702596127986908,5.5694580078125,3.7841796875,10.009765625
16.8499999,-7.848193168640137,0.38067805767059326,-0.181959331035614,12.8021240234375,-11.5966796875,16.998291015625
16.8699999,-8.78193187713623,0.2346317619085312,-0.3687070608139038,18.4173583984375,-14.2059326171875,13.5498046875
16.8899999,-9.627084732055664,0.19393034279346466,-0.3064578175544739,22.186279296875,-5.2032470703125,6.89697265625
16.9099999,-10.304644584655762,0.26096799969673157,-0.05985504388809204,20.1873779296875,-2.655029296875,9.3841552734375
16.929999900000002,-10.790667533874512,0.3734954595565796,0.26815059781074524,13.73291015625,-4.425048828125,11.3677978515625
16.9499999,-11.08754825592041,0.5003881454467773,0.5793967843055725,8.0718994140625,2.716064453125,3.90625
16.9699999,-11.207258224487305,0.6224924325942993,0.7972691655158997,2.9144287109375,11.6424560546875,-2.9449462890625
16.9899999,-11.113883972167969,0.7326257228851318,0.9097966551780701,-3.753662109375,8.85009765625,-1.0223388671875
17.0099999,-10.797849655151367,0.8020575642585754,0.9193734526634216,-8.36181640625,3.7384033203125,4.2266845703125
17.0299999,-10.424354553222656,0.8307880163192749,0.8355764150619507,-7.3394775390625,6.34765625,7.843017578125
17.0499999,-10.11550235748291,0.8451532125473022,0.7326257228851318,-3.0975341796875,-1.129150390625,10.009765625
17.0699999,-9.998186111450195,0.871489405632019,0.6320692300796509,-0.0762939453125,-11.8865966796875,4.1351318359375
17.089999900000002,-9.947908401489258,0.8882488012313843,0.5674257874488831,2.1514892578125,-9.7503662109375,-12.3748779296875
17.109999900000002,-9.830592155456543,0.8978256583213806,0.5578489899635315,5.2032470703125,-1.6021728515625,-19.7906494140625
17.1299999,-10.096348762512207,0.9672574996948242,0.6392518281936646,6.4849853515625,1.4190673828125,-6.16455078125
17.1499999,-10.034099578857422,0.9696516990661621,0.7326257228851318,0.9307861328125,-10.8489990234375,-5.7830810546875
17.1699999,-10.500968933105469,1.0319008827209473,0.828393816947937,-4.486083984375,-6.28662109375,-8.056640625
17.1899999,-10.493785858154297,1.1492167711257935,0.9002198576927185,-4.5623779296875,-2.410888671875,2.1820068359375
17.2099999,-10.465055465698242,1.2234370708465576,0.9002198576927185,-2.44140625,-5.5084228515625,-3.448486328125
17.2299999,-10.213664054870605,1.3718775510787964,1.015141487121582,-3.1585693359375,-4.8980712890625,-8.880615234375
17.249999900000002,-9.84256362915039,1.4772224426269531,1.1779472827911377,-18.8140869140625,3.8299560546875,-6.3323974609375
17.269999900000002,-9.734824180603027,1.4173674583435059,1.3072341680526733,-34.3780517578125,9.1552734375,-4.0740966796875
17.2899999,-9.641449928283691,1.2186486721038818,1.3072341680526733,-31.3262939453125,7.0037841796875,-3.631591796875
17.3099999,-9.706093788146973,0.7350199222564697,0.9816226959228516,-17.2882080078125,0.640869140625,-2.7008056640625
17.3299999,-9.84495735168457,0.3256114423274994,0.4405331015586853,2.4566650390625,-6.317138671875,0.06103515625
17.3499999,-10.02691650390625,-0.05267243832349777,-0.0694318488240242,21.881103515625,-12.6495361328125,3.3416748046875
17.3699999,-10.089165687561035,0.06703764945268631,-0.3902548849582672,32.3638916015625,-22.1099853515625,2.44140625
17.3899999,-10.27591323852539,0.20350714027881622,-0.4381389021873474,30.1055908203125,-27.3895263671875,4.302978515625
17.409999900000003,-10.105925559997559,0.7110779285430908,0.028730420395731926,24.3377685546875,-31.7535400390625,-1.52587890625
17.429999900000002,-10.007762908935547,1.1468225717544556,0.5817909836769104,12.5732421875,-24.169921875,-7.2174072265625
17.4499999,-9.78989028930664,1.359906554222107,1.2737152576446533,0.48828125,-8.9569091796875,-6.7291259765625
17.4699999,-9.605537414550781,1.5203180313110352,2.0470423698425293,-4.57763671875,-3.7994384765625,-3.47900390625
17.4899999,-9.564835548400879,1.5083470344543457,2.5546131134033203,-22.216796875,7.171630859375,5.55419921875
17.5099999,-9.528923034667969,1.2713210582733154,2.8586769104003906,-37.1246337890625,17.5018310546875,5.7830810546875
17.5299999,-9.63187313079834,1.0414776802062988,2.801215887069702,-34.97314453125,17.059326171875,-2.6702880859375
17.5499999,-9.718064308166504,0.7805097699165344,2.3965959548950195,-23.834228515625,24.0478515625,1.52587890625
17.5699999,-9.710882186889648,0.629675030708313,1.7884687185287476,-13.85498046875,23.6358642578125,6.439208984375
17.589999900000002,-9.945513725280762,0.5171475410461426,1.1540051698684692,-15.6707763671875,17.578125,10.589599609375
17.609999900000002,-9.971850395202637,0.5770025849342346,0.646434485912323,-13.2293701171875,12.7716064453125,7.3394775390625
17.6299999,-10.029311180114746,0.6943184733390808,0.20350714027881622,1.89208984375,4.547119140625,-2.6092529296875
17.6499999,-10.086771965026855,0.7254431247711182,-0.11971008777618408,14.862060546875,-1.6937255859375,-3.72314453125
17.6699999,-10.041281700134277,0.8379706144332886,-0.18914192914962769,18.7225341796875,-1.9378662109375,2.197265625
17.6899999,-9.931148529052734,1.0271124839782715,0,8.575439453125,-2.349853515625,4.1351318359375
17.7099999,-9.914389610290527,1.1180921792984009,0.28730419278144836,-7.6751708984375,-2.6092529296875,3.4637451171875
17.7299999,-9.806650161743164,1.173158884048462,0.8140285611152649,-13.946533203125,-2.38037109375,-1.9073486328125
17.749999900000002,-9.737217903137207,1.1444283723831177,1.1204863786697388,-16.326904296875,5.2032470703125,-3.84521484375
17.769999900000002,-9.737217903137207,1.0797849893569946,1.3718775510787964,-19.4091796875,12.0849609375,6.2103271484375
17.7899999,-9.768342971801758,0.9840168952941895,1.4245500564575195,-23.3306884765625,10.31494140625,7.9803466796875
17.8099999,-9.81143856048584,1.036689281463623,1.237802267074585,-24.2156982421875,8.3160400390625,1.4801025390625
17.8299999,-10.086771965026855,0.9241618514060974,0.9217676520347595,-10.2081298828125,-0.5950927734375,0.7781982421875
17.8499999,-10.005369186401367,0.8667010068893433,0.5506663918495178,4.7149658203125,-2.593994140625,-5.035400390625
17.8699999,-10.079588890075684,0.8212111592292786,0.27054479718208313,16.4642333984375,-6.7291259765625,-5.0506591796875
17.8899999,-10.022128105163574,0.7374141216278076,0.3495534360408783,15.6097412109375,-9.765625,1.1444091796875
17.909999900000003,-9.974244117736816,0.8619126081466675,0.3878606855869293,1.2359619140625,-0.213623046875,4.8675537109375
17.929999900000002,-9.971850395202637,0.8810662031173706,0.646434485912323,3.753662109375,-8.636474609375,-0.7781982421875
17.9499999,-9.95748519897461,0.9026140570640564,0.8236053586006165,15.3045654296875,-13.671875,-3.9215087890625
17.9699999,-9.928754806518555,0.9002198576927185,0.7948749661445618,22.9339599609375,-9.185791015625,-5.5389404296875
17.9899999,-9.861717224121094,0.8571242094039917,1.048660397529602,27.5115966796875,-7.7056884765625,-3.6773681640625
18.0099999,-9.806650161743164,1.091755986213684,1.3646949529647827,3.7384033203125,-0.701904296875,1.556396484375
18.0299999,-9.825803756713867,1.2210428714752197,1.644816517829895,-2.3651123046875,-1.15966796875,-3.5400390625
18.0499999,-9.706093788146973,1.2258312702178955,1.7046716213226318,-12.26806640625,8.60595703125,-4.8065185546875
18.0699999,-9.765948295593262,1.2306196689605713,1.7166426181793213,-16.90673828125,17.5628662109375,-2.01416015625
18.089999900000002,-9.806650161743164,1.0678139925003052,1.4987702369689941,-18.218994140625,14.373779296875,4.2572021484375
18.109999900000002,-9.773131370544434,1.0103530883789062,1.1276689767837524,-14.923095703125,8.0718994140625,3.173828125
18.1299999,-9.964667320251465,0.9720458984375,0.751779317855835,-3.326416015625,-2.0904541015625,-3.7078857421875
18.1499999,-9.938331604003906,0.8188169598579407,0.395043283700943,1.3275146484375,-3.662109375,-7.0648193359375
18.1699999,-9.998186111450195,0.7948749661445618,0.31842881441116333,2.7923583984375,3.9825439453125,-4.730224609375
18.1899999,-9.943120002746582,0.8164227604866028,0.4572925269603729,3.570556640625,-0.030517578125,1.3427734375
18.2099999,-9.950302124023438,0.6991068720817566,0.6200982332229614,-3.3416748046875,-0.42724609375,4.5623779296875
18.2299999,-9.897629737854004,0.8044517636299133,0.8619126081466675,-4.1351318359375,0.7171630859375,0.2899169921875
18.249999900000002,-9.871294021606445,0.8259995579719543,0.9409212470054626,2.6702880859375,-6.134033203125,-4.7760009765625
18.269999900000002,-9.84495735168457,0.8212111592292786,0.993593692779541,5.7373046875,-1.40380859375,-5.1422119140625
18.2899999,-9.799467086791992,0.9169792532920837,1.015141487121582,3.448486328125,3.47900390625,1.0833740234375
18.3099999,-9.758766174316406,0.8810662031173706,1.048660397529602,2.8839111328125,-0.1983642578125,2.532958984375
18.3299999,-9.785101890563965,0.9768342971801758,1.1994950771331787,-0.67138671875,0.5645751953125,3.2501220703125
18.3499999,-9.80904483795166,1.0965443849563599,1.2210428714752197,-16.082763671875,6.2255859375,-4.8370361328125
18.3699999,-9.825803756713867,1.070208191871643,1.2832920551300049,-24.993896484375,12.9852294921875,-4.913330078125
18.3899999,-9.897629737854004,1.1563993692398071,1.1851298809051514,-14.70947265625,16.326904296875,-3.35693359375
18.409999900000003,-10.036493301391602,0.8762778043746948,0.8906430602073669,-2.0294189453125,7.659912109375,1.373291015625
18.429999900000002,-10.012551307678223,0.7948749661445618,0.5817909836769104,10.8184814453125,-5.37109375,1.4495849609375
18.4499999,-10.192116737365723,0.6200982332229614,0.1604115068912506,25.3448486328125,-12.2528076171875,-2.9144287109375
18.4699999,-10.105925559997559,0.6057330369949341,0.16998831927776337,25.7720947265625,-11.7950439453125,-6.988525390625
18.4899999,-9.99339771270752,0.7829039692878723,0.31124621629714966,13.580322265625,-2.899169921875,-4.0130615234375
18.5099999,-9.981427192687988,0.8236053586006165,0.6129156351089478,-1.9378662109375,3.47900390625,2.0599365234375
18.5299999,-9.746794700622559,0.9026140570640564,1.0773907899856567,-6.378173828125,-1.7242431640625,5.37109375
18.5499999,-9.818621635437012,1.0007762908935547,1.1683704853057861,-7.6751708984375,-2.3040771484375,0.7476806640625
18.5699999,-9.682151794433594,0.9409212470054626,1.3670891523361206,-8.48388671875,-0.1068115234375,-2.7618408203125
18.589999900000002,-9.792284965515137,0.9840168952941895,1.314416766166687,-13.5498046875,8.8043212890625,-3.0975341796875
18.609999900000002,-9.744400978088379,0.9289502501487732,1.2042834758758545,-14.34326171875,8.85009765625,1.6937255859375
18.6299999,-9.873687744140625,0.7613561153411865,0.9672574996948242,-3.6773681640625,3.4332275390625,4.7607421875
18.6499999,-9.995792388916016,0.6536170840263367,0.5913678407669067,10.19287109375,-7.3394775390625,5.3863525390625
18.6699999,-10.129867553710938,0.5171475410461426,0.26336219906806946,18.402099609375,-17.059326171875,-3.0364990234375
18.6899999,-10.153809547424316,0.6440402865409851,0.23942017555236816,24.383544921875,-16.3726806640625,-4.730224609375
18.7099999,-10.072406768798828,0.828393816947937,0.5985504388809204,19.9737548828125,-5.3253173828125,-2.105712890625
18.7299999,-9.945513725280762,1.0606313943862915,1.1276689767837524,-2.0904541015625,4.913330078125,2.9144287109375
18.749999900000002,-9.739612579345703,1.2018892765045166,1.6687586307525635,-18.3258056640625,4.608154296875,2.86865234375
18.769999900000002,-9.696516990661621,1.259350061416626,1.9249382019042969,-12.6800537109375,6.9732666015625,-2.288818359375
18.7899999,-9.730035781860352,1.161187767982483,1.7812861204147339,-4.913330078125,8.453369140625,-3.570556640625
18.8099999,-9.72285270690918,1.070208191871643,1.7549498081207275,-8.60595703125,11.7950439453125,-1.28173828125
18.8299999,-9.730035781860352,1.0342950820922852,1.5921441316604614,-23.162841796875,26.519775390625,-2.0294189453125
18.8499999,-9.77791976928711,0.950498104095459,1.3239935636520386,-31.3720703125,27.34375,2.9144287109375
18.8699999,-9.758766174316406,0.8092401623725891,0.9983820915222168,-21.7437744140625,14.6942138671875,3.570556640625
18.8899999,-9.964667320251465,0.8547300100326538,0.3902548849582672,-4.7149658203125,2.777099609375,-0.79345703125
18.909999900000003,-10.06043529510498,0.7182605266571045,-0.0933738648891449,5.55419921875,-4.364013671875,-3.3416748046875
18.929999900000002,-10.139444351196289,0.8571242094039917,-0.2585737705230713,11.5966796875,-3.4027099609375,-9.7808837890625
18.9499999,-10.120290756225586,0.8475474119186401,-0.2513911724090576,14.312744140625,-0.2899169921875,-12.451171875
18.9699999,-10.065223693847656,0.811634361743927,-0.12928688526153564,16.4031982421875,-7.1563720703125,-4.1046142578125
18.9899999,-10.072406768798828,0.5913678407669067,0.033518824726343155,22.3388671875,-18.951416015625,-0.732421875
19.0099999,-10.101137161254883,0.47165772318840027,0.19871874153614044,27.7099609375,-24.0020751953125,-2.899169921875
19.0299999,-9.986215591430664,0.40701428055763245,0.6631938815116882,18.4783935546875,-18.1884765625,1.007080078125
19.0499999,-9.792284965515137,0.6440402865409851,1.3910311460494995,-8.30078125,-1.373291015625,0.6866455078125
19.0699999,-9.607931137084961,0.8379706144332886,2.097320795059204,-39.276123046875,25.3448486328125,0.579833984375
19.089999900000002,-9.552865028381348,0.9983820915222168,2.3319525718688965,-46.4935302734375,33.843994140625,6.622314453125
19.109999900000002,-9.696516990661621,0.8355764150619507,2.027888774871826,-24.47509765625,15.13671875,10.4827880859375
19.1299999,-9.919178009033203,0.7374141216278076,1.091755986213684,6.134033203125,-3.11279296875,4.791259765625
19.1499999,-10.005369186401367,0.7326257228851318,0.3734954595565796,20.8587646484375,-10.25390625,1.617431640625
19.1699999,-9.99100399017334,0.871489405632019,0.0071826050989329815,11.383056640625,-7.4920654296875,-6.34765625
19.1899999,-9.883264541625977,1.0893617868423462,0.14844051003456116,-2.471923828125,6.2255859375,-8.97216796875
19.2099999,-9.919178009033203,1.0199298858642578,0.33279404044151306,-5.67626953125,12.1307373046875,-3.23486328125
19.2299999,-9.964667320251465,0.7852981686592102,0.5506663918495178,9.246826171875,-2.3956298828125,7.568359375
19.249999900000002,-10.168174743652344,0.42856210470199585,0.31124621629714966,27.740478515625,-18.0816650390625,5.0201416015625
19.269999900000002,-10.14902114868164,0.4213795065879822,0.33279404044151306,34.759521484375,-20.4925537109375,3.387451171875
19.2899999,-9.926360130310059,0.5817909836769104,0.7110779285430908,16.021728515625,-10.8642578125,0.579833984375
19.3099999,-9.734824180603027,0.9888052940368652,1.2713210582733154,-17.974853515625,12.054443359375,-1.220703125
19.3299999,-9.526528358459473,1.280897855758667,1.8148049116134644,-40.9698486328125,31.0211181640625,2.1209716796875
19.3499999,-9.586383819580078,1.3048399686813354,1.7381904125213623,-31.1737060546875,20.7061767578125,8.3160400390625
19.3699999,-9.737217903137207,1.1755530834197998,1.137245774269104,-0.640869140625,-1.3580322265625,4.638671875
19.3899999,-10.108319282531738,0.9433154463768005,0.2106897532939911,23.74267578125,-14.0380859375,0.4425048828125
19.409999900000003,-10.18493366241455,0.7972691655158997,-0.37828385829925537,29.4647216796875,-20.7977294921875,-3.1280517578125
19.429999900000002,-10.237606048583984,0.7493851184844971,-0.4405331015586853,25.1617431640625,-18.7225341796875,-8.575439453125
19.4499999,-10.120290756225586,0.6584054827690125,0.12689268589019775,13.8092041015625,-8.2244873046875,-5.279541015625
19.4699999,-10.02452278137207,0.6440402865409851,0.608127236366272,-1.8310546875,5.9661865234375,6.3629150390625
19.4899999,-9.890447616577148,0.5506663918495178,1.0534487962722778,1.8463134765625,-5.462646484375,14.2669677734375
19.5099999,-9.93593692779541,0.6224924325942993,1.0678139925003052,19.439697265625,-19.6685791015625,5.401611328125
19.5299999,-9.9000244140625,0.9074024558067322,1.0127472877502441,25.7415771484375,-15.533447265625,-2.3193359375
19.5499999,-9.75397777557373,1.3407529592514038,1.335964560508728,13.824462890625,-7.232666015625,-5.584716796875
19.5699999,-9.569623947143555,1.7190368175506592,1.9321208000183105,-20.7977294921875,14.1448974609375,-9.5367431640625
19.589999900000002,-9.519346237182617,1.766920804977417,2.1308395862579346,-49.62158203125,41.717529296875,-5.279541015625
19.609999900000002,-9.526528358459473,1.5275006294250488,2.0661959648132324,-33.416748046875,24.0020751953125,6.8817138671875
19.6299999,-9.742006301879883,0.9911994934082031,1.1085153818130493,-4.791259765625,-0.5035400390625,3.3416748046875
19.6499999,-10.005369186401367,0.6344634294509888,0.10055647045373917,18.9056396484375,-14.9383544921875,-3.9520263671875
19.6699999,-10.062829971313477,0.4644751250743866,-0.4429273009300232,32.5927734375,-20.721435546875,-7.232666015625
19.6899999,-10.120290756225586,0.4884171485900879,-0.3734954595565796,21.4996337890625,-10.25390625,-10.528564453125
19.7099999,-9.947908401489258,0.5817909836769104,0.22744916379451752,2.685546875,-2.74658203125,-4.7607421875
19.7299999,-10.0580415725708,0.5985504388809204,0.768538773059845,-3.5400390625,6.3934326171875,10.5133056640625
19.749999900000002,-9.880870819091797,0.6536170840263367,1.235408067703247,13.2293701171875,-9.9945068359375,8.9111328125
19.769999900000002,-9.885659217834473,0.8643068075180054,1.436521053314209,15.594482421875,-8.9263916015625,-0.2899169921875
19.7899999,-9.787496566772461,1.170764684677124,1.5179238319396973,-0.8697509765625,6.195068359375,-5.7525634765625
19.8099999,-9.521739959716797,1.601720929145813,2.0590133666992188,-14.8162841796875,11.932373046875,-6.9427490234375
19.8299999,-9.524134635925293,1.821987509727478,2.2697031497955322,-46.1578369140625,36.5753173828125,-10.68115234375
19.8499999,-9.512163162231445,1.625662922859192,2.142810583114624,-64.2852783203125,44.7235107421875,-1.373291015625
19.8699999,-9.660603523254395,1.1827356815338135,1.5203180313110352,-40.8935546875,24.3988037109375,7.4005126953125
19.8899999,-9.761159896850586,0.6943184733390808,0.4165911078453064,-9.918212890625,1.9378662109375,1.6021728515625
19.909999900000003,-9.17697525024414,0.05985504388809204,-0.5530605912208557,2.4261474609375,-4.8675537109375,4.6539306640625
19.929999900000002,-8.176198959350586,-0.2585737705230713,-0.8882488012313843,13.24462890625,-4.7607421875,6.6375732421875
19.9499999,-7.189787864685059,-0.6775590777397156,-0.8858546018600464,25.787353515625,-3.5247802734375,7.1563720703125
19.9699999,-7.137115478515625,-0.545877993106842,-0.5363011956214905,39.093017578125,-9.246826171875,17.1966552734375
19.9899999,-8.317456245422363,0.13168109953403473,0.06224924325942993,34.24072265625,-20.2178955078125,17.3187255859375
20.0099999,-9.890447616577148,0.9864110946655273,0.9313444495201111,-0.1373291015625,-10.6048583984375,9.4757080078125
20.0299999,-11.748347282409668,2.145204782485962,1.7860745191574097,-34.66796875,22.2930908203125,1.03759765625
20.0499999,-12.435483932495117,2.4851813316345215,2.367865562438965,-41.5496826171875,48.095703125,-10.0860595703125
20.0699999,-12.737153053283691,2.3127987384796143,1.9823989868164062,-21.7437744140625,35.6292724609375,-0.42724609375
20.089999900000002,-12.641385078430176,1.5705963373184204,0.9409212470054626,13.671875,-4.180908203125,15.80810546875
20.109999900000002,-12.05959415435791,0.8259995579719543,-0.05746084079146385,43.6553955078125,-35.4461669921875,18.73779296875
