# Time (seconds),Accel_X,Accel_Y,Accel_Z,Gyro_X,Gyro_Y,Gyro_Z
0.0099999,1.6065093278884888,-9.516951560974121,-1.1516109704971313,3.814697265625,-5.3558349609375,-7.99560546875
0.029999900000000003,1.6304513216018677,-9.569623947143555,-1.1180921792984009,1.8463134765625,-5.2947998046875,-10.223388671875
0.0499999,1.6615760326385498,-9.607931137084961,-1.0678139925003052,-1.0528564453125,-3.5247802734375,-11.2152099609375
0.0699999,1.6927006244659424,-9.62947940826416,-1.0055646896362305,-5.18798828125,-1.678466796875,-12.0849609375
0.08999990000000001,1.7166426181793213,-9.62947940826416,-0.950498104095459,-9.307861328125,1.953125,-14.95361328125
0.10999990000000001,1.7764976024627686,-9.557653427124023,-0.9385270476341248,-12.0697021484375,10.5133056640625,-25.5279541015625
0.1299999,1.8315643072128296,-9.516951560974121,-0.9840168952941895,-11.6424560546875,9.3994140625,-29.23583984375
0.14999990000000002,1.9057846069335938,-9.488221168518066,-1.0462661981582642,-11.474609375,6.4697265625,-30.7464599609375
0.1699999,1.9847931861877441,-9.461885452270508,-1.0989385843276978,-11.7340087890625,4.0435791015625,-30.1055908203125
0.1899999,2.078166961669922,-9.418789863586426,-1.1300631761550903,-12.6800537109375,4.7149658203125,-28.7933349609375
0.20999990000000002,2.161964178085327,-9.346963882446289,-1.1348515748977661,-14.5111083984375,6.8359375,-28.4881591796875
0.2299999,2.2385785579681396,-9.263166427612305,-1.1276689767837524,-16.1590576171875,8.9111328125,-28.5491943359375
0.2499999,2.296039342880249,-9.186552047729492,-1.137245774269104,-16.5863037109375,13.3819580078125,-28.1829833984375
0.2699999,2.3247697353363037,-9.14585018157959,-1.194706678390503,-15.0299072265625,15.472412109375,-26.67236328125
0.28999990000000003,2.3343467712402344,-9.124302864074707,-1.3048399686813354,-12.1002197265625,11.3372802734375,-24.932861328125
0.3099999,2.343923568725586,-9.102754592895508,-1.4484920501708984,-8.30078125,2.99072265625,-24.322509765625
0.3299999,2.367865562438965,-9.071630477905273,-1.577778935432434,-3.96728515625,-7.0648193359375,-23.0712890625
0.34999990000000003,2.403778553009033,-9.040505409240723,-1.6663644313812256,0.1983642578125,-17.5933837890625,-18.3563232421875
0.3699999,2.4396915435791016,-9.035717010498047,-1.678335428237915,3.6468505859375,-29.327392578125,-10.711669921875
0.3899999,2.456450939178467,-9.05247688293457,-1.6160861253738403,5.5389404296875,-39.1998291015625,-2.227783203125
0.40999990000000003,2.454056739807129,-9.078812599182129,-1.534683346748352,4.608154296875,-47.66845703125,7.843017578125
0.4299999,2.4205379486083984,-9.07641887664795,-1.4652514457702637,-0.48828125,-61.5081787109375,22.2015380859375
0.4499999,2.3989901542663574,-9.02135181427002,-1.400607943534851,-6.9580078125,-78.582763671875,36.9873046875
0.4699999,2.3726539611816406,-8.89685344696045,-1.3623007535934448,-11.53564453125,-81.9091796875,45.7305908203125
0.4899999,2.3032219409942627,-8.75080680847168,-1.3287819623947144,-13.3209228515625,-68.84765625,47.3175048828125
0.5099999,2.164358377456665,-8.678980827331543,-1.4053963422775269,-11.6424560546875,-49.224853515625,45.166015625
0.5299999,1.98958158493042,-8.607154846191406,-1.4077905416488647,-6.622314453125,-25.5584716796875,42.5262451171875
0.5499999,1.7597382068634033,-8.676587104797363,-1.5658079385757446,-1.64794921875,-5.18798828125,39.6881103515625
0.5699999,1.50355863571167,-8.801085472106934,-1.7597382068634033,3.9825439453125,-3.7689208984375,39.1693115234375
0.5899998999999999,1.3718775510787964,-8.992621421813965,-1.9488801956176758,11.5203857421875,-19.5159912109375,46.2493896484375
0.6099998999999999,1.3072341680526733,-9.244012832641602,-2.1763293743133545,17.7459716796875,-25.6195068359375,58.0596923828125
0.6299999,1.3742717504501343,-9.509769439697266,-2.315192937850952,20.538330078125,-23.2391357421875,73.638916015625
0.6499999,1.4748282432556152,-9.751583099365234,-2.3367409706115723,20.6756591796875,-15.07568359375,94.0093994140625
0.6699999,1.4413094520568848,-9.940725326538086,-2.3295583724975586,22.003173828125,2.5177001953125,114.2730712890625
0.6899999,1.1994950771331787,-10.014945983886719,-2.31758713722229,28.99169921875,12.87841796875,128.5247802734375
0.7099999,0.6967126727104187,-9.974244117736816,-2.363077163696289,37.7349853515625,4.058837890625,138.702392578125
0.7299998999999999,0.038307227194309235,-9.780313491821289,-2.389413356781006,43.2891845703125,-12.6800537109375,148.956298828125
0.7499998999999999,-0.6512228846549988,-9.469067573547363,-2.360682964324951,46.295166015625,-13.7786865234375,157.6385498046875
0.7699999,-1.314416766166687,-9.119514465332031,-2.2170307636260986,48.3245849609375,-3.4027099609375,164.337158203125
0.7899999,-1.9584569931030273,-8.765172004699707,-2.0207061767578125,49.896240234375,4.302978515625,170.5169677734375
0.8099999,-2.5522189140319824,-8.449137687683105,-1.7884687185287476,53.009033203125,1.1138916015625,174.9420166015625
0.8299999,-3.1531636714935303,-8.226476669311523,-1.5418659448623657,58.746337890625,-7.14111328125,177.9327392578125
0.8499998999999999,-3.7684733867645264,-8.08282470703125,-1.237802267074585,63.720703125,-13.7481689453125,183.013916015625
0.8699998999999999,-4.405331134796143,-8.006210327148438,-0.9169792532920837,64.1021728515625,-21.3165283203125,190.032958984375
0.8899999,-5.027823448181152,-7.898471355438232,-0.507570743560791,64.3157958984375,-32.7911376953125,193.0389404296875
0.9099999,-5.643133640289307,-7.692570209503174,-0.009576806798577309,69.366455078125,-29.4342041015625,185.9283447265625
0.9299999,-6.210559368133545,-7.445967197418213,0.5961562395095825,71.4263916015625,-5.157470703125,176.6815185546875
0.9499999,-6.847416877746582,-7.134721279144287,1.2258312702178955,61.5386962890625,17.730712890625,175.4302978515625
0.9699998999999999,-7.508216381072998,-6.801927089691162,1.7860745191574097,46.0205078125,24.7650146484375,171.69189453125
0.9899998999999999,-8.219294548034668,-6.464344501495361,2.1308395862579346,36.5142822265625,26.91650390625,153.1829833984375
1.0099999,-8.820239067077637,-6.186617374420166,2.2577321529388428,31.6009521484375,36.285400390625,132.080078125
1.0299999,-9.306262016296387,-5.906495571136475,2.207453966140747,25.69580078125,46.6461181640625,119.384765625
1.0499999,-9.581595420837402,-5.717353820800781,2.0925323963165283,20.20263671875,49.1485595703125,105.8502197265625
1.0699999,-9.672574996948242,-5.585672378540039,1.9488801956176758,15.838623046875,51.1322021484375,93.1243896484375
1.0899999,-9.66539192199707,-5.504269599914551,1.7405846118927002,9.307861328125,51.605224609375,91.4764404296875
1.1099999,-9.57441234588623,-5.360617637634277,1.5203180313110352,2.6397705078125,40.7257080078125,92.34619140625
1.1299999,-9.50498104095459,-5.236119270324707,1.290474772453308,2.6092529296875,28.0609130859375,80.50537109375
1.1499999,-9.457097053527832,-5.056553840637207,1.0821791887283325,5.7220458984375,25.726318359375,65.643310546875
1.1699998999999999,-9.44752025604248,-4.879383087158203,0.9074024558067322,5.3558349609375,23.468017578125,60.60791015625
1.1899998999999999,-9.387664794921875,-4.716577529907227,0.790086567401886,2.1820068359375,12.87841796875,61.21826171875
1.2099999,-9.255983352661133,-4.6040496826171875,0.6943184733390808,0.0152587890625,3.5400390625,59.6160888671875
1.2299999,-9.10993766784668,-4.477157115936279,0.6153098344802856,-2.1820068359375,2.9144287109375,60.0433349609375
1.2499999,-9.011775016784668,-4.3406877517700195,0.5171475410461426,-5.9967041015625,3.35693359375,65.2618408203125
1.2699999,-9.009381294250488,-4.151545524597168,0.4141969084739685,-7.7056884765625,-0.4119873046875,67.138671875
1.2899999,-9.148244857788086,-3.9169139862060547,0.2777273952960968,-3.9215087890625,1.5716552734375,59.5245361328125
1.3099999,-9.349357604980469,-3.643975019454956,0.12689268589019775,2.716064453125,10.162353515625,48.8128662109375
1.3299999,-9.59596061706543,-3.375824451446533,-0.035913024097681046,9.246826171875,11.2152099609375,42.6177978515625
1.3499999,-9.837775230407715,-3.1292216777801514,-0.181959331035614,14.8162841796875,-0.152587890625,39.5050048828125
1.3699999,-10.038887977600098,-2.942473888397217,-0.2777273952960968,19.6533203125,-9.8114013671875,33.4625244140625
1.3899999,-10.204087257385254,-2.75812029838562,-0.2968810200691223,23.3306884765625,-10.31494140625,25.3448486328125
1.4099999,-10.27591323852539,-2.5737667083740234,-0.2322375625371933,24.96337890625,-9.6893310546875,18.829345703125
1.4299998999999999,-10.230423927307129,-2.387019157409668,-0.07182604819536209,24.1241455078125,-12.4664306640625,15.19775390625
1.4499999,-10.077195167541504,-2.2242133617401123,0.11971008777618408,21.1334228515625,-10.772705078125,15.716552734375
1.4699999,-9.883264541625977,-2.075772762298584,0.3280056416988373,16.7694091796875,-4.791259765625,20.111083984375
1.4899999,-9.732429504394531,-1.9105730056762695,0.507570743560791,11.1236572265625,-2.655029296875,24.4140625
1.5099999,-9.651026725769043,-1.7381904125213623,0.6392518281936646,4.0740966796875,-5.950927734375,26.1688232421875
1.5299999,-9.646238327026367,-1.5514427423477173,0.7374141216278076,-3.84521484375,-8.453369140625,28.5186767578125
1.5499999,-9.66299819946289,-1.3838485479354858,0.7876923680305481,-11.749267578125,-4.6539306640625,32.89794921875
1.5699999,-9.658209800720215,-1.2617442607879639,0.8140285611152649,-18.4783935546875,0.1373291015625,35.797119140625
1.5899999,-9.619902610778809,-1.194706678390503,0.7948749661445618,-22.2320556640625,0.79345703125,34.6832275390625
1.6099999,-9.567230224609375,-1.1683704853057861,0.730231523513794,-22.7813720703125,-0.9613037109375,32.1807861328125
1.6299999,-9.536105155944824,-1.158793568611145,0.629675030708313,-21.728515625,-2.197265625,30.94482421875
1.6499999,-9.531316757202148,-1.1540051698684692,0.5410895943641663,-19.9127197265625,-3.0364990234375,31.1737060546875
1.6699999,-9.567230224609375,-1.1300631761550903,0.45010992884635925,-16.8914794921875,-2.13623046875,31.2347412109375
1.6899998999999999,-9.651026725769043,-1.0773907899856567,0.3687070608139038,-11.6424560546875,-3.7689208984375,30.3802490234375
1.7099999,-9.746794700622559,-0.9840168952941895,0.28969839215278625,-6.4697265625,-9.552001953125,29.052734375
1.7299999,-9.804255485534668,-0.8762778043746948,0.2322375625371933,-3.1280517578125,-16.4337158203125,28.2135009765625
1.7499999,-9.81143856048584,-0.7541735172271729,0.2106897532939911,0.0457763671875,-18.1427001953125,28.6865234375
1.7699999,-9.768342971801758,-0.629675030708313,0.2513911724090576,3.8299560546875,-15.5792236328125,29.510498046875
1.7899999,-9.730035781860352,-0.507570743560791,0.3447650372982025,6.4697265625,-13.946533203125,28.228759765625
1.8099999,-9.730035781860352,-0.38546648621559143,0.4668693244457245,6.8206787109375,-16.78466796875,24.23095703125
1.8299999,-9.77791976928711,-0.2777273952960968,0.6177040338516235,5.8441162109375,-20.1416015625,18.00537109375
1.8499999,-9.835380554199219,-0.21787235140800476,0.7781155705451965,4.4708251953125,-16.7999267578125,10.5438232421875
1.8699999,-9.8784761428833,-0.22744916379451752,0.950498104095459,2.4261474609375,-10.955810546875,4.9591064453125
1.8899999,-9.883264541625977,-0.2849099934101105,1.1085153818130493,-1.1444091796875,-7.537841796875,3.021240234375
1.9099999,-9.859322547912598,-0.3926490843296051,1.2401964664459229,-4.3487548828125,-4.5928955078125,3.4027099609375
1.9299998999999999,-9.849745750427246,-0.4884171485900879,1.292868971824646,-6.5155029296875,0.762939453125,5.279541015625
1.9499999,-9.849745750427246,-0.5506663918495178,1.2761094570159912,-7.6446533203125,2.593994140625,9.0179443359375
1.9699999,-9.871294021606445,-0.5554547905921936,1.173158884048462,-6.9732666015625,-1.739501953125,14.0838623046875
1.9899999,-9.885659217834473,-0.5099649429321289,1.01753568649292,-4.7149658203125,-7.26318359375,18.2342529296875
2.0099999,-9.895236015319824,-0.4189853072166443,0.8523358106613159,1.8463134765625,-9.490966796875,20.8740234375
2.0299999,-9.923966407775879,-0.3016694188117981,0.7134721279144287,9.1094970703125,-9.1094970703125,22.6898193359375
2.0499999,-10.022128105163574,-0.11971008777618408,0.6200982332229614,14.2822265625,-9.8724365234375,20.5841064453125
2.0699999,-10.1753568649292,0.08379705995321274,0.586579442024231,19.53125,-11.53564453125,11.932373046875
2.0899999,-10.342951774597168,0.2992752194404602,0.6033388376235962,24.6124267578125,-12.481689453125,4.45556640625
2.1099999,-10.450690269470215,0.4884171485900879,0.6823474764823914,26.7486572265625,-13.336181640625,3.1585693359375
2.1299999,-10.431536674499512,0.6105214357376099,0.8140285611152649,26.519775390625,-13.6566162109375,4.5166015625
2.1499999,-10.292673110961914,0.6799532771110535,1.0079588890075684,25.054931640625,-13.36669921875,6.3323974609375
2.1699999,-10.113107681274414,0.7182605266571045,1.2282254695892334,22.52197265625,-8.880615234375,8.636474609375
2.1899999,-9.955090522766113,0.7445967197418213,1.45806884765625,18.3563232421875,-4.1351318359375,8.880615234375
2.2099999,-9.864110946655273,0.7709329724311829,1.6663644313812256,12.2222900390625,-2.5177001953125,6.7138671875
2.2299999,-9.847352027893066,0.7948749661445618,1.8363527059555054,4.8370361328125,-0.8087158203125,5.615234375
2.2499999,-9.90241813659668,0.8259995579719543,1.944091796875,-1.922607421875,4.8980712890625,6.65283203125
2.2699999,-10.010157585144043,0.8595184087753296,1.9800047874450684,-6.561279296875,12.0849609375,6.072998046875
2.2899999,-10.132261276245117,0.8834604024887085,1.944091796875,-9.1705322265625,13.7786865234375,3.4942626953125
2.3099999,-10.268731117248535,0.9002198576927185,1.8387469053268433,-10.9100341796875,10.3607177734375,3.41796875
2.3299999,-10.369287490844727,0.8930372595787048,1.6974890232086182,-11.4593505859375,7.0037841796875,5.0811767578125
2.3499999,-10.414777755737305,0.8667010068893433,1.5442601442337036,-9.307861328125,6.16455078125,3.4332275390625
2.3699999,-10.38604736328125,0.8307880163192749,1.4077905416488647,-5.7373046875,4.8980712890625,-0.091552734375
2.3899999,-10.299856185913086,0.8020575642585754,1.2976573705673218,-3.265380859375,2.1209716796875,0.54931640625
2.4099999,-10.158597946166992,0.7852981686592102,1.2210428714752197,-1.5411376953125,-2.1209716796875,4.364013671875
2.4299999,-9.981427192687988,0.7781155705451965,1.1875240802764893,-0.0152587890625,-8.1024169921875,8.0413818359375
2.4499999,-9.828198432922363,0.7996633648872375,1.1994950771331787,0.396728515625,-11.810302734375,11.4898681640625
2.4699999,-9.725247383117676,0.8619126081466675,1.259350061416626,0.3509521484375,-10.498046875,12.6190185546875
2.4899999,-9.674968719482422,0.9313444495201111,1.3527239561080933,0.8392333984375,-5.401611328125,8.4381103515625
2.5099999,-9.701305389404297,1.0103530883789062,1.4413094520568848,0.79345703125,-1.5106201171875,3.204345703125
2.5299999,-9.758766174316406,1.0749965906143188,1.5059528350830078,0.1983642578125,-1.7242431640625,0.030517578125
2.5499999,-9.818621635437012,1.094150185585022,1.5322890281677246,-0.2593994140625,-1.251220703125,-1.0528564453125
2.5699999,-9.888052940368652,1.0797849893569946,1.5179238319396973,-2.0599365234375,1.4801025390625,0.91552734375
2.5899999,-9.931148529052734,1.0342950820922852,1.4772224426269531,-3.23486328125,-0.54931640625,3.8299560546875
2.6099999,-9.974244117736816,0.9744400978088379,1.4173674583435059,-5.2490234375,-4.486083984375,6.2408447265625
2.6299999,-10.022128105163574,0.9289502501487732,1.3503297567367554,-6.439208984375,-4.425048828125,6.8817138671875
2.6499999,-10.067618370056152,0.9050082564353943,1.2952631711959839,-6.561279296875,-1.6021728515625,5.4168701171875
2.6699999,-10.105925559997559,0.9097966551780701,1.2617442607879639,-6.3323974609375,-1.0223388671875,3.509521484375
2.6899999,-10.141838073730469,0.9457096457481384,1.2473790645599365,-6.1492919921875,-1.52587890625,2.2430419921875
2.7099999,-10.165780067443848,0.9816226959228516,1.2425906658172607,-6.1798095703125,-1.1749267578125,1.678466796875
2.7299999,-10.160991668701172,1.015141487121582,1.2473790645599365,-6.500244140625,-1.5869140625,2.655029296875
2.7499999,-10.125079154968262,1.0342950820922852,1.2521674633026123,-6.77490234375,-1.251220703125,4.2572021484375
2.7699999,-10.06043529510498,1.0438719987869263,1.2521674633026123,-6.6375732421875,0.5035400390625,4.1351318359375
2.7899999,-9.96945571899414,1.0462661981582642,1.237802267074585,-6.195068359375,2.7313232421875,2.01416015625
2.8099999,-9.880870819091797,1.039083480834961,1.2234370708465576,-6.2103271484375,5.0811767578125,0.640869140625
2.8299999,-9.821015357971191,1.039083480834961,1.194706678390503,-6.3629150390625,8.3160400390625,0.732421875
2.8499999,-9.797073364257812,1.036689281463623,1.161187767982483,-5.9814453125,9.7808837890625,-0.42724609375
2.8699999,-9.801861763000488,1.0342950820922852,1.1252747774124146,-5.2032470703125,7.9193115234375,-1.9073486328125
2.8899999,-9.828198432922363,1.036689281463623,1.0845733880996704,-3.84521484375,5.55419921875,-1.220703125
2.9099999,-9.84495735168457,1.0342950820922852,1.05105459690094,-2.044677734375,4.486083984375,0
2.9299999,-9.832986831665039,1.0271124839782715,1.0438719987869263,-0.67138671875,1.9989013671875,0.3204345703125
2.9499999,-9.794678688049316,1.01753568649292,1.0654197931289673,-0.091552734375,1.0986328125,0.6561279296875
2.9699999,-9.734824180603027,1.0199298858642578,1.1013327836990356,-0.396728515625,1.77001953125,2.01416015625
2.9899999,-9.75397777557373,1.0342950820922852,1.1563993692398071,-1.3427734375,1.678466796875,3.6163330078125
3.0099999,-9.758766174316406,1.0199298858642578,1.2258312702178955,-2.5482177734375,1.739501953125,1.1444091796875
3.0299999,-9.785101890563965,1.0247182846069336,1.2832920551300049,-3.7841796875,4.364013671875,-3.7078857421875
3.0499999,-9.782708168029785,0.9959878921508789,1.3287819623947144,-4.2724609375,6.9427490234375,-2.1209716796875
3.0699999,-9.727641105651855,0.9816226959228516,1.335964560508728,-4.5166015625,5.92041015625,1.007080078125
3.0899999,-9.68694019317627,0.9768342971801758,1.3072341680526733,-4.547119140625,4.9896240234375,2.9449462890625
3.1099999,-9.694122314453125,0.9864110946655273,1.2521674633026123,-3.47900390625,6.8511962890625,3.6163330078125
3.1299999,-9.734824180603027,1.0103530883789062,1.192312479019165,-2.0599365234375,6.6986083984375,3.7689208984375
3.1499999,-9.794678688049316,1.039083480834961,1.1420341730117798,-1.190185546875,4.33349609375,3.936767578125
3.1699999,-9.852140426635742,1.0654197931289673,1.1037269830703735,-0.3204345703125,2.13623046875,3.753662109375
3.1899999,-9.883264541625977,1.0821791887283325,1.094150185585022,0.91552734375,-0.18310546875,3.35693359375
3.2099999,-9.895236015319824,1.094150185585022,1.0965443849563599,1.6937255859375,-1.4495849609375,3.84521484375
3.2299999,-9.892841339111328,1.0989385843276978,1.1252747774124146,1.678466796875,-1.0223388671875,4.69970703125
3.2499999,-9.8784761428833,1.1085153818130493,1.1563993692398071,1.1444091796875,0.0152587890625,3.387451171875
3.2699999,-9.84495735168457,1.1204863786697388,1.192312479019165,0.6561279296875,1.678466796875,0.762939453125
3.2899999,-9.823410034179688,1.1276689767837524,1.2234370708465576,-0.2593994140625,4.180908203125,1.1749267578125
3.3099999,-9.801861763000488,1.1348515748977661,1.237802267074585,-1.9073486328125,4.2266845703125,2.105712890625
3.3299999000000002,-9.773131370544434,1.1300631761550903,1.2425906658172607,-3.265380859375,1.068115234375,1.8463134765625
3.3499999,-9.758766174316406,1.1276689767837524,1.2282254695892334,-4.0130615234375,0.396728515625,1.4801025390625
3.3699999,-9.758766174316406,1.1252747774124146,1.1994950771331787,-4.058837890625,3.41796875,1.8768310546875
3.3899999,-9.770736694335938,1.1252747774124146,1.1683704853057861,-4.0435791015625,4.9591064453125,2.13623046875
3.4099999,-9.801861763000488,1.1252747774124146,1.1300631761550903,-3.8909912109375,4.302978515625,2.0294189453125
3.4299999,-9.84495735168457,1.1324573755264282,1.094150185585022,-3.47900390625,3.143310546875,1.77001953125
3.4499999,-9.8784761428833,1.1348515748977661,1.0582371950149536,-3.021240234375,1.6326904296875,1.7242431640625
3.4699999,-9.897629737854004,1.139639973640442,1.0271124839782715,-2.5634765625,-0.1678466796875,2.349853515625
3.4899999,-9.859322547912598,1.1420341730117798,1.015141487121582,-1.861572265625,-1.4495849609375,2.410888671875
3.5099999,-9.837775230407715,1.137245774269104,0.9840168952941895,-1.0528564453125,2.6397705078125,2.6702880859375
3.5299999,-9.785101890563965,1.1516109704971313,0.9744400978088379,-0.7171630859375,5.0048828125,2.9754638671875
3.5499999,-9.768342971801758,1.158793568611145,0.9433154463768005,-0.8697509765625,3.631591796875,2.166748046875
3.5699999,-9.768342971801758,1.1851298809051514,0.9289502501487732,-0.79345703125,3.7078857421875,1.5869140625
3.5899999,-9.797073364257812,1.2210428714752197,0.9241618514060974,-1.1444091796875,3.4027099609375,2.655029296875
3.6099999,-9.871294021606445,1.2689268589019775,0.9385270476341248,-1.6937255859375,1.15966796875,3.84521484375
3.6299999,-9.981427192687988,1.316810965538025,0.9624691009521484,-1.6937255859375,0.42724609375,2.471923828125
3.6499999,-10.103530883789062,1.3670891523361206,0.9840168952941895,-1.15966796875,2.0751953125,0.2899169921875
3.6699999,-10.196905136108398,1.4197616577148438,0.9911994934082031,-1.739501953125,0.1678466796875,0.2593994140625
3.6899999,-10.108319282531738,1.4173674583435059,0.9744400978088379,-1.3885498046875,-0.244140625,-0.5035400390625
3.7099999,-9.926360130310059,1.3934253454208374,0.9576807022094727,-1.0528564453125,0.5035400390625,-1.15966796875
3.7299999,-9.674968719482422,1.3527239561080933,0.933738648891449,-0.732421875,6.65283203125,-0.4730224609375
3.7499999,-9.469067573547363,1.3120225667953491,0.9145850539207458,-0.30517578125,12.5579833984375,1.7852783203125
3.7699999,-9.497797966003418,1.2641384601593018,0.9241618514060974,-1.129150390625,5.5084228515625,1.2969970703125
3.7899999,-9.557653427124023,1.256955862045288,0.9552865028381348,-2.5787353515625,-3.5858154296875,-7.1563720703125
3.8099999,-9.849745750427246,1.235408067703247,1.0319008827209473,-1.617431640625,-0.091552734375,-2.0599365234375
3.8299999000000002,-10.041281700134277,1.256955862045288,1.115697979927063,-1.251220703125,1.708984375,-0.946044921875
3.8499999,-10.122684478759766,1.2689268589019775,1.1563993692398071,-1.28173828125,2.44140625,-2.044677734375
3.8699999,-10.125079154968262,1.292868971824646,1.1468225717544556,-1.1444091796875,2.5482177734375,-2.4261474609375
3.8899999,-10.055646896362305,1.3000515699386597,1.0845733880996704,-1.0833740234375,1.8463134765625,-3.204345703125
3.9099999,-9.962273597717285,1.2880805730819702,1.0055646896362305,-1.3427734375,1.678466796875,-3.143310546875
3.9299999,-9.888052940368652,1.2617442607879639,0.9433154463768005,-1.739501953125,1.6937255859375,-2.9449462890625
3.9499999,-9.840168952941895,1.2282254695892334,0.9169792532920837,-1.495361328125,1.4801025390625,-3.143310546875
3.9699999,-9.816226959228516,1.1899182796478271,0.9241618514060974,-1.28173828125,1.800537109375,-3.326416015625
3.9899999,-9.816226959228516,1.1563993692398071,0.9409212470054626,-1.2054443359375,2.44140625,-2.7923583984375
4.0099999,-9.835380554199219,1.1204863786697388,0.9648633003234863,-0.91552734375,2.5482177734375,-2.01416015625
4.029999900000001,-9.864110946655273,1.0630255937576294,0.9792284965515137,-0.8392333984375,2.5482177734375,-1.2054443359375
4.0499999,-9.921571731567383,1.0127472877502441,0.9840168952941895,-0.9307861328125,3.0517578125,0.6866455078125
4.069999900000001,-10.005369186401367,0.9888052940368652,0.9864110946655273,-0.9307861328125,3.6163330078125,2.5634765625
4.0899999000000005,-10.08198356628418,0.9911994934082031,0.9792284965515137,-1.3427734375,4.39453125,3.8604736328125
4.1099999,-10.189722061157227,1.0462661981582642,0.9576807022094727,-1.3885498046875,4.974365234375,5.767822265625
4.1299999000000005,-10.283096313476562,1.1348515748977661,0.9169792532920837,0.9307861328125,3.387451171875,5.2642822265625
4.1499999,-10.38604736328125,1.237802267074585,0.871489405632019,4.2877197265625,0.0152587890625,2.044677734375
4.1699999000000005,-10.460267066955566,1.3263877630233765,0.828393816947937,5.7220458984375,-2.0751953125,-2.7008056640625
4.1899999,-10.47702693939209,1.400607943534851,0.811634361743927,4.8675537109375,-2.960205078125,-6.3323974609375
4.209999900000001,-10.390835762023926,1.4389152526855469,0.828393816947937,2.7008056640625,-3.2196044921875,-7.6751708984375
4.2299999,-10.220847129821777,1.4389152526855469,0.871489405632019,-0.5035400390625,-0.946044921875,-6.500244140625
4.249999900000001,-10.005369186401367,1.4053963422775269,0.9145850539207458,-3.72314453125,3.60107421875,-3.5400390625
4.2699999,-9.823410034179688,1.3646949529647827,0.9361328482627869,-5.2490234375,6.6070556640625,-0.6866455078125
4.289999900000001,-9.72285270690918,1.3120225667953491,0.9193734526634216,-4.9896240234375,7.50732421875,0.7781982421875
4.3099999,-9.725247383117676,1.2761094570159912,0.8667010068893433,-3.9520263671875,7.0343017578125,0.54931640625
4.329999900000001,-9.792284965515137,1.2521674633026123,0.7996633648872375,-2.3651123046875,5.43212890625,-1.3275146484375
4.3499999,-9.876082420349121,1.2306196689605713,0.7374141216278076,-0.5340576171875,4.7149658203125,-3.0364990234375
4.369999900000001,-9.950302124023438,1.2066776752471924,0.6967126727104187,1.1444091796875,5.0048828125,-2.3345947265625
4.3899999,-9.995792388916016,1.1779472827911377,0.6751648783683777,2.3345947265625,3.875732421875,-0.6866455078125
4.409999900000001,-10.014945983886719,1.1468225717544556,0.6799532771110535,2.838134765625,1.15966796875,-0.396728515625
4.4299999,-10.02691650390625,1.1252747774124146,0.7015010714530945,2.5787353515625,-0.091552734375,-0.91552734375
4.449999900000001,-10.031704902648926,1.115697979927063,0.7374141216278076,1.983642578125,1.5106201171875,-1.983642578125
4.4699999,-10.041281700134277,1.1180921792984009,0.7781155705451965,1.373291015625,3.204345703125,-3.753662109375
4.489999900000001,-10.038887977600098,1.1180921792984009,0.8164227604866028,0.3509521484375,4.364013671875,-5.706787109375
4.5099999,-10.029311180114746,1.1204863786697388,0.8379706144332886,-0.885009765625,6.134033203125,-6.8359375
4.529999900000001,-10.014945983886719,1.115697979927063,0.8403648138046265,-1.8768310546875,8.23974609375,-6.65283203125
4.5499999,-9.995792388916016,1.113303780555725,0.8188169598579407,-2.227783203125,8.4381103515625,-5.9051513671875
4.569999900000001,-9.967061996459961,1.1037269830703735,0.7852981686592102,-2.288818359375,6.256103515625,-5.645751953125
4.5899999000000005,-9.952696800231934,1.0893617868423462,0.7374141216278076,-2.5177001953125,4.7607421875,-5.31005859375
4.609999900000001,-9.926360130310059,1.0749965906143188,0.6919242739677429,-2.166748046875,3.7841796875,-5.9356689453125
4.6299999000000005,-9.895236015319824,1.048660397529602,0.6607996821403503,-1.129150390625,3.0059814453125,-6.622314453125
4.6499999,-9.873687744140625,1.0199298858642578,0.6392518281936646,-0.4425048828125,3.5552978515625,-4.57763671875
4.6699999000000005,-9.859322547912598,1.0007762908935547,0.6272808313369751,-0.335693359375,3.4637451171875,-2.288818359375
4.6899999,-9.84256362915039,0.9911994934082031,0.6200982332229614,-0.0762939453125,1.861572265625,-2.5482177734375
4.709999900000001,-9.801861763000488,0.9911994934082031,0.6129156351089478,0.2593994140625,0.640869140625,-3.8604736328125
4.7299999,-9.742006301879883,1.0055646896362305,0.6033388376235962,0.6561279296875,1.77001953125,-3.814697265625
4.749999900000001,-9.66539192199707,1.015141487121582,0.5913678407669067,1.1444091796875,3.96728515625,-3.35693359375
4.7699999,-9.59596061706543,1.0223240852355957,0.5770025849342346,1.2969970703125,4.4708251953125,-2.86865234375
4.789999900000001,-9.5408935546875,1.0223240852355957,0.5578489899635315,1.4495849609375,3.3721923828125,-2.7008056640625
4.8099999,-9.485827445983887,1.0031704902648926,0.5386953949928284,1.556396484375,1.77001953125,-2.655029296875
4.829999900000001,-9.41639518737793,0.9744400978088379,0.5171475410461426,1.495361328125,1.2664794921875,-1.678466796875
4.8499999,-9.318233489990234,0.9265560507774353,0.5003881454467773,1.434326171875,1.3580322265625,0.18310546875
4.869999900000001,-9.229647636413574,0.8810662031173706,0.4836287498474121,1.312255859375,2.62451171875,1.8463134765625
4.8899999,-9.17697525024414,0.849941611289978,0.47165772318840027,1.1138916015625,3.8604736328125,1.953125
4.909999900000001,-9.160215377807617,0.8236053586006165,0.4620809257030487,1.3275146484375,5.0048828125,1.0833740234375
4.9299999,-9.184157371520996,0.8140285611152649,0.45489832758903503,1.6326904296875,5.4473876953125,1.0223388671875
4.949999900000001,-9.248801231384277,0.8331822156906128,0.4429273009300232,1.983642578125,4.57763671875,2.1820068359375
4.9699999,-9.30386734008789,0.8523358106613159,0.43095630407333374,2.532958984375,3.7384033203125,2.8228759765625
4.989999900000001,-9.370905876159668,0.8906430602073669,0.4141969084739685,3.2196044921875,4.1656494140625,4.852294921875
5.0099999,-9.44991397857666,0.9385270476341248,0.395043283700943,3.4332275390625,3.6773681640625,8.0108642578125
5.029999900000001,-9.531316757202148,0.9840168952941895,0.3734954595565796,3.0670166015625,0.701904296875,8.9569091796875
5.0499999,-9.612719535827637,1.0271124839782715,0.35434186458587646,2.685546875,-2.1209716796875,7.62939453125
5.069999900000001,-9.670180320739746,1.0606313943862915,0.3423708379268646,2.74658203125,-2.0904541015625,6.7596435546875
5.0899999000000005,-9.732429504394531,1.0893617868423462,0.3423708379268646,2.899169921875,0.2593994140625,6.7291259765625
5.109999900000001,-9.799467086791992,1.1037269830703735,0.33758243918418884,3.1890869140625,3.173828125,4.150390625
5.1299999000000005,-9.883264541625977,1.1013327836990356,0.35673606395721436,4.425048828125,3.875732421875,-0.06103515625
5.1499999,-9.981427192687988,1.0773907899856567,0.37828385829925537,5.615234375,4.547119140625,-0.18310546875
5.1699999000000005,-10.079588890075684,1.0342950820922852,0.42616790533065796,5.7220458984375,4.547119140625,3.4637451171875
5.1899999,-10.144232749938965,0.9888052940368652,0.4812345504760742,4.974365234375,2.685546875,6.4697265625
5.209999900000001,-10.177751541137695,0.9481038451194763,0.5506663918495178,4.241943359375,-0.6256103515625,7.8125
5.2299999,-10.194510459899902,0.9361328482627869,0.6105214357376099,3.23486328125,-2.1209716796875,9.307861328125
5.249999900000001,-10.192116737365723,0.9361328482627869,0.6631938815116882,1.8768310546875,-2.44140625,9.27734375
5.2699999,-10.189722061157227,0.9600749015808105,0.7015010714530945,0.4730224609375,-3.7078857421875,6.4239501953125
5.289999900000001,-10.165780067443848,0.9888052940368652,0.7230489253997803,-0.5645751953125,-6.256103515625,2.3193359375
5.3099999,-10.101137161254883,1.0127472877502441,0.7350199222564697,-1.129150390625,-6.5460205078125,1.15966796875
5.329999900000001,-9.998186111450195,1.0319008827209473,0.7326257228851318,-1.373291015625,-2.7923583984375,3.1890869140625
5.3499999,-9.876082420349121,1.0438719987869263,0.7206547260284424,-0.9765625,-1.0986328125,3.5858154296875
5.369999900000001,-9.773131370544434,1.0606313943862915,0.6919242739677429,-0.213623046875,-5.06591796875,1.2664794921875
5.3899999,-9.696516990661621,1.0749965906143188,0.646434485912323,0.274658203125,-9.674072265625,0.1220703125
5.409999900000001,-9.672574996948242,1.0965443849563599,0.608127236366272,0.6866455078125,-8.7432861328125,1.373291015625
5.4299999,-9.68933391571045,1.1085153818130493,0.5746083855628967,1.6021728515625,-3.8604736328125,1.9683837890625
5.449999900000001,-9.763554573059082,1.1204863786697388,0.5650315880775452,2.685546875,-1.190185546875,2.105712890625
5.4699999,-9.892841339111328,1.1444283723831177,0.5626373887062073,3.0975341796875,-1.6632080078125,2.3956298828125
5.489999900000001,-10.038887977600098,1.173158884048462,0.569819986820221,2.685546875,-4.39453125,1.3427734375
5.5099999,-10.137049674987793,1.1994950771331787,0.586579442024231,2.2125244140625,-7.26318359375,-0.1220703125
5.529999900000001,-10.1753568649292,1.2258312702178955,0.6153098344802856,1.8157958984375,-7.232666015625,0.4425048828125
5.5499999,-10.144232749938965,1.2545616626739502,0.646434485912323,0.79345703125,-5.3558349609375,2.288818359375
5.569999900000001,-10.067618370056152,1.278503656387329,0.6799532771110535,-0.823974609375,-4.33349609375,2.7618408203125
5.5899999000000005,-9.983820915222168,1.3096283674240112,0.7038952708244324,-1.953125,-3.5858154296875,1.4495849609375
5.609999900000001,-9.926360130310059,1.3287819623947144,0.7158663272857666,-2.288818359375,-1.739501953125,-0.244140625
5.6299999000000005,-9.904812812805176,1.3431471586227417,0.7182605266571045,-2.6397705078125,-0.518798828125,-0.0762939453125
5.6499999,-9.911994934082031,1.3527239561080933,0.7134721279144287,-2.9754638671875,-1.007080078125,1.1749267578125
5.6699999000000005,-9.945513725280762,1.3646949529647827,0.6991068720817566,-2.5634765625,-1.46484375,1.3885498046875
5.6899999,-9.967061996459961,1.3766659498214722,0.6799532771110535,-1.2969970703125,-1.0223388671875,0.0457763671875
5.709999900000001,-9.95748519897461,1.37906014919281,0.6512228846549988,0.091552734375,-0.7781982421875,-0.6103515625
5.7299999,-9.919178009033203,1.3670891523361206,0.6320692300796509,1.3275146484375,-1.922607421875,-0.0457763671875
5.749999900000001,-9.861717224121094,1.3407529592514038,0.6224924325942993,2.166748046875,-2.4261474609375,-0.213623046875
5.7699999,-9.80904483795166,1.3215993642807007,0.6320692300796509,2.5634765625,-2.2125244140625,-1.007080078125
5.789999900000001,-9.770736694335938,1.3192051649093628,0.6560112833976746,2.716064453125,-1.9378662109375,-0.457763671875
5.8099999,-9.742006301879883,1.3311761617660522,0.6967126727104187,2.8839111328125,-1.15966796875,1.4190673828125
5.829999900000001,-9.739612579345703,1.357512354850769,0.7374141216278076,2.838134765625,-0.1220703125,3.2806396484375
5.8499999,-9.758766174316406,1.3982137441635132,0.7757213711738586,2.3345947265625,-0.823974609375,2.99072265625
5.869999900000001,-9.794678688049316,1.4317326545715332,0.8164227604866028,1.3275146484375,-2.25830078125,1.8157958984375
5.8899999,-9.84256362915039,1.460463047027588,0.8523358106613159,0.1373291015625,-1.2054443359375,1.800537109375
5.909999900000001,-9.895236015319824,1.4844050407409668,0.8786720037460327,-1.129150390625,0.1678466796875,2.0904541015625
5.9299999,-9.93354320526123,1.4867992401123047,0.8954314589500427,-2.25830078125,-0.2593994140625,1.220703125
5.949999900000001,-9.950302124023438,1.4772224426269531,0.8930372595787048,-3.0517578125,-0.457763671875,0.06103515625
5.9699999,-9.947908401489258,1.4532804489135742,0.8738836050033569,-3.0364990234375,0.885009765625,0.2899169921875
5.989999900000001,-9.921571731567383,1.4245500564575195,0.8427590131759644,-2.227783203125,1.7852783203125,1.1138916015625
6.0099999,-9.885659217834473,1.3982137441635132,0.8092401623725891,-1.2359619140625,1.9989013671875,1.6021728515625
6.029999900000001,-9.852140426635742,1.3886369466781616,0.7733271718025208,-0.18310546875,0.7171630859375,1.434326171875
6.0499999,-9.821015357971191,1.3886369466781616,0.751779317855835,0.7171630859375,-2.0599365234375,1.15966796875
6.069999900000001,-9.801861763000488,1.3982137441635132,0.7469909191131592,1.4190673828125,-3.0517578125,1.8157958984375
6.0899999000000005,-9.797073364257812,1.4197616577148438,0.7637503147125244,1.7547607421875,-1.373291015625,2.38037109375
6.109999900000001,-9.801861763000488,1.4413094520568848,0.7972691655158997,1.739501953125,0.396728515625,2.0294189453125
6.1299999000000005,-9.832986831665039,1.4724340438842773,0.8307880163192749,1.2054443359375,0.885009765625,1.3427734375
6.149999900000001,-9.86650562286377,1.4987702369689941,0.8547300100326538,0.3509521484375,-1.190185546875,-0.396728515625
6.1699999000000005,-9.880870819091797,1.50355863571167,0.8643068075180054,-0.18310546875,-2.960205078125,-2.6092529296875
6.1899999,-9.86650562286377,1.4915876388549805,0.8690952062606812,-0.1983642578125,-1.0528564453125,-2.532958984375
6.209999900000001,-9.828198432922363,1.4676456451416016,0.8690952062606812,-0.3814697265625,1.8768310546875,0.0152587890625
6.2299999,-9.787496566772461,1.4460978507995605,0.8595184087753296,-0.8697509765625,2.25830078125,2.2430419921875
6.249999900000001,-9.765948295593262,1.4413094520568848,0.8379706144332886,-1.0986328125,0.091552734375,2.197265625
6.2699999,-9.782708168029785,1.45806884765625,0.8140285611152649,-0.762939453125,-1.46484375,0.885009765625
6.289999900000001,-9.825803756713867,1.4844050407409668,0.7924807667732239,-0.1373291015625,-0.6103515625,-0.946044921875
6.3099999,-9.861717224121094,1.4987702369689941,0.7852981686592102,0.3509521484375,1.068115234375,-2.6702880859375
6.329999900000001,-9.880870819091797,1.4891934394836426,0.7948749661445618,0.9002685546875,1.9073486328125,-2.8228759765625
6.3499999,-9.873687744140625,1.460463047027588,0.8044517636299133,1.28173828125,1.4495849609375,-0.91552734375
6.369999900000001,-9.84495735168457,1.4197616577148438,0.8188169598579407,1.312255859375,-0.06103515625,0.9307861328125
6.3899999,-9.816226959228516,1.3838485479354858,0.8355764150619507,1.2359619140625,-0.732421875,0.8544921875
6.409999900000001,-9.818621635437012,1.3646949529647827,0.8571242094039917,1.4190673828125,0.0457763671875,0.244140625
6.4299999,-9.852140426635742,1.37906014919281,0.8858546018600464,1.2054443359375,0.1373291015625,0.0457763671875
6.449999900000001,-9.923966407775879,1.4173674583435059,0.912190854549408,0.8087158203125,0.244140625,-0.42724609375
6.4699999,-10.017339706420898,1.4748282432556152,0.933738648891449,0.8392333984375,0.946044921875,-0.8544921875
6.489999900000001,-10.125079154968262,1.5442601442337036,0.9457096457481384,0.4730224609375,0.8697509765625,-0.1983642578125
6.5099999,-10.237606048583984,1.6089035272598267,0.950498104095459,-0.3662109375,-0.3662109375,0.8544921875
6.529999900000001,-10.3549222946167,1.6735470294952393,0.9433154463768005,-0.8544921875,-0.457763671875,0.579833984375
6.5499999,-10.453084945678711,1.723825216293335,0.9241618514060974,-0.3814697265625,0.213623046875,-1.373291015625
6.569999900000001,-10.522516250610352,1.7573440074920654,0.9002198576927185,0.79345703125,-0.2593994140625,-2.899169921875
6.5899999000000005,-10.529699325561523,1.7597382068634033,0.871489405632019,1.8768310546875,-0.6561279296875,-3.8909912109375
6.609999900000001,-10.47702693939209,1.7357962131500244,0.8547300100326538,2.5177001953125,0,-4.302978515625
6.6299999000000005,-10.366893768310547,1.6879122257232666,0.8571242094039917,2.6092529296875,1.28173828125,-3.7841796875
6.649999900000001,-10.24000072479248,1.6280571222305298,0.8690952062606812,1.9378662109375,2.01416015625,-2.99072265625
6.6699999000000005,-10.120290756225586,1.5610195398330688,0.8834604024887085,1.5869140625,0.7781982421875,-2.86865234375
6.6899999,-10.034099578857422,1.4963760375976562,0.8978256583213806,2.105712890625,-0.1983642578125,-2.7008056640625
6.709999900000001,-9.99100399017334,1.4484920501708984,0.9050082564353943,2.655029296875,1.64794921875,-2.3956298828125
6.7299999,-9.979032516479492,1.4077905416488647,0.912190854549408,2.74658203125,2.960205078125,-3.3111572265625
6.749999900000001,-9.983820915222168,1.3838485479354858,0.9217676520347595,2.3040771484375,0.244140625,-4.9285888671875
6.7699999,-9.983820915222168,1.3694833517074585,0.933738648891449,1.434326171875,-3.0975341796875,-6.1798095703125
6.789999900000001,-9.955090522766113,1.359906554222107,0.9552865028381348,0.42724609375,-2.9144287109375,-6.53076171875
6.8099999,-9.904812812805176,1.3527239561080933,0.9864110946655273,-0.5340576171875,0.701904296875,-5.8441162109375
6.829999900000001,-9.852140426635742,1.3431471586227417,1.0055646896362305,-1.52587890625,3.0975341796875,-5.1116943359375
6.8499999,-9.804255485534668,1.3287819623947144,1.0103530883789062,-2.349853515625,1.5411376953125,-5.3558349609375
6.869999900000001,-9.768342971801758,1.3048399686813354,0.9983820915222168,-2.6702880859375,-0.4425048828125,-5.7373046875
6.8899999,-9.742006301879883,1.2832920551300049,0.9768342971801758,-3.0517578125,-0.030517578125,-5.5084228515625
6.909999900000001,-9.720458984375,1.2521674633026123,0.9528923034667969,-3.3416748046875,1.9683837890625,-5.4473876953125
6.9299999,-9.710882186889648,1.2258312702178955,0.9289502501487732,-3.0975341796875,4.058837890625,-6.744384765625
6.949999900000001,-9.72285270690918,1.1971008777618408,0.9026140570640564,-2.532958984375,4.974365234375,-9.185791015625
6.9699999,-9.758766174316406,1.1683704853057861,0.8786720037460327,-2.227783203125,5.5084228515625,-11.810302734375
6.989999900000001,-9.797073364257812,1.1300631761550903,0.8571242094039917,-2.3651123046875,6.2408447265625,-14.2974853515625
7.0099999,-9.832986831665039,1.0845733880996704,0.8379706144332886,-2.8076171875,6.5765380859375,-15.869140625
7.029999900000001,-9.864110946655273,1.0247182846069336,0.8140285611152649,-2.838134765625,7.2021484375,-15.68603515625
7.0499999,-9.909601211547852,0.9648633003234863,0.790086567401886,-1.800537109375,8.331298828125,-15.8233642578125
7.069999900000001,-9.99339771270752,0.912190854549408,0.7589619159698486,-0.18310546875,9.1400146484375,-18.61572265625
7.0899999000000005,-10.093954086303711,0.8738836050033569,0.730231523513794,0.9613037109375,7.171630859375,-23.92578125
7.109999900000001,-10.1753568649292,0.8379706144332886,0.7086837291717529,1.1444091796875,3.9215087890625,-28.80859375
7.1299999000000005,-10.201693534851074,0.7924807667732239,0.6871358752250671,0.762939453125,3.2196044921875,-30.8990478515625
7.149999900000001,-10.160991668701172,0.7254431247711182,0.6727706789970398,0.2899169921875,4.57763671875,-30.6854248046875
7.1699999000000005,-10.105925559997559,0.6440402865409851,0.6536170840263367,0.1983642578125,6.16455078125,-30.82275390625
7.1899999,-10.08198356628418,0.569819986820221,0.6344634294509888,0.732421875,8.331298828125,-33.935546875
7.209999900000001,-10.08437728881836,0.507570743560791,0.6153098344802856,2.2735595703125,11.7340087890625,-40.3900146484375
7.2299999,-10.08437728881836,0.42856210470199585,0.5913678407669067,4.8065185546875,16.3116455078125,-46.2799072265625
7.249999900000001,-10.053253173828125,0.33758243918418884,0.5506663918495178,7.14111328125,18.096923828125,-48.2330322265625
7.2699999,-9.952696800231934,0.18914192914962769,0.49559974670410156,8.6212158203125,14.5416259765625,-48.3856201171875
7.289999900000001,-9.801861763000488,0.004788403399288654,0.42856210470199585,9.918212890625,8.4228515625,-47.9278564453125
7.3099999,-9.615114212036133,-0.21308395266532898,0.3758896589279175,12.115478515625,4.302978515625,-46.1273193359375
7.329999900000001,-9.48343276977539,-0.45250412821769714,0.36152446269989014,14.8468017578125,3.9520263671875,-41.93115234375
7.3499999,-9.512163162231445,-0.6512228846549988,0.3878606855869293,17.5323486328125,5.889892578125,-39.6575927734375
7.369999900000001,-10.031704902648926,-0.950498104095459,0.5219359993934631,25.2227783203125,3.631591796875,-62.0880126953125
7.3899999,-10.323798179626465,-1.0869675874710083,0.6129156351089478,26.18408203125,0.42724609375,-69.1070556640625
7.409999900000001,-10.460267066955566,-1.2737152576446533,0.7230489253997803,24.5361328125,-1.922607421875,-68.1304931640625
7.4299999,-10.429142951965332,-1.5275006294250488,0.8427590131759644,21.392822265625,-3.4027099609375,-65.4449462890625
7.449999900000001,-10.340557098388672,-1.7884687185287476,0.9648633003234863,17.4713134765625,-1.7547607421875,-66.558837890625
7.4699999,-10.283096313476562,-1.98958158493042,1.0342950820922852,15.2435302734375,4.9285888671875,-79.010009765625
7.489999900000001,-10.235212326049805,-2.1356279850006104,1.05105459690094,15.5181884765625,9.9945068359375,-100.9674072265625
7.5099999,-10.108319282531738,-2.3127987384796143,1.0319008827209473,14.8773193359375,13.0615234375,-114.715576171875
7.529999900000001,-9.852140426635742,-2.5546131134033203,0.9552865028381348,11.3983154296875,17.852783203125,-111.5264892578125
7.5499999,-9.454702377319336,-2.9305028915405273,0.8834604024887085,8.026123046875,18.6004638671875,-102.9205322265625
7.569999900000001,-9.042900085449219,-3.3518824577331543,0.7852981686592102,6.34765625,15.13671875,-98.81591796875
7.5899999000000005,-8.698134422302246,-3.780444383621216,0.7038952708244324,5.8135986328125,12.4969482421875,-99.8077392578125
7.609999900000001,-8.497021675109863,-4.156333923339844,0.6153098344802856,5.218505859375,18.0511474609375,-99.9908447265625
7.6299999000000005,-8.418013572692871,-4.517858505249023,0.5363011956214905,5.096435546875,25.3143310546875,-98.6480712890625
7.649999900000001,-8.463502883911133,-4.865017890930176,0.43335050344467163,7.8887939453125,28.289794921875,-99.334716796875
7.6699999000000005,-8.595184326171875,-5.200206279754639,0.29209262132644653,14.373779296875,26.275634765625,-103.0120849609375
7.6899999,-8.738836288452148,-5.542576789855957,0.12449848651885986,21.881103515625,20.1568603515625,-105.010986328125
7.709999900000001,-8.834604263305664,-5.839457988739014,-0.004788403399288654,27.9388427734375,12.7716064453125,-104.0802001953125
7.7299999,-8.801085472106934,-6.1052141189575195,-0.08619125932455063,33.050537109375,11.1236572265625,-106.3385009765625
7.749999900000001,-8.62391471862793,-6.335057735443115,-0.0933738648891449,37.53662109375,10.5438232421875,-111.4044189453125
7.7699999,-8.35097599029541,-6.540958881378174,-0.05267243832349777,40.0543212890625,6.7291259765625,-112.701416015625
7.789999900000001,-8.01339340209961,-6.732495307922363,0.043095629662275314,41.259765625,6.622314453125,-111.1297607421875
7.8099999,-7.6566572189331055,-6.955155849456787,0.15801730751991272,42.7703857421875,15.4571533203125,-110.9619140625
7.829999900000001,-7.343016624450684,-7.158663272857666,0.28730419278144836,43.3502197265625,22.4456787109375,-110.504150390625
7.8499999,-7.079654216766357,-7.347805023193359,0.40701428055763245,42.022705078125,23.9410400390625,-109.5428466796875
7.869999900000001,-6.866570472717285,-7.513004779815674,0.5051765441894531,40.283203125,25.1922607421875,-110.6719970703125
7.8899999,-6.682217121124268,-7.673416614532471,0.6177040338516235,38.330078125,28.9306640625,-113.525390625
7.909999900000001,-6.490680694580078,-7.817068576812744,0.7445967197418213,34.11865234375,33.50830078125,-115.6005859375
7.9299999,-6.260837554931641,-7.970297336578369,0.8978256583213806,26.3214111328125,33.966064453125,-116.912841796875
7.949999900000001,-5.947196960449219,-8.1139497756958,1.0534487962722778,17.913818359375,33.4014892578125,-118.377685546875
7.9699999,-5.552153587341309,-8.276755332946777,1.1563993692398071,11.3983154296875,34.1644287109375,-119.659423828125
7.989999900000001,-5.116408824920654,-8.458714485168457,1.1994950771331787,5.7525634765625,31.67724609375,-118.5150146484375
8.0099999,-4.642356872558594,-8.662221908569336,1.1755530834197998,0.518798828125,27.313232421875,-115.3106689453125
8.0299999,-4.168305397033691,-8.892065048217773,1.0965443849563599,-3.3416748046875,25.57373046875,-112.1673583984375
8.049999900000001,-3.73016619682312,-9.119514465332031,0.9792284965515137,-5.9051513671875,25.87890625,-108.5052490234375
8.069999900000001,-3.31118106842041,-9.311050415039062,0.8451532125473022,-7.6141357421875,24.47509765625,-103.6529541015625
8.0899999,-2.920926094055176,-9.466673851013184,0.7086837291717529,-9.490966796875,21.1944580078125,-99.090576171875
8.1099999,-2.580949544906616,-9.567230224609375,0.5746083855628967,-11.810302734375,19.3634033203125,-95.2301025390625
8.129999900000001,-2.2577321529388428,-9.63187313079834,0.4596867263317108,-13.9312744140625,19.34814453125,-92.2088623046875
8.149999900000001,-1.9632453918457031,-9.658209800720215,0.3734954595565796,-15.8538818359375,20.660400390625,-90.33203125
8.1699999,-1.678335428237915,-9.653421401977539,0.3064578175544739,-18.0816650390625,24.0020751953125,-89.9200439453125
8.1899999,-1.3958195447921753,-9.615114212036133,0.2561795711517334,-20.0042724609375,27.89306640625,-90.7135009765625
8.2099999,-1.0965443849563599,-9.555258750915527,0.21308395266532898,-21.1944580078125,31.9061279296875,-92.3309326171875
8.229999900000001,-0.7805097699165344,-9.490615844726562,0.16759411990642548,-21.942138671875,35.94970703125,-94.0399169921875
8.2499999,-0.4357447028160095,-9.445125579833984,0.12928688526153564,-22.705078125,40.8172607421875,-95.8404541015625
8.2699999,-0.0694318488240242,-9.418789863586426,0.090979665517807,-22.94921875,48.03466796875,-97.2747802734375
8.2899999,0.2944868206977844,-9.428366661071777,0.019153613597154617,-22.52197265625,51.6204833984375,-97.900390625
8.309999900000001,0.6512228846549988,-9.445125579833984,-0.08379705995321274,-21.8963623046875,47.332763671875,-97.0611572265625
8.3299999,0.9959878921508789,-9.44991397857666,-0.2106897532939911,-21.7132568359375,39.73388671875,-94.66552734375
8.3499999,1.3263877630233765,-9.440337181091309,-0.33518823981285095,-21.3775634765625,32.8521728515625,-90.9881591796875
8.3699999,1.6424223184585571,-9.3828763961792,-0.4165911078453064,-20.8892822265625,26.1383056640625,-85.9222412109375
8.389999900000001,1.946485996246338,-9.265560150146484,-0.43335050344467163,-20.660400390625,20.7366943359375,-80.26123046875
8.4099999,2.2242133617401123,-9.100360870361328,-0.3926490843296051,-21.5301513671875,19.256591796875,-74.493408203125
8.4299999,2.4396915435791016,-8.935160636901855,-0.3734954595565796,-22.705078125,20.1416015625,-67.0318603515625
8.4499999,2.604891538619995,-8.813055992126465,-0.38546648621559143,-22.9339599609375,16.8914794921875,-57.1136474609375
8.469999900000001,2.715024709701538,-8.774748802185059,-0.4596867263317108,-23.223876953125,12.3291015625,-45.684814453125
8.4899999,2.786850690841675,-8.810662269592285,-0.6033388376235962,-23.0255126953125,13.3514404296875,-34.454345703125
8.5099999,2.849100112915039,-8.858546257019043,-0.7661445140838623,-20.4620361328125,14.9688720703125,-25.054931640625
8.5299999,2.940079689025879,-8.851364135742188,-0.9026140570640564,-15.3350830078125,11.8865966796875,-18.8140869140625
8.549999900000001,3.07415509223938,-8.765172004699707,-1.0007762908935547,-9.7808837890625,7.01904296875,-15.045166015625
8.569999900000001,3.2585084438323975,-8.614337921142578,-1.0462661981582642,-5.615234375,2.593994140625,-11.65771484375
8.5899999,3.490746021270752,-8.453926086425781,-1.048660397529602,-2.99072265625,-3.7689208984375,-7.171630859375
8.6099999,3.780444383621216,-8.305485725402832,-1.0031704902648926,-1.46484375,-14.1143798828125,-1.861572265625
8.629999900000001,4.108449935913086,-8.214506149291992,-0.9217676520347595,-1.8310546875,-22.4456787109375,3.90625
8.649999900000001,4.477157115936279,-8.17141056060791,-0.8188169598579407,-4.7454833984375,-24.2156982421875,11.3525390625
8.6699999,4.833893299102783,-8.185775756835938,-0.7469909191131592,-8.85009765625,-24.0020751953125,21.514892578125
8.6899999,5.142745018005371,-8.267178535461426,-0.7230489253997803,-11.3525390625,-26.031494140625,32.7606201171875
8.709999900000001,5.343858242034912,-8.389283180236816,-0.811634361743927,-11.016845703125,-22.308349609375,42.9534912109375
8.729999900000001,5.4252610206604,-8.508993148803711,-0.9888052940368652,-7.8277587890625,-17.5323486328125,50.6591796875
8.7499999,5.394136428833008,-8.62630844116211,-1.2330138683319092,-3.9520263671875,-24.169921875,57.9376220703125
8.7699999,5.25527286529541,-8.741230010986328,-1.4748282432556152,-0.762939453125,-36.0870361328125,67.19970703125
8.7899999,5.03021764755249,-8.856152534484863,-1.6543933153152466,2.5634765625,-37.1551513671875,77.3773193359375
8.809999900000001,4.726154327392578,-8.98543930053711,-1.723825216293335,5.3253173828125,-30.33447265625,87.3260498046875
8.8299999,4.2544965744018555,-9.155426979064941,-1.8076223134994507,5.950927734375,-34.820556640625,98.785400390625
8.8499999,3.689464807510376,-9.279925346374512,-1.8698714971542358,6.6070556640625,-58.3953857421875,111.2518310546875
8.8699999,3.134010076522827,-9.351752281188965,-1.8363527059555054,8.7432861328125,-73.6236572265625,120.60546875
8.889999900000001,2.7078421115875244,-9.263166427612305,-1.5873557329177856,9.002685546875,-61.1419677734375,127.410888671875
8.9099999,2.1954829692840576,-9.155426979064941,-1.3694833517074585,3.4332275390625,-41.0003662109375,135.1165771484375
8.9299999,1.5849615335464478,-8.944737434387207,-1.161187767982483,-2.197265625,-52.6580810546875,142.486572265625
8.9499999,0.8978256583213806,-8.801085472106934,-1.1109095811843872,-3.0364990234375,-72.723388671875,145.3399658203125
8.969999900000001,0.1867477297782898,-8.686163902282715,-1.0893617868423462,-1.28173828125,-65.338134765625,146.6522216796875
8.9899999,-0.5841852426528931,-8.686163902282715,-1.1180921792984009,-3.9520263671875,-45.7000732421875,149.6429443359375
9.0099999,-1.4413094520568848,-8.698134422302246,-1.1228805780410767,-9.27734375,-51.177978515625,151.8096923828125
9.0299999,-2.387019157409668,-8.762778282165527,-1.1635819673538208,-10.040283203125,-62.286376953125,145.263671875
9.049999900000001,-3.308786630630493,-8.791508674621582,-1.2330138683319092,-4.2572021484375,-46.7681884765625,131.378173828125
9.069999900000001,-4.1156325340271,-8.820239067077637,-1.292868971824646,1.617431640625,-26.7181396484375,118.95751953125
9.0899999,-4.697423934936523,-8.755595207214355,-1.316810965538025,3.204345703125,-33.905029296875,112.945556640625
9.1099999,-5.130774021148682,-8.736441612243652,-1.335964560508728,8.72802734375,-46.630859375,104.8126220703125
9.129999900000001,-5.4444146156311035,-8.650250434875488,-1.3072341680526733,17.6849365234375,-35.09521484375,93.658447265625
9.149999900000001,-5.609614372253418,-8.5903959274292,-1.1971008777618408,20.3704833984375,-17.27294921875,87.8448486328125
9.1699999,-5.626373767852783,-8.47547435760498,-0.9768342971801758,15.2130126953125,-18.218994140625,89.324951171875
9.1899999,-5.631162166595459,-8.346187591552734,-0.730231523513794,11.260986328125,-19.073486328125,87.7532958984375
9.209999900000001,-5.748478412628174,-8.180987358093262,-0.6009446382522583,14.0380859375,0.1373291015625,79.254150390625
9.229999900000001,-5.875370979309082,-7.953537940979004,-0.5051765441894531,19.866943359375,10.986328125,70.831298828125
9.2499999,-6.04775333404541,-7.783549785614014,-0.5315127968788147,22.5372314453125,1.3885498046875,69.4427490234375
9.2699999,-6.2416839599609375,-7.587224960327148,-0.5889736413955688,24.2156982421875,-14.5263671875,72.7386474609375
9.2899999,-6.418854713439941,-7.424419403076172,-0.6703764796257019,28.3050537109375,-15.31982421875,73.577880859375
9.309999900000001,-6.519411087036133,-7.237671852111816,-0.6631938815116882,32.2265625,-8.941650390625,74.798583984375
9.3299999,-6.5912370681762695,-7.06528902053833,-0.6009446382522583,31.951904296875,-12.5885009765625,81.817626953125
9.3499999,-6.6846113204956055,-6.878541469573975,-0.47884035110473633,28.9154052734375,-26.85546875,91.7205810546875
9.3699999,-6.835445880889893,-6.682217121124268,-0.2944868206977844,25.9857177734375,-36.4227294921875,97.7783203125
9.389999900000001,-7.015010833740234,-6.44279670715332,-0.023942016065120697,21.9268798828125,-33.0963134765625,100.9063720703125
9.4099999,-7.228095054626465,-6.186617374420166,0.2849099934101105,14.09912109375,-27.2216796875,107.60498046875
9.4299999,-7.41484260559082,-5.870582580566406,0.6009446382522583,4.425048828125,-28.7628173828125,117.24853515625
9.4499999,-7.608773231506348,-5.542576789855957,0.8858546018600464,-3.1585693359375,-32.8216552734375,120.7122802734375
9.469999900000001,-7.814674377441406,-5.154716491699219,1.1276689767837524,-9.2010498046875,-29.1748046875,116.668701171875
9.4899999,-8.037335395812988,-4.778826713562012,1.3311761617660522,-16.66259765625,-22.15576171875,111.38916015625
9.5099999,-8.29830265045166,-4.410119533538818,1.4891934394836426,-24.9786376953125,-21.7742919921875,107.91015625
9.5299999,-8.635885238647461,-4.079719543457031,1.601720929145813,-29.4342041015625,-24.3988037109375,100.1129150390625
9.549999900000001,-9.026140213012695,-3.7924153804779053,1.6639702320098877,-30.792236328125,-18.4173583984375,87.1124267578125
9.569999900000001,-9.425971984863281,-3.536235809326172,1.7070658206939697,-32.2723388671875,-8.4228515625,76.35498046875
9.5899999,-9.787496566772461,-3.3255462646484375,1.723825216293335,-33.75244140625,-2.685546875,72.20458984375
9.6099999,-10.08437728881836,-3.1507694721221924,1.7262194156646729,-33.477783203125,-2.7313232421875,70.404052734375
9.629999900000001,-10.314221382141113,-2.980781078338623,1.6950948238372803,-33.9508056640625,-3.6468505859375,66.89453125
9.649999900000001,-10.462661743164062,-2.782062292098999,1.6496049165725708,-38.0706787109375,-6.9580078125,64.117431640625
9.6699999,-10.505757331848145,-2.561795711517334,1.5945383310317993,-44.8455810546875,-13.0157470703125,63.8580322265625
9.6899999,-10.450690269470215,-2.3271639347076416,1.5538369417190552,-50.5828857421875,-16.6168212890625,63.2476806640625
9.709999900000001,-10.3549222946167,-2.094926595687866,1.50355863571167,-54.779052734375,-14.8468017578125,59.4635009765625
9.729999900000001,-10.268731117248535,-1.8698714971542358,1.4221558570861816,-59.1278076171875,-15.2435302734375,53.924560546875
9.7499999,-10.182539939880371,-1.6519991159439087,1.3503297567367554,-62.835693359375,-20.111083984375,49.2706298828125
9.7699999,-10.096348762512207,-1.479616641998291,1.2425906658172607,-63.41552734375,-16.8304443359375,45.135498046875
9.7899999,-9.995792388916016,-1.338358759880066,1.1180921792984009,-60.7147216796875,-4.8370361328125,41.534423828125
9.809999900000001,-9.90241813659668,-1.2066776752471924,1.015141487121582,-56.5032958984375,5.157470703125,38.9404296875
9.8299999,-9.852140426635742,-1.094150185585022,0.9145850539207458,-52.67333984375,12.1917724609375,36.19384765625
9.8499999,-9.8784761428833,-0.9720458984375,0.8236053586006165,-51.20849609375,14.7247314453125,33.1268310546875
9.8699999,-9.950302124023438,-0.8595184087753296,0.7326257228851318,-50.994873046875,8.9263916015625,29.5562744140625
9.889999900000001,-10.017339706420898,-0.7613561153411865,0.6368576288223267,-50.079345703125,-2.38037109375,27.4810791015625
9.9099999,-10.022128105163574,-0.6919242739677429,0.524330198764801,-47.943115234375,-13.671875,29.296875
9.9299999,-9.907206535339355,-0.6727706789970398,0.4118026793003082,-44.00634765625,-20.1416015625,34.9273681640625
9.9499999,-9.718064308166504,-0.6775590777397156,0.33518823981285095,-37.1551513671875,-20.233154296875,41.5802001953125
9.969999900000001,-9.528923034667969,-0.6799532771110535,0.2801215946674347,-28.3966064453125,-16.448974609375,45.623779296875
9.9899999,-9.423578262329102,-0.6536170840263367,0.2298433631658554,-20.3857421875,-18.2037353515625,46.56982421875
10.0099999,-9.469067573547363,-0.5841852426528931,0.20350714027881622,-13.18359375,-26.4434814453125,46.600341796875
10.0299999,-9.646238327026367,-0.4836287498474121,0.21547815203666687,-5.4779052734375,-28.289794921875,46.4324951171875
10.049999900000001,-9.9000244140625,-0.38067805767059326,0.2825157940387726,0.54931640625,-24.2767333984375,45.3033447265625
10.069999900000001,-10.156203269958496,-0.2777273952960968,0.45489832758903503,1.3580322265625,-23.681640625,44.158935546875
10.0899999,-10.369287490844727,-0.17717093229293823,0.6823474764823914,-1.861572265625,-22.6287841796875,42.3583984375
10.1099999,-10.508151054382324,-0.08858546614646912,0.9265560507774353,-5.1727294921875,-18.0816650390625,39.1387939453125
10.129999900000001,-10.582371711730957,-0.026336219161748886,1.137245774269104,-8.5601806640625,-12.1307373046875,36.2091064453125
10.149999900000001,-10.675745010375977,0.023942016065120697,1.2330138683319092,-12.5274658203125,-10.6201171875,33.843994140625
10.1699999,-10.805032730102539,0.07182604819536209,1.2210428714752197,-13.18359375,-16.357421875,26.9622802734375
10.1899999,-11.010933876037598,0.12449848651885986,1.1348515748977661,-10.1776123046875,-23.49853515625,15.2130126953125
10.209999900000001,-11.21204662322998,0.1628057211637497,1.0845733880996704,-7.0648193359375,-28.289794921875,3.753662109375
10.229999900000001,-11.295844078063965,0.11252748221158981,1.1348515748977661,-8.4381103515625,-29.510498046875,-3.387451171875
10.2499999,-11.204863548278809,0.002394201699644327,1.3000515699386597,-12.75634765625,-27.9083251953125,-6.1187744140625
10.2699999,-10.867281913757324,-0.19871874153614044,1.5298948287963867,-13.0767822265625,-15.3656005859375,-5.4473876953125
10.2899999,-10.376470565795898,-0.4141969084739685,1.6927006244659424,-7.7056884765625,12.786865234375,-0.8087158203125
10.309999900000001,-9.9000244140625,-0.5506663918495178,1.7166426181793213,0.5035400390625,39.764404296875,2.9296875
10.3299999,-9.567230224609375,-0.6129156351089478,1.5729905366897583,10.101318359375,53.0853271484375,-0.18310546875
10.3499999,-9.500192642211914,-0.5674257874488831,1.2832920551300049,20.263671875,55.1300048828125,-5.55419921875
10.3699999,-9.641449928283691,-0.4596867263317108,0.9696516990661621,30.0750732421875,49.25537109375,-8.3465576171875
10.389999900000001,-9.931148529052734,-0.31364041566848755,0.6751648783683777,37.41455078125,40.7257080078125,-9.6893310546875
10.4099999,-10.180145263671875,-0.18914192914962769,0.5291185975074768,41.1529541015625,25.4669189453125,-9.46044921875
10.4299999,-10.376470565795898,-0.05985504388809204,0.5027823448181152,39.4134521484375,13.427734375,-5.9051513671875
10.4499999,-10.515334129333496,0.09576806426048279,0.6153098344802856,34.6527099609375,7.7972412109375,-3.0975341796875
10.469999900000001,-10.596736907958984,0.27054479718208313,0.8236053586006165,26.4739990234375,1.556396484375,-7.6141357421875
10.4899999,-10.606313705444336,0.4620809257030487,1.1061211824417114,14.8773193359375,-3.5400390625,-15.7470703125
10.5099999,-10.532093048095703,0.6584054827690125,1.4173674583435059,2.7313232421875,4.913330078125,-22.15576171875
10.5299999,-10.33098030090332,0.8092401623725891,1.7094600200653076,-10.43701171875,25.0244140625,-27.4810791015625
10.549999900000001,-10.053253173828125,0.8786720037460327,1.8986018896102905,-25.87890625,37.567138671875,-28.5797119140625
10.569999900000001,-9.765948295593262,0.8619126081466675,1.922544002532959,-40.557861328125,35.369873046875,-20.4620361328125
10.5899999,-9.5624418258667,0.7876923680305481,1.7525556087493896,-49.3621826171875,29.4952392578125,-9.94873046875
10.6099999,-9.485827445983887,0.6751648783683777,1.4197616577148438,-49.346923828125,27.4658203125,-5.2032470703125
10.629999900000001,-9.514557838439941,0.5027823448181152,0.9983820915222168,-40.8782958984375,30.9600830078125,-3.753662109375
10.649999900000001,-9.651026725769043,0.3064578175544739,0.5434837937355042,-30.059814453125,32.8369140625,3.5858154296875
10.6699999,-9.9000244140625,0.1173158809542656,0.15083470940589905,-21.1334228515625,24.017333984375,12.6953125
10.6899999,-10.280701637268066,-0.002394201699644327,-0.10773907601833344,-13.9007568359375,12.0086669921875,9.002685546875
10.709999900000001,-10.718840599060059,-0.016759412363171577,-0.3256114423274994,-12.9852294921875,-6.866455078125,-10.040283203125
10.729999900000001,-11.044452667236328,0.035913024097681046,-0.3016694188117981,-17.242431640625,-38.1317138671875,-29.0985107421875
10.7499999,-11.099518775939941,0.11252748221158981,-0.17238251864910126,-21.2554931640625,-45.3338623046875,-33.9202880859375
10.7699999,-10.800244331359863,0.19393034279346466,0.16759411990642548,-24.2767333984375,-24.566650390625,-30.76171875
10.7899999,-10.24239444732666,0.2298433631658554,0.5817909836769104,-29.3426513671875,4.21142578125,-25.9857177734375
10.809999900000001,-9.658209800720215,0.24181437492370605,0.9193734526634216,-38.1011962890625,25.3753662109375,-21.8048095703125
10.8299999,-9.191340446472168,0.21308395266532898,1.1348515748977661,-45.3948974609375,37.2314453125,-22.857666015625
10.8499999,-9.047688484191895,0.2298433631658554,1.1204863786697388,-51.08642578125,50.537109375,-32.71484375
10.8699999,-9.186552047729492,0.24660277366638184,0.9385270476341248,-59.0972900390625,56.732177734375,-52.30712890625
10.889999900000001,-9.521739959716797,0.23702596127986908,0.6751648783683777,-71.3348388671875,39.794921875,-71.1212158203125
10.9099999,-9.821015357971191,0.05506663769483566,0.31124621629714966,-85.9222412109375,23.98681640625,-74.2950439453125
10.9299999,-9.852140426635742,-0.4692635238170624,-0.0454898327589035,-94.7265625,23.74267578125,-58.53271484375
10.9499999,-9.68694019317627,-1.235408067703247,-0.4429273009300232,-93.597412109375,39.9322509765625,-23.01025390625
10.969999900000001,-9.452308654785156,-1.98958158493042,-0.8355764150619507,-85.9527587890625,48.2635498046875,23.8494873046875
10.9899999,-9.2033109664917,-2.4899697303771973,-1.3287819623947144,-75.3631591796875,28.778076171875,63.1103515625
11.0099999,-9.260771751403809,-2.542642116546631,-1.8483237028121948,-57.9376220703125,-12.0849609375,80.169677734375
11.0299999,-9.50737476348877,-2.164358377456665,-2.2912509441375732,-31.280517578125,-67.7337646484375,68.05419921875
11.049999900000001,-9.830592155456543,-1.6184803247451782,-2.5689783096313477,-3.7841796875,-112.24365234375,40.7867431640625
11.069999900000001,-10.457873344421387,-0.4596867263317108,-1.9800047874450684,50.3387451171875,-93.048095703125,-8.11767578125
11.0899999,-10.500968933105469,-0.1364694982767105,-1.3048399686813354,66.6656494140625,-57.5408935546875,-21.026611328125
11.1099999,-10.409989356994629,0.026336219161748886,-0.5554547905921936,74.3408203125,-47.607421875,-21.5911865234375
11.129999900000001,-10.20648193359375,0.009576806798577309,0.10055647045373917,75.3326416015625,-48.3551025390625,-17.852783203125
11.149999900000001,-9.904812812805176,-0.10773907601833344,0.6272808313369751,71.9757080078125,-42.6025390625,-7.568359375
11.1699999,-9.557653427124023,-0.21547815203666687,1.048660397529602,64.6209716796875,-39.794921875,14.83154296875
11.1899999,-9.246406555175781,-0.21308395266532898,1.434126853942871,52.6580810546875,-42.2515869140625,33.50830078125
11.209999900000001,-9.02135181427002,-0.08619125932455063,1.7956513166427612,35.247802734375,-27.740478515625,32.7301025390625
11.229999900000001,-8.995016098022461,0.12449848651885986,2.0231003761291504,13.97705078125,10.31494140625,25.4058837890625
11.2499999,-9.093177795410156,0.3974374830722809,2.2361843585968018,-6.988525390625,34.5306396484375,25.4058837890625
11.2699999,-9.418789863586426,0.5961562395095825,2.1308395862579346,-23.2086181640625,35.5377197265625,17.913818359375
11.2899999,-9.667786598205566,0.5386953949928284,1.7956513166427612,-27.64892578125,41.2750244140625,2.1514892578125
11.309999900000001,-9.864110946655273,0.33997663855552673,1.216254472732544,-18.9971923828125,45.3033447265625,3.9825439453125
11.3299999,-9.876082420349121,-0.016759412363171577,0.5530605912208557,-6.072998046875,36.6363525390625,19.500732421875
11.3499999,-9.816226959228516,-0.33758243918418884,-0.031124621629714966,3.4637451171875,31.55517578125,23.86474609375
11.3699999,-9.799467086791992,-0.4812345504760742,-0.3902548849582672,7.87353515625,32.2113037109375,13.8397216796875
11.389999900000001,-9.904812812805176,-0.4381389021873474,-0.49320554733276367,9.2926025390625,29.998779296875,3.265380859375
11.4099999,-10.038887977600098,-0.2537853717803955,-0.38307225704193115,7.6904296875,20.69091796875,-1.7547607421875
11.4299999,-10.065223693847656,-0.05506663769483566,-0.1149216815829277,4.08935546875,20.1873779296875,-2.3040771484375
11.4499999,-9.979032516479492,0.08379705995321274,0.15083470940589905,-0.5950927734375,32.1807861328125,2.50244140625
11.469999900000001,-9.876082420349121,0.15801730751991272,0.3423708379268646,-6.16455078125,29.0679931640625,12.2222900390625
11.4899999,-9.81143856048584,0.20111294090747833,0.4118026793003082,-10.7574462890625,13.24462890625,17.1051025390625
11.5099999,-9.86650562286377,0.2106897532939911,0.36152446269989014,-12.4664306640625,6.4849853515625,11.65771484375
11.5299999,-10.000580787658691,0.22266076505184174,0.2322375625371933,-11.7034912109375,10.6964111328125,7.2021484375
11.549999900000001,-10.168174743652344,0.181959331035614,0.035913024097681046,-6.9427490234375,5.4931640625,8.60595703125
11.569999900000001,-10.32858657836914,0.11013327538967133,-0.18914192914962769,1.8157958984375,-8.8653564453125,9.9639892578125
11.5899999,-10.469843864440918,0.004788403399288654,-0.4620809257030487,14.892578125,-17.02880859375,5.3253173828125
11.6099999,-10.515334129333496,-0.08140286058187485,-0.6631938815116882,29.052734375,-22.705078125,-1.4801025390625
11.629999900000001,-10.474632263183594,-0.11971008777618408,-0.7445967197418213,38.6810302734375,-28.6407470703125,-4.974365234375
11.649999900000001,-10.333374977111816,-0.12928688526153564,-0.6631938815116882,44.158935546875,-29.296875,-6.34765625
11.6699999,-10.160991668701172,-0.08379705995321274,-0.4429273009300232,46.4935302734375,-20.7061767578125,-8.758544921875
11.6899999,-9.962273597717285,-0.019153613597154617,-0.10055647045373917,44.097900390625,-11.9171142578125,-11.5814208984375
11.709999900000001,-9.81143856048584,0.06703764945268631,0.2561795711517334,35.9344482421875,-7.6751708984375,-11.2457275390625
11.729999900000001,-9.6989107131958,0.12449848651885986,0.5793967843055725,25.482177734375,-8.11767578125,-8.7127685546875
11.7499999,-9.646238327026367,0.15801730751991272,0.8236053586006165,16.5863037109375,-7.1563720703125,-7.1563720703125
11.7699999,-9.634267807006836,0.1604115068912506,0.9720458984375,8.8043212890625,-2.5634765625,-5.2337646484375
11.7899999,-9.677363395690918,0.1628057211637497,1.01753568649292,1.617431640625,0.274658203125,-0.1983642578125
11.809999900000001,-9.734824180603027,0.17956513166427612,0.9816226959228516,-4.0283203125,-3.509521484375,5.43212890625
11.8299999,-9.794678688049316,0.21547815203666687,0.8810662031173706,-6.89697265625,-8.4075927734375,8.5296630859375
11.8499999,-9.871294021606445,0.2777273952960968,0.7541735172271729,-7.8582763671875,-8.3160400390625,11.0931396484375
11.8699999,-9.952696800231934,0.363918662071228,0.6440402865409851,-8.1329345703125,-7.7056884765625,13.85498046875
11.889999900000001,-10.017339706420898,0.4596867263317108,0.5674257874488831,-8.0718994140625,-7.32421875,14.0228271484375
11.9099999,-10.070012092590332,0.5482721924781799,0.5099649429321289,-7.0037841796875,-3.387451171875,10.6353759765625
11.9299999,-10.110713958740234,0.6224924325942993,0.4644751250743866,-4.638671875,1.1444091796875,8.2244873046875
11.9499999,-10.156203269958496,0.6775590777397156,0.42856210470199585,-2.685546875,1.5716552734375,7.5225830078125
11.969999900000001,-10.223240852355957,0.6991068720817566,0.38307225704193115,-0.9918212890625,2.1514892578125,4.0130615234375
11.9899999,-10.290278434753418,0.689530074596405,0.3471592366695404,1.3275146484375,2.471923828125,-1.1138916015625
12.0099999,-10.342951774597168,0.6631938815116882,0.3208230137825012,3.7384033203125,1.434326171875,-3.173828125
12.0299999,-10.340557098388672,0.6153098344802856,0.30885201692581177,5.1116943359375,1.708984375,-2.716064453125
12.049999900000001,-10.26394271850586,0.5554547905921936,0.31364041566848755,5.7830810546875,3.2958984375,-1.739501953125
12.069999900000001,-10.15141487121582,0.5051765441894531,0.3280056416988373,6.7901611328125,4.364013671875,0.091552734375
12.0899999,-10.031704902648926,0.4692635238170624,0.3519476354122162,7.9345703125,2.685546875,2.288818359375
12.1099999,-9.93593692779541,0.4572925269603729,0.395043283700943,8.514404296875,-0.9765625,3.60107421875
12.129999900000001,-9.885659217834473,0.47165772318840027,0.4668693244457245,7.6446533203125,-2.777099609375,4.180908203125
12.149999900000001,-9.895236015319824,0.5147533416748047,0.5626373887062073,5.1116943359375,-1.708984375,4.21142578125
12.1699999,-9.940725326538086,0.5674257874488831,0.6703764796257019,1.495361328125,-3.173828125,3.5858154296875
12.1899999,-10.005369186401367,0.6177040338516235,0.768538773059845,-2.227783203125,-4.9285888671875,3.47900390625
12.209999900000001,-10.067618370056152,0.6440402865409851,0.8403648138046265,-4.6234130859375,-2.1820068359375,4.2266845703125
12.229999900000001,-10.132261276245117,0.6392518281936646,0.849941611289978,-5.7220458984375,4.82177734375,2.7008056640625
12.2499999,-10.137049674987793,0.6105214357376099,0.811634361743927,-6.1798095703125,6.6070556640625,-0.732421875
12.2699999,-10.101137161254883,0.5578489899635315,0.7038952708244324,-6.561279296875,1.9073486328125,-0.3509521484375
12.289999900000002,-9.998186111450195,0.5147533416748047,0.5841852426528931,-5.035400390625,1.7852783203125,-0.79345703125
12.309999900000001,-9.9000244140625,0.47405192255973816,0.4668693244457245,-3.143310546875,1.5869140625,0.9307861328125
12.3299999,-9.821015357971191,0.45250412821769714,0.3758896589279175,-1.4495849609375,2.1209716796875,1.8310546875
12.3499999,-9.792284965515137,0.45010992884635925,0.3232172429561615,0.4730224609375,0.6561279296875,1.4495849609375
12.3699999,-9.78989028930664,0.4620809257030487,0.29209262132644653,3.0364990234375,-0.6866455078125,1.434326171875
12.389999900000001,-9.804255485534668,0.4908113479614258,0.2944868206977844,5.2947998046875,-2.2735595703125,1.9989013671875
12.4099999,-9.80904483795166,0.5267243981361389,0.3280056416988373,5.5084228515625,-4.4403076171875,1.617431640625
12.4299999,-9.794678688049316,0.5554547905921936,0.3902548849582672,4.39453125,-5.3863525390625,1.0223388671875
12.4499999,-9.806650161743164,0.5770025849342346,0.4668693244457245,2.9296875,-3.6468505859375,2.3193359375
12.469999900000001,-9.804255485534668,0.6033388376235962,0.5506663918495178,1.495361328125,-0.274658203125,2.9449462890625
12.4899999,-9.84495735168457,0.6129156351089478,0.6224924325942993,-0.244140625,2.0904541015625,3.1585693359375
12.5099999,-9.86650562286377,0.6392518281936646,0.6775590777397156,-1.9073486328125,2.1209716796875,2.6092529296875
12.5299999,-9.892841339111328,0.6584054827690125,0.6919242739677429,-3.4332275390625,2.0599365234375,3.021240234375
12.549999900000001,-9.856928825378418,0.6703764796257019,0.6775590777397156,-4.7149658203125,-0.54931640625,3.72314453125
12.569999900000001,-9.780313491821289,0.667982280254364,0.6416460275650024,-5.340576171875,-1.6632080078125,3.8604736328125
12.5899999,-9.75397777557373,0.6488286852836609,0.5889736413955688,-5.0506591796875,2.105712890625,4.21142578125
12.6099999,-9.677363395690918,0.6129156351089478,0.5339069962501526,-5.096435546875,2.13623046875,1.5411376953125
12.629999900000001,-9.66539192199707,0.5650315880775452,0.48602294921875,-5.1727294921875,1.4495849609375,2.4261474609375
12.649999900000001,-9.648633003234863,0.5506663918495178,0.45250412821769714,-4.730224609375,1.983642578125,6.256103515625
12.6699999,-9.648633003234863,0.5626373887062073,0.4429273009300232,-4.6539306640625,4.5928955078125,7.568359375
12.6899999,-9.713275909423828,0.6153098344802856,0.47165772318840027,-4.5166015625,3.997802734375,6.805419921875
12.709999900000001,-9.787496566772461,0.6847416758537292,0.5147533416748047,-4.6234130859375,-0.6866455078125,4.974365234375
12.729999900000001,-9.888052940368652,0.7469909191131592,0.5722141861915588,-3.509521484375,0.18310546875,4.8828125
12.7499999,-9.945513725280762,0.8140285611152649,0.6272808313369751,-2.8228759765625,0.030517578125,5.859375
12.7699999,-10.050858497619629,0.8738836050033569,0.6703764796257019,-3.2501220703125,1.373291015625,9.124755859375
12.789999900000002,-10.110713958740234,0.933738648891449,0.7158663272857666,-5.06591796875,-0.3814697265625,8.5906982421875
12.809999900000001,-10.177751541137695,0.9911994934082031,0.7350199222564697,-7.8887939453125,-0.9002685546875,2.044677734375
12.8299999,-10.182539939880371,1.0031704902648926,0.7254431247711182,-9.002685546875,5.7373046875,-1.5411376953125
12.8499999,-10.120290756225586,1.0007762908935547,0.6967126727104187,-9.8114013671875,5.889892578125,-0.9765625
12.8699999,-9.976638793945312,0.9720458984375,0.6320692300796509,-10.8489990234375,1.5869140625,3.1890869140625
12.889999900000001,-9.897629737854004,0.9361328482627869,0.5674257874488831,-10.0250244140625,7.38525390625,9.4146728515625
12.9099999,-9.832986831665039,0.9097966551780701,0.49799394607543945,-9.521484375,6.0577392578125,9.735107421875
12.9299999,-9.8784761428833,0.9050082564353943,0.4405331015586853,-9.27734375,3.96728515625,5.9356689453125
12.9499999,-9.950302124023438,0.9265560507774353,0.4165911078453064,-8.1939697265625,0.030517578125,3.0975341796875
12.969999900000001,-10.007762908935547,0.9552865028381348,0.40701428055763245,-5.7373046875,-0.4730224609375,3.204345703125
12.9899999,-10.055646896362305,1.0007762908935547,0.4213795065879822,-2.6702880859375,3.082275390625,5.4931640625
13.0099999,-10.074800491333008,1.0414776802062988,0.42856210470199585,-0.0152587890625,4.94384765625,5.706787109375
13.0299999,-10.103530883789062,1.091755986213684,0.4381389021873474,1.5106201171875,1.6632080078125,3.326416015625
13.049999900000001,-10.096348762512207,1.1252747774124146,0.44771572947502136,2.1514892578125,-0.8392333984375,0.3814697265625
13.069999900000001,-10.125079154968262,1.1492167711257935,0.4596867263317108,2.4566650390625,0.030517578125,0.274658203125
13.0899999,-10.182539939880371,1.1540051698684692,0.47884035110473633,2.044677734375,1.0223388671875,0.5340576171875
13.1099999,-10.304644584655762,1.1324573755264282,0.5027823448181152,0.6256103515625,0.7781982421875,0.701904296875
13.129999900000001,-10.465055465698242,1.115697979927063,0.5267243981361389,-0.54931640625,1.220703125,1.2969970703125
13.149999900000001,-10.668562889099121,1.139639973640442,0.5554547905921936,-1.0528564453125,1.678466796875,1.5869140625
13.1699999,-10.84094524383545,1.2018892765045166,0.5602431893348694,-1.8157958984375,1.220703125,0.7781982421875
13.1899999,-10.994174003601074,1.3024457693099976,0.5530605912208557,-2.5787353515625,1.8310546875,-1.9989013671875
13.209999900000001,-11.106701850891113,1.400607943534851,0.5027823448181152,-3.021240234375,1.40380859375,-4.608154296875
13.229999900000001,-11.106701850891113,1.4437036514282227,0.45250412821769714,-3.173828125,-0.18310546875,-6.2713623046875
13.2499999,-11.003750801086426,1.4077905416488647,0.3998316824436188,-3.2501220703125,-0.5340576171875,-6.3323974609375
13.2699999,-10.824186325073242,1.3120225667953491,0.38307225704193115,-3.173828125,-0.3509521484375,-6.53076171875
13.289999900000002,-10.582371711730957,1.1779472827911377,0.3974374830722809,-3.326416015625,-0.9307861328125,-8.5296630859375
13.309999900000001,-10.304644584655762,1.05105459690094,0.4381389021873474,-3.3416748046875,-1.739501953125,-8.148193359375
13.3299999,-10.086771965026855,0.950498104095459,0.47884035110473633,-2.7618408203125,-2.2125244140625,-4.119873046875
13.3499999,-9.914389610290527,0.8786720037460327,0.569819986820221,-0.640869140625,4.5623779296875,-4.4403076171875
13.3699999,-9.871294021606445,0.8259995579719543,0.629675030708313,0.396728515625,2.5482177734375,-6.89697265625
13.389999900000001,-9.84495735168457,0.8164227604866028,0.7134721279144287,1.312255859375,3.4027099609375,-10.07080078125
13.4099999,-9.86650562286377,0.8188169598579407,0.7398083209991455,2.3040771484375,4.2724609375,-8.7127685546875
13.4299999,-9.890447616577148,0.8379706144332886,0.727837324142456,3.173828125,8.148193359375,-6.9580078125
13.4499999,-9.926360130310059,0.8667010068893433,0.6488286852836609,2.9144287109375,8.453369140625,-8.9569091796875
13.469999900000001,-10.02691650390625,0.8834604024887085,0.5386953949928284,3.2501220703125,12.14599609375,-10.772705078125
13.4899999,-10.129867553710938,0.8930372595787048,0.4118026793003082,3.5858154296875,10.894775390625,-12.481689453125
13.5099999,-10.187328338623047,0.8882488012313843,0.28730419278144836,3.7994384765625,5.706787109375,-14.129638671875
13.5299999,-10.18493366241455,0.8667010068893433,0.18914192914962769,4.9591064453125,0.9002685546875,-14.0380859375
13.549999900000001,-10.120290756225586,0.8212111592292786,0.12928688526153564,6.8817138671875,-1.2054443359375,-12.1002197265625
13.569999900000001,-10.022128105163574,0.7661445140838623,0.11013327538967133,8.4381103515625,-1.129150390625,-10.1470947265625
13.5899999,-9.926360130310059,0.7134721279144287,0.13168109953403473,9.6282958984375,0.0152587890625,-9.063720703125
13.6099999,-9.864110946655273,0.6751648783683777,0.17477671802043915,10.2386474609375,2.166748046875,-8.2550048828125
13.629999900000001,-9.830592155456543,0.6584054827690125,0.2346317619085312,10.0555419921875,3.7994384765625,-8.5906982421875
13.649999900000001,-9.825803756713867,0.6488286852836609,0.2992752194404602,9.4757080078125,5.1727294921875,-10.3759765625
13.6699999,-9.84495735168457,0.6512228846549988,0.3663128614425659,8.0413818359375,6.683349609375,-11.5509033203125
13.6899999,-9.871294021606445,0.6416460275650024,0.42377370595932007,5.767822265625,8.392333984375,-11.0015869140625
13.709999900000001,-9.909601211547852,0.6368576288223267,0.47405192255973816,3.753662109375,10.6201171875,-9.3994140625
13.729999900000001,-9.93593692779541,0.6200982332229614,0.5027823448181152,2.166748046875,13.0462646484375,-8.209228515625
13.7499999,-9.959878921508789,0.5889736413955688,0.5147533416748047,0.885009765625,14.556884765625,-7.293701171875
13.7699999,-9.995792388916016,0.5578489899635315,0.5003881454467773,-0.1068115234375,14.434814453125,-6.2103271484375
13.789999900000002,-10.036493301391602,0.5267243981361389,0.4572925269603729,-0.5950927734375,12.2833251953125,-5.828857421875
13.809999900000001,-10.070012092590332,0.49559974670410156,0.3902548849582672,-0.06103515625,9.124755859375,-6.3934326171875
13.8299999,-10.062829971313477,0.4620809257030487,0.3064578175544739,1.1749267578125,6.195068359375,-6.0577392578125
13.8499999,-9.99100399017334,0.4189853072166443,0.22266076505184174,2.25830078125,2.8228759765625,-5.096435546875
13.8699999,-9.840168952941895,0.36152446269989014,0.16759411990642548,3.173828125,-1.0986328125,-4.7760009765625
13.889999900000001,-9.643844604492188,0.2992752194404602,0.12928688526153564,3.9825439453125,-3.631591796875,-4.6844482421875
13.9099999,-9.430760383605957,0.23942017555236816,0.11252748221158981,4.5928955078125,-5.4779052734375,-3.6773681640625
13.9299999,-9.224859237670898,0.17956513166427612,0.09816227108240128,4.8828125,-7.32421875,-2.6397705078125
13.9499999,-9.033323287963867,0.1149216815829277,0.07422025501728058,5.18798828125,-9.002685546875,-2.13623046875
13.969999900000001,-8.865729331970215,0.05506663769483566,0.047884032130241394,5.9967041015625,-9.7808837890625,-0.8544921875
13.9899999,-8.71728801727295,0.002394201699644327,0.021547814831137657,6.6680908203125,-8.72802734375,1.5411376953125
14.0099999,-8.59997272491455,-0.040701430290937424,-0.002394201699644327,6.866455078125,-7.6904296875,3.8299560546875
14.0299999,-8.523358345031738,-0.07422025501728058,-0.011971008032560349,6.6375732421875,-7.415771484375,5.18798828125
14.049999900000001,-8.51138687133789,-0.09576806426048279,-0.0071826050989329815,6.2408447265625,-6.9427490234375,5.950927734375
14.069999900000001,-8.576030731201172,-0.11971008777618408,0.004788403399288654,5.279541015625,-5.9814453125,6.7138671875
14.0899999,-8.7268648147583,-0.12210428714752197,0.031124621629714966,3.814697265625,-5.5389404296875,7.2021484375
14.1099999,-8.925583839416504,-0.11252748221158981,0.06224924325942993,2.7923583984375,-3.7078857421875,6.103515625
14.129999900000001,-9.141061782836914,-0.09816227108240128,0.08619125932455063,2.3956298828125,-0.2288818359375,4.669189453125
14.149999900000001,-9.354146003723145,-0.06464344263076782,0.10055647045373917,2.2735595703125,0.9307861328125,5.828857421875
14.1699999,-9.528923034667969,-0.038307227194309235,0.09576806426048279,1.9683837890625,-0.9765625,7.62939453125
14.1899999,-9.696516990661621,-0.014365210197865963,0.08619125932455063,1.800537109375,-2.7313232421875,8.819580078125
14.209999900000001,-9.854534149169922,0.014365210197865963,0.08140286058187485,1.52587890625,-3.265380859375,9.09423828125
14.229999900000001,-9.995792388916016,0.031124621629714966,0.0933738648891449,0.67138671875,-3.4942626953125,8.6517333984375
14.2499999,-10.108319282531738,0.040701430290937424,0.11971008777618408,-0.3814697265625,-4.3182373046875,7.5531005859375
14.2699999,-10.177751541137695,0.038307227194309235,0.14604631066322327,-0.30517578125,-4.0283203125,5.1727294921875
14.289999900000002,-10.20887565612793,0.026336219161748886,0.15801730751991272,0.885009765625,-1.6326904296875,2.8533935546875
14.309999900000001,-10.20887565612793,0.004788403399288654,0.15562310814857483,2.6092529296875,-1.2664794921875,2.25830078125
14.3299999,-10.20887565612793,0,0.1604115068912506,4.5166015625,-2.50244140625,2.6702880859375
14.3499999,-10.225635528564453,0.011971008032560349,0.17956513166427612,6.195068359375,-1.7547607421875,2.1209716796875
14.3699999,-10.249577522277832,0.05267243832349777,0.22744916379451752,6.500244140625,-1.0833740234375,1.0528564453125
14.389999900000001,-10.283096313476562,0.11013327538967133,0.29209262132644653,5.279541015625,-2.7008056640625,0.4119873046875
14.4099999,-10.285490036010742,0.15801730751991272,0.3687070608139038,3.7994384765625,-5.645751953125,-0.3662109375
14.4299999,-10.27591323852539,0.1867477297782898,0.44771572947502136,2.6092529296875,-6.53076171875,-0.91552734375
14.4499999,-10.259154319763184,0.2059013396501541,0.5099649429321289,1.007080078125,-6.1492919921875,-1.6021728515625
14.469999900000001,-10.213664054870605,0.2322375625371933,0.5674257874488831,-0.2593994140625,-7.1868896484375,-4.0740966796875
14.4899999,-10.141838073730469,0.2585737705230713,0.586579442024231,-0.244140625,-4.1961669921875,-6.65283203125
14.5099999,-10.050858497619629,0.3016694188117981,0.586579442024231,0.9613037109375,0.42724609375,-5.8746337890625
14.5299999,-9.976638793945312,0.33518823981285095,0.5722141861915588,2.2735595703125,0.8544921875,-1.9378662109375
14.549999900000001,-9.964667320251465,0.38307225704193115,0.5626373887062073,2.197265625,-2.9296875,2.410888671875
14.569999900000001,-10.012551307678223,0.4405331015586853,0.5650315880775452,1.2054443359375,-7.0953369140625,5.0506591796875
14.5899999,-10.093954086303711,0.524330198764801,0.5913678407669067,-0.1373291015625,-8.5296630859375,6.2408447265625
14.6099999,-10.170568466186523,0.6248866319656372,0.629675030708313,-0.8697509765625,-7.3699951171875,6.28662109375
14.629999900000001,-10.213664054870605,0.7254431247711182,0.667982280254364,-1.7547607421875,-5.767822265625,4.4403076171875
14.649999900000001,-10.235212326049805,0.8020575642585754,0.7015010714530945,-3.021240234375,-4.33349609375,1.9989013671875
14.6699999,-10.24000072479248,0.8523358106613159,0.7206547260284424,-3.84521484375,-1.983642578125,1.1138916015625
14.6899999,-10.225635528564453,0.8667010068893433,0.7230489253997803,-4.058837890625,-0.1220703125,1.89208984375
14.709999900000001,-10.211270332336426,0.8619126081466675,0.7254431247711182,-4.0130615234375,-0.18310546875,2.3040771484375
14.729999900000001,-10.187328338623047,0.8451532125473022,0.706289529800415,-3.7078857421875,-0.213623046875,0.8392333984375
14.7499999,-10.137049674987793,0.8140285611152649,0.6799532771110535,-3.0517578125,-1.0223388671875,-0.30517578125
14.7699999,-10.06043529510498,0.7733271718025208,0.6392518281936646,-2.4871826171875,-1.4801025390625,1.4801025390625
14.789999900000002,-9.962273597717285,0.727837324142456,0.5937620401382446,-2.288818359375,-1.40380859375,4.1656494140625
14.809999900000001,-9.835380554199219,0.6727706789970398,0.5434837937355042,-2.01416015625,-0.3814697265625,3.0364990234375
14.8299999,-9.830592155456543,0.667982280254364,0.5410895943641663,-1.28173828125,0.1373291015625,2.288818359375
14.8499999,-9.856928825378418,0.6655880808830261,0.5482721924781799,-0.4730224609375,0.946044921875,2.62451171875
14.8699999,-9.90241813659668,0.6655880808830261,0.5650315880775452,0.0457763671875,0.8392333984375,2.532958984375
14.889999900000001,-9.947908401489258,0.6607996821403503,0.5913678407669067,0.213623046875,-0.4730224609375,1.7242431640625
14.9099999,-9.99339771270752,0.6655880808830261,0.6224924325942993,0.3509521484375,-0.946044921875,1.3580322265625
14.9299999,-10.007762908935547,0.6655880808830261,0.6560112833976746,0.3662109375,-1.1749267578125,1.495361328125
14.9499999,-10.000580787658691,0.6584054827690125,0.6943184733390808,0,-1.434326171875,2.01416015625
14.969999900000001,-9.99339771270752,0.6560112833976746,0.7350199222564697,-0.9002685546875,-1.9073486328125,3.0059814453125
14.9899999,-9.99339771270752,0.6536170840263367,0.7829039692878723,-2.1514892578125,-2.0294189453125,3.4942626953125
15.0099999,-10.007762908935547,0.6584054827690125,0.8307880163192749,-3.570556640625,-1.678466796875,3.997802734375
15.0299999,-10.034099578857422,0.6727706789970398,0.8667010068893433,-4.7454833984375,-1.007080078125,4.547119140625
15.049999900000001,-10.050858497619629,0.6871358752250671,0.8882488012313843,-5.4931640625,-0.762939453125,3.936767578125
15.069999900000001,-10.065223693847656,0.7015010714530945,0.8882488012313843,-5.828857421875,-0.79345703125,2.838134765625
15.0899999,-10.062829971313477,0.7158663272857666,0.8643068075180054,-5.79833984375,-1.556396484375,2.1820068359375
15.1099999,-10.036493301391602,0.7230489253997803,0.8379706144332886,-5.4779052734375,-2.288818359375,1.953125
15.129999900000001,-9.998186111450195,0.7326257228851318,0.8020575642585754,-4.3792724609375,-1.4801025390625,2.1820068359375
15.149999900000001,-9.943120002746582,0.7445967197418213,0.7733271718025208,-3.2196044921875,-0.3814697265625,2.3040771484375
15.1699999,-9.895236015319824,0.751779317855835,0.7565677165985107,-2.3651123046875,-0.396728515625,2.288818359375
15.1899999,-9.888052940368652,0.7637503147125244,0.7589619159698486,-2.2735595703125,-1.5869140625,1.8768310546875
15.209999900000001,-9.911994934082031,0.7781155705451965,0.7733271718025208,-2.899169921875,-2.685546875,-0.030517578125
15.229999900000001,-9.940725326538086,0.7852981686592102,0.7948749661445618,-3.2196044921875,-2.4261474609375,-1.5411376953125
15.2499999,-9.943120002746582,0.7924807667732239,0.8140285611152649,-2.9144287109375,-0.762939453125,-0.7781982421875
15.2699999,-9.90241813659668,0.790086567401886,0.8212111592292786,-2.1820068359375,1.03759765625,1.1138916015625
15.289999900000002,-9.840168952941895,0.790086567401886,0.8188169598579407,-1.8768310546875,0.7781982421875,2.50244140625
15.309999900000001,-9.780313491821289,0.790086567401886,0.811634361743927,-2.25830078125,-1.46484375,3.265380859375
15.3299999,-9.761159896850586,0.7996633648872375,0.811634361743927,-2.99072265625,-2.3040771484375,3.692626953125
15.3499999,-9.75637149810791,0.8092401623725891,0.811634361743927,-3.7841796875,-1.5869140625,3.6773681640625
15.3699999,-9.758766174316406,0.828393816947937,0.8212111592292786,-4.1351318359375,0.9765625,3.8909912109375
15.389999900000001,-9.785101890563965,0.8379706144332886,0.8164227604866028,-3.9520263671875,8.30078125,4.302978515625
15.4099999,-9.792284965515137,0.8547300100326538,0.8068459630012512,-4.791259765625,4.7454833984375,4.9896240234375
15.4299999,-9.816226959228516,0.8619126081466675,0.7948749661445618,-5.767822265625,-0.335693359375,6.4544677734375
15.4499999,-9.859322547912598,0.8762778043746948,0.7709329724311829,-5.3863525390625,1.312255859375,7.3699951171875
15.469999900000001,-9.888052940368652,0.8930372595787048,0.7781155705451965,-4.6234130859375,3.4637451171875,5.950927734375
15.4899999,-9.907206535339355,0.912190854549408,0.7829039692878723,-5.2642822265625,2.3040771484375,4.302978515625
15.5099999,-9.911994934082031,0.933738648891449,0.7996633648872375,-6.1492919921875,4.57763671875,3.692626953125
15.5299999,-9.897629737854004,0.9457096457481384,0.8140285611152649,-6.866455078125,6.744384765625,3.90625
15.549999900000001,-9.885659217834473,0.9552865028381348,0.8092401623725891,-7.4615478515625,5.67626953125,4.4097900390625
15.569999900000001,-9.86650562286377,0.9528923034667969,0.790086567401886,-7.2784423828125,3.448486328125,4.82177734375
15.5899999,-9.852140426635742,0.9528923034667969,0.7637503147125244,-6.8511962890625,3.2806396484375,5.6610107421875
15.6099999,-9.84495735168457,0.9552865028381348,0.7350199222564697,-6.866455078125,5.126953125,6.8206787109375
15.629999900000001,-9.856928825378418,0.9696516990661621,0.7110779285430908,-6.988525390625,5.889892578125,6.744384765625
15.649999900000001,-9.885659217834473,0.9983820915222168,0.6967126727104187,-6.866455078125,5.3253173828125,5.096435546875
15.6699999,-9.928754806518555,1.0271124839782715,0.6775590777397156,-6.4849853515625,5.7830810546875,3.1280517578125
15.6899999,-9.955090522766113,1.0462661981582642,0.6488286852836609,-5.828857421875,5.7220458984375,1.983642578125
15.709999900000001,-9.952696800231934,1.0462661981582642,0.6105214357376099,-4.3487548828125,2.655029296875,1.3885498046875
15.729999900000001,-9.93354320526123,1.039083480834961,0.5770025849342346,-2.288818359375,0.0152587890625,1.556396484375
15.7499999,-9.919178009033203,1.0319008827209473,0.5315127968788147,-0.1983642578125,1.251220703125,3.1585693359375
15.7699999,-9.892841339111328,1.0462661981582642,0.5195417404174805,1.220703125,-0.0457763671875,4.486083984375
15.789999900000002,-9.883264541625977,1.072602391242981,0.5123591423034668,1.8157958984375,-1.9989013671875,4.1351318359375
15.809999900000001,-9.890447616577148,1.113303780555725,0.5339069962501526,2.6702880859375,-1.46484375,3.662109375
15.8299999,-9.911994934082031,1.1516109704971313,0.5674257874488831,2.7618408203125,-1.1138916015625,3.41796875
15.8499999,-9.947908401489258,1.1875240802764893,0.6129156351089478,2.349853515625,-0.7781982421875,2.960205078125
15.869999900000002,-10.010157585144043,1.2186486721038818,0.6584054827690125,1.9378662109375,-0.18310546875,2.0904541015625
15.889999900000001,-10.098742485046387,1.2473790645599365,0.689530074596405,1.1138916015625,0.823974609375,2.197265625
15.9099999,-10.20887565612793,1.278503656387329,0.7134721279144287,0.2593994140625,0.8697509765625,2.38037109375
15.9299999,-10.350133895874023,1.3048399686813354,0.7182605266571045,0.030517578125,1.678466796875,1.3885498046875
15.9499999,-10.517727851867676,1.335964560508728,0.7158663272857666,0.1068115234375,3.173828125,-0.3662109375
15.969999900000001,-10.690110206604004,1.37906014919281,0.7110779285430908,-0.0762939453125,4.5166015625,-2.44140625
15.9899999,-10.819397926330566,1.4101848602294922,0.7015010714530945,-0.30517578125,6.3629150390625,-4.4708251953125
16.0099999,-10.876858711242676,1.436521053314209,0.6727706789970398,-0.274658203125,6.89697265625,-6.3934326171875
16.0299999,-10.819397926330566,1.4413094520568848,0.6344634294509888,0.0152587890625,2.838134765625,-7.598876953125
16.0499999,-10.654197692871094,1.400607943534851,0.5770025849342346,0.396728515625,-3.9825439453125,-7.0648193359375
16.0699999,-10.41956615447998,1.3239935636520386,0.5267243981361389,1.6937255859375,-1.89208984375,-7.6904296875
16.089999900000002,-10.14902114868164,1.2258312702178955,0.5027823448181152,2.9754638671875,-3.387451171875,-7.4310302734375
16.109999900000002,-9.93593692779541,1.1180921792984009,0.5315127968788147,4.08935546875,-4.2266845703125,-5.035400390625
16.1299999,-9.782708168029785,1.0223240852355957,0.6105214357376099,4.8370361328125,-5.0506591796875,-3.631591796875
16.1499999,-9.696516990661621,0.9433154463768005,0.7134721279144287,5.523681640625,-1.251220703125,-2.960205078125
16.1699999,-9.715670585632324,0.9050082564353943,0.7972691655158997,6.40869140625,9.063720703125,-1.4190673828125
16.1899999,-9.797073364257812,0.9074024558067322,0.8331822156906128,6.2408447265625,13.3056640625,-1.9683837890625
16.2099999,-9.945513725280762,0.9409212470054626,0.8164227604866028,4.4708251953125,9.2010498046875,-5.3253173828125
16.2299999,-10.127472877502441,0.9888052940368652,0.7661445140838623,2.899169921875,3.0059814453125,-8.0108642578125
16.249999900000002,-10.280701637268066,1.0295066833496094,0.7134721279144287,2.4261474609375,-2.8076171875,-9.063720703125
16.269999900000002,-10.359710693359375,1.0438719987869263,0.667982280254364,3.35693359375,-5.8746337890625,-9.7808837890625
16.2899999,-10.350133895874023,1.0319008827209473,0.6368576288223267,5.31005859375,-4.913330078125,-9.8114013671875
16.3099999,-10.278307914733887,1.0079588890075684,0.6272808313369751,7.110595703125,-1.8310546875,-9.21630859375
16.3299999,-10.20887565612793,0.9911994934082031,0.6320692300796509,7.8887939453125,-0.823974609375,-8.4381103515625
16.3499999,-10.163386344909668,0.9840168952941895,0.6584054827690125,7.32421875,-3.1280517578125,-8.6212158203125
16.3699999,-10.170568466186523,0.9888052940368652,0.6991068720817566,6.561279296875,-4.4097900390625,-9.979248046875
16.3899999,-10.189722061157227,0.993593692779541,0.7493851184844971,6.072998046875,-2.8228759765625,-11.5966796875
16.4099999,-10.220847129821777,1.0031704902648926,0.7996633648872375,6.011962890625,1.068115234375,-12.9852294921875
16.429999900000002,-10.251971244812012,1.0031704902648926,0.8451532125473022,6.1187744140625,5.4473876953125,-14.5721435546875
16.4499999,-10.29746150970459,1.0031704902648926,0.8595184087753296,5.706787109375,7.6141357421875,-16.1590576171875
16.4699999,-10.32858657836914,0.9768342971801758,0.8547300100326538,4.94384765625,6.8817138671875,-17.8680419921875
16.4899999,-10.335768699645996,0.9241618514060974,0.8259995579719543,4.913330078125,6.439208984375,-19.073486328125
16.5099999,-10.316615104675293,0.8355764150619507,0.7781155705451965,6.0577392578125,8.941650390625,-19.5770263671875
16.5299999,-10.278307914733887,0.7182605266571045,0.7206547260284424,7.293701171875,10.6658935546875,-20.0042724609375
16.5499999,-10.249577522277832,0.5985504388809204,0.6631938815116882,7.598876953125,8.4381103515625,-20.0347900390625
16.5699999,-10.230423927307129,0.4620809257030487,0.6009446382522583,7.5836181640625,6.011962890625,-19.7906494140625
16.589999900000002,-10.225635528564453,0.33758243918418884,0.5506663918495178,7.7667236328125,4.638671875,-19.805908203125
16.609999900000002,-10.24239444732666,0.21308395266532898,0.5027823448181152,7.7972412109375,3.5552978515625,-20.69091796875
16.6299999,-10.271124839782715,0.10534487664699554,0.47644615173339844,7.843017578125,1.9378662109375,-23.5748291015625
16.6499999,-10.314221382141113,0.028730420395731926,0.4596867263317108,8.2244873046875,1.7242431640625,-28.533935546875
16.6699999,-10.335768699645996,-0.038307227194309235,0.45010992884635925,8.392333984375,3.4027099609375,-33.2183837890625
16.6899999,-10.326191902160645,-0.10773907601833344,0.45489832758903503,7.99560546875,4.8065185546875,-35.15625
16.7099999,-10.29746150970459,-0.20350714027881622,0.45010992884635925,7.080078125,6.0882568359375,-34.9884033203125
16.7299999,-10.249577522277832,-0.3280056416988373,0.43335050344467163,6.5460205078125,6.3934326171875,-37.3992919921875
16.749999900000002,-10.189722061157227,-0.47165772318840027,0.3902548849582672,6.8817138671875,6.9122314453125,-43.0145263671875
16.769999900000002,-10.113107681274414,-0.6368576288223267,0.31842881441116333,8.11767578125,8.30078125,-48.614501953125
16.7899999,-10.02691650390625,-0.811634361743927,0.22266076505184174,9.7808837890625,8.636474609375,-52.398681640625
16.8099999,-9.923966407775879,-1.0055646896362305,0.1173158809542656,12.14599609375,8.5906982421875,-56.3507080078125
16.8299999,-9.804255485534668,-1.2210428714752197,0.009576806798577309,15.7623291015625,11.016845703125,-61.004638671875
16.8499999,-9.674968719482422,-1.4413094520568848,-0.08140286058187485,20.5078125,15.3045654296875,-66.0247802734375
16.8699999,-9.516951560974121,-1.659181833267212,-0.16519992053508759,25.08544921875,17.791748046875,-71.9757080078125
16.8899999,-9.339780807495117,-1.889025092124939,-0.2322375625371933,28.7628173828125,16.448974609375,-78.2318115234375
16.9099999,-9.181763648986816,-2.1045033931732178,-0.272938996553421,32.2265625,17.2271728515625,-82.3516845703125
16.929999900000002,-9.05247688293457,-2.3343467712402344,-0.31124621629714966,35.8428955078125,21.4385986328125,-83.80126953125
16.9499999,-8.932766914367676,-2.6024973392486572,-0.33758243918418884,38.39111328125,19.8211669921875,-82.5347900390625
16.9699999,-8.83939266204834,-2.892195701599121,-0.3447650372982025,39.6575927734375,13.763427734375,-80.4443359375
16.9899999,-8.769960403442383,-3.1962592601776123,-0.33997663855552673,40.6341552734375,12.115478515625,-78.5675048828125
17.0099999,-8.719682693481445,-3.5170822143554688,-0.28969839215278625,41.107177734375,12.1002197265625,-77.1636962890625
17.0299999,-8.710105895996094,-3.7900211811065674,-0.20111294090747833,40.1611328125,8.4686279296875,-78.0181884765625
17.0499999,-8.722076416015625,-4.0078935623168945,-0.090979665517807,38.177490234375,2.7923583984375,-84.8846435546875
17.0699999,-8.738836288452148,-4.185064792633057,0.031124621629714966,36.2396240234375,1.800537109375,-94.6807861328125
17.089999900000002,-8.683769226074219,-4.364629745483398,0.14365209639072418,33.5540771484375,5.615234375,-101.226806640625
17.109999900000002,-8.556877136230469,-4.558559894561768,0.26096799969673157,29.876708984375,9.6893310546875,-105.5145263671875
17.1299999,-8.394071578979492,-4.838681697845459,0.3687070608139038,26.580810546875,16.1285400390625,-110.2447509765625
17.1499999,-8.209717750549316,-5.20978307723999,0.42616790533065796,23.7884521484375,21.5301513671875,-112.6861572265625
17.1699999,-8.063671112060547,-5.5976433753967285,0.4429273009300232,21.270751953125,19.4854736328125,-113.555908203125
17.1899999,-7.989450931549072,-5.961562156677246,0.40462008118629456,19.8211669921875,17.181396484375,-116.0125732421875
17.2099999,-7.90086555480957,-6.3518171310424805,0.31603461503982544,19.5159912109375,14.9078369140625,-116.851806640625
17.2299999,-7.773972988128662,-6.708553314208984,0.24420857429504395,18.9971923828125,5.1422119140625,-112.9608154296875
17.249999900000002,-7.556100368499756,-7.0317702293396,0.19871874153614044,18.4173583984375,-6.8511962890625,-107.5286865234375
17.269999900000002,-7.264008045196533,-7.326257228851318,0.22266076505184174,17.9901123046875,-15.0146484375,-103.546142578125
17.2899999,-6.933608055114746,-7.515398979187012,0.31364041566848755,16.0980224609375,-21.17919921875,-98.93798828125
17.3099999,-6.631938934326172,-7.625532627105713,0.45250412821769714,12.481689453125,-26.2603759765625,-93.9178466796875
17.3299999,-6.3973069190979,-7.68538761138916,0.6177040338516235,8.9111328125,-29.4036865234375,-91.0797119140625
17.3499999,-6.232107162475586,-7.745242595672607,0.8068459630012512,4.974365234375,-28.25927734375,-90.39306640625
17.3699999,-6.155492782592773,-7.802703380584717,0.9816226959228516,-0.732421875,-21.6217041015625,-88.80615234375
17.3899999,-6.124367713928223,-7.843404769897461,1.1492167711257935,-6.7291259765625,-15.0299072265625,-87.2650146484375
17.409999900000003,-6.110002517700195,-7.869740962982178,1.2952631711959839,-11.3525390625,-7.4310302734375,-89.996337890625
17.429999900000002,-6.090848922729492,-7.8745293617248535,1.3742717504501343,-15.93017578125,1.46484375,-96.00830078125
17.4499999,-6.0190229415893555,-7.881711959838867,1.381454348564148,-21.6827392578125,3.997802734375,-100.921630859375
17.4699999,-5.872976779937744,-7.955932140350342,1.335964560508728,-27.2674560546875,0.5645751953125,-104.1717529296875
17.4899999,-5.688623428344727,-8.135497093200684,1.213860273361206,-31.829833984375,0.732421875,-105.6671142578125
17.5099999,-5.439626216888428,-8.401253700256348,1.072602391242981,-35.2935791015625,2.50244140625,-105.682373046875
17.5299999,-5.142745018005371,-8.741230010986328,0.9145850539207458,-38.0859375,6.3018798828125,-106.3995361328125
17.5499999,-4.817133903503418,-9.100360870361328,0.7445967197418213,-38.848876953125,12.7410888671875,-108.33740234375
17.5699999,-4.46518611907959,-9.428366661071777,0.5674257874488831,-37.4908447265625,18.61572265625,-110.5804443359375
17.589999900000002,-4.089296340942383,-9.696516990661621,0.3663128614425659,-34.8968505859375,23.9410400390625,-112.335205078125
17.609999900000002,-3.6727054119110107,-9.892841339111328,0.1412578970193863,-29.72412109375,28.74755859375,-114.4866943359375
17.6299999,-3.222595453262329,-10.029311180114746,-0.090979665517807,-21.9268798828125,31.8603515625,-116.39404296875
17.6499999,-2.6647465229034424,-10.101137161254883,-0.28969839215278625,-13.3056640625,32.318115234375,-116.8365478515625
17.6699999,-2.0374655723571777,-10.110713958740234,-0.42377370595932007,-5.7525634765625,33.4625244140625,-116.0430908203125
17.6899999,-1.3431471586227417,-10.0580415725708,-0.4644751250743866,0.1068115234375,36.8499755859375,-114.3341064453125
17.7099999,-0.6775590777397156,-9.967061996459961,-0.40940847992897034,4.486083984375,42.7093505859375,-111.4654541015625
17.7299999,-0.0933738648891449,-9.856928825378418,-0.28730419278144836,7.1868896484375,52.1240234375,-108.6578369140625
17.749999900000002,0.3711012601852417,-9.773131370544434,-0.14844051003456116,8.4381103515625,62.1185302734375,-107.8643798828125
17.769999900000002,0.7182605266571045,-9.708487510681152,-0.043095629662275314,9.2620849609375,65.7196044921875,-108.0780029296875
17.7899999,1.039083480834961,-9.66299819946289,0.033518824726343155,10.3759765625,59.661865234375,-107.60498046875
17.8099999,1.403002142906189,-9.622296333312988,0.09576806426048279,10.345458984375,50.96435546875,-105.0567626953125
17.8299999,1.8076223134994507,-9.59835433959961,0.19871874153614044,7.38525390625,47.1954345703125,-99.395751953125
17.8499999,2.2170307636260986,-9.586383819580078,0.3208230137825012,1.89208984375,47.454833984375,-92.315673828125
17.8699999,2.58813214302063,-9.569623947143555,0.45010992884635925,-3.8299560546875,40.9088134765625,-84.89990234375
17.8899999,2.911349296569824,-9.555258750915527,0.5722141861915588,-10.009765625,28.6712646484375,-77.0721435546875
17.909999900000003,3.2154128551483154,-9.490615844726562,0.667982280254364,-17.3187255859375,23.651123046875,-68.7408447265625
17.929999900000002,3.5003228187561035,-9.406818389892578,0.7326257228851318,-24.4293212890625,25.909423828125,-60.333251953125
17.9499999,3.713406801223755,-9.318233489990234,0.7398083209991455,-29.4036865234375,25.9246826171875,-52.337646484375
17.9699999,3.840299606323242,-9.246406555175781,0.6775590777397156,-30.6549072265625,22.88818359375,-46.722412109375
17.9899999,3.864241600036621,-9.20091724395752,0.5506663918495178,-29.72412109375,24.10888671875,-44.5709228515625
18.0099999,3.861847400665283,-9.160215377807617,0.42377370595932007,-28.8543701171875,28.472900390625,-44.8455810546875
18.0299999,3.9025487899780273,-9.119514465332031,0.3423708379268646,-28.3355712890625,32.9437255859375,-44.4488525390625
18.0499999,3.9600095748901367,-9.07641887664795,0.2849099934101105,-27.557373046875,34.8968505859375,-40.6646728515625
18.0699999,4.031835556030273,-9.045293807983398,0.24420857429504395,-26.85546875,28.289794921875,-33.5235595703125
18.089999900000002,4.110844135284424,-9.009381294250488,0.19871874153614044,-27.2369384765625,15.167236328125,-25.1312255859375
18.109999900000002,4.185064792633057,-8.978256225585938,0.1628057211637497,-28.6712646484375,2.5482177734375,-15.6707763671875
18.1299999,4.28322696685791,-8.913613319396973,0.15801730751991272,-30.853271484375,-5.79833984375,-5.1116943359375
18.1499999,4.359841346740723,-8.813055992126465,0.16998831927776337,-33.721923828125,-7.965087890625,2.6702880859375
18.1699999,4.383783340454102,-8.71728801727295,0.16998831927776337,-35.4156494140625,-6.591796875,4.852294921875
18.1899999,4.304774761199951,-8.62630844116211,0.1173158809542656,-35.369873046875,-3.3721923828125,1.9378662109375
18.2099999,4.137180328369141,-8.583212852478027,-0.014365210197865963,-34.149169921875,1.861572265625,-6.134033203125
18.2299999,3.9264907836914062,-8.619126319885254,-0.2106897532939911,-32.1044921875,6.8511962890625,-16.78466796875
18.249999900000002,3.7708675861358643,-8.71728801727295,-0.4405331015586853,-29.23583984375,12.420654296875,-25.360107421875
18.269999900000002,3.7445313930511475,-8.853757858276367,-0.6751648783683777,-26.18408203125,20.4925537109375,-30.029296875
18.2899999,3.861847400665283,-8.956708908081055,-0.8738836050033569,-23.62060546875,27.8778076171875,-31.829833984375
18.3099999,4.120420932769775,-8.978256225585938,-1.0342950820922852,-21.575927734375,32.6385498046875,-32.4249267578125
18.3299999,4.4508209228515625,-8.87051773071289,-1.1779472827911377,-18.3868408203125,36.6058349609375,-32.4554443359375
18.3499999,4.829104900360107,-8.655038833618164,-1.335964560508728,-11.5814208984375,38.330078125,-33.4930419921875
18.3699999,5.200206279754639,-8.403648376464844,-1.5131354331970215,-2.685546875,31.92138671875,-33.75244140625
18.3899999,5.518634796142578,-8.159439086914062,-1.6879122257232666,4.7149658203125,17.7459716796875,-28.778076171875
18.409999900000003,5.7987565994262695,-7.960720539093018,-1.7884687185287476,8.1024169921875,4.9285888671875,-18.646240234375
18.429999900000002,5.999869346618652,-7.795520782470703,-1.7812861204147339,7.110595703125,5.2947998046875,-7.7362060546875
18.4499999,6.114790916442871,-7.6351094245910645,-1.678335428237915,3.3721923828125,15.7012939453125,0.8697509765625
18.4699999,6.121973514556885,-7.46033239364624,-1.558625340461731,-1.0528564453125,23.712158203125,5.8746337890625
18.4899999,5.9974751472473145,-7.261613845825195,-1.50355863571167,-4.45556640625,20.721435546875,6.2255859375
18.5099999,5.808333396911621,-7.079654216766357,-1.4963760375976562,-6.7901611328125,9.1400146484375,2.2430419921875
18.5299999,5.525817394256592,-6.864176273345947,-1.5155296325683594,-13.397216796875,4.058837890625,-1.3580322265625
18.5499999,5.530605792999268,-6.864176273345947,-1.4508862495422363,-20.6298828125,4.21142578125,0.0152587890625
18.5699999,5.621585369110107,-6.92881965637207,-1.3766659498214722,-28.4576416015625,5.43212890625,0.732421875
18.589999900000002,5.726930618286133,-7.029376029968262,-1.3287819623947144,-34.0423583984375,10.07080078125,0.9307861328125
18.609999900000002,5.841852188110352,-7.141903877258301,-1.338358759880066,-37.261962890625,14.9688720703125,1.3427734375
18.6299999,5.913678169250488,-7.280767440795898,-1.4221558570861816,-38.665771484375,18.218994140625,2.1820068359375
18.6499999,5.9304375648498535,-7.429207801818848,-1.577778935432434,-37.8570556640625,19.2108154296875,2.9296875
18.6699999,5.901707172393799,-7.577648162841797,-1.7860745191574097,-34.6832275390625,18.9056396484375,2.5634765625
18.6899999,5.817910194396973,-7.716512203216553,-2.011129379272461,-29.0374755859375,18.1732177734375,1.4190673828125
18.7099999,5.717353820800781,-7.833827972412109,-2.2242133617401123,-21.8048095703125,17.8985595703125,0.1373291015625
18.7299999,5.5976433753967285,-7.903259754180908,-2.382230758666992,-14.251708984375,16.4337158203125,-2.0751953125
18.749999900000002,5.51624059677124,-7.9176249504089355,-2.4444799423217773,-7.415771484375,15.31982421875,-5.8135986328125
18.769999900000002,5.489904403686523,-7.876923561096191,-2.4181437492370605,-1.9989013671875,18.218994140625,-9.27734375
18.7899999,5.535394191741943,-7.797914981842041,-2.300827741622925,0.7781982421875,19.4854736328125,-9.6435546875
18.8099999,5.640739440917969,-7.723694801330566,-2.1140801906585693,1.007080078125,16.1895751953125,-7.1563720703125
18.8299999,5.7556610107421875,-7.666234016418457,-1.889025092124939,-0.9918212890625,13.275146484375,-3.7384033203125
18.8499999,5.841852188110352,-7.620744228363037,-1.644816517829895,-5.5999755859375,12.9241943359375,-1.1444091796875
18.8699999,5.889736175537109,-7.565677165985107,-1.4197616577148438,-12.3443603515625,14.09912109375,-0.0762939453125
18.8899999,5.875370979309082,-7.493851184844971,-1.2761094570159912,-18.5546875,13.6871337890625,-0.48828125
18.909999900000003,5.837063789367676,-7.407660007476807,-1.2306196689605713,-22.3388671875,8.544921875,-1.739501953125
18.929999900000002,5.796362400054932,-7.347805023193359,-1.3048399686813354,-23.8037109375,2.25830078125,-2.532958984375
18.9499999,5.774814605712891,-7.331045627593994,-1.4508862495422363,-24.3988037109375,-2.0751953125,-1.251220703125
18.9699999,5.801150798797607,-7.343016624450684,-1.625662922859192,-24.7955322265625,-1.6632080078125,1.5411376953125
18.9899999,5.8657941818237305,-7.359776020050049,-1.7812861204147339,-23.6968994140625,2.7923583984375,3.143310546875
19.0099999,5.940014362335205,-7.352593421936035,-1.9345149993896484,-21.484375,6.89697265625,3.3416748046875
19.0299999,6.01423454284668,-7.307103633880615,-2.0614075660705566,-18.3563232421875,1.46484375,5.1116943359375
19.0499999,6.081272125244141,-7.240066051483154,-2.1499931812286377,-15.3350830078125,-9.9639892578125,9.1705322265625
19.0699999,6.155492782592773,-7.168240070343018,-2.1787235736846924,-13.7481689453125,-14.6636962890625,13.6566162109375
19.089999900000002,6.208165168762207,-7.122750282287598,-2.161964178085327,-14.09912109375,-10.9710693359375,17.8375244140625
19.109999900000002,6.244078159332275,-7.101202011108398,-2.118868589401245,-14.312744140625,-6.378173828125,20.93505859375
19.1299999,6.208165168762207,-7.1251444816589355,-2.123656988143921,-12.054443359375,-2.777099609375,21.42333984375
19.1499999,6.112396717071533,-7.19936466217041,-2.185906171798706,-6.89697265625,-0.1068115234375,19.0277099609375
19.1699999,5.949591159820557,-7.3238630294799805,-2.315192937850952,0,1.617431640625,15.594482421875
19.1899999,5.78678560256958,-7.474697589874268,-2.4444799423217773,7.50732421875,-0.1373291015625,12.75634765625
19.2099999,5.671864032745361,-7.620744228363037,-2.52109432220459,13.8397216796875,-0.2899169921875,10.4522705078125
19.2299999,5.6455278396606445,-7.711723804473877,-2.499546527862549,17.5018310546875,5.2490234375,10.1470947265625
19.249999900000002,5.688623428344727,-7.735665798187256,-2.3942017555236816,18.951416015625,12.14599609375,12.5274658203125
19.269999900000002,5.74129581451416,-7.671022415161133,-2.2601263523101807,20.2484130859375,15.5487060546875,15.594482421875
19.2899999,5.774814605712891,-7.5201873779296875,-2.142810583114624,22.857666015625,13.9007568359375,16.0980224609375
19.3099999,5.779603004455566,-7.311892032623291,-2.073378562927246,24.71923828125,10.80322265625,13.7176513671875
19.3299999,5.7772088050842285,-7.096413612365723,-2.049436569213867,25.57373046875,8.2244873046875,13.5040283203125
19.3499999,5.796362400054932,-6.936002254486084,-2.049436569213867,26.1688232421875,5.035400390625,18.0206298828125
19.3699999,5.829881191253662,-6.871358871459961,-2.0470423698425293,27.1453857421875,2.197265625,25.7415771484375
19.3899999,5.849034786224365,-6.907271862030029,-2.027888774871826,27.2369384765625,-0.3204345703125,34.60693359375
19.409999900000003,5.810727596282959,-7.010222434997559,-1.9943699836730957,26.0772705078125,-3.9520263671875,43.8995361328125
19.429999900000002,5.7341132164001465,-7.1251444816589355,-1.9177556037902832,24.9481201171875,-9.0789794921875,51.7578125
19.4499999,5.5976433753967285,-7.261613845825195,-1.8076223134994507,24.96337890625,-12.02392578125,56.640625
19.4699999,5.47075080871582,-7.395689010620117,-1.6543933153152466,25.665283203125,-11.810302734375,60.3485107421875
19.4899999,5.2672438621521,-7.575253963470459,-1.5298948287963867,25.8636474609375,-13.885498046875,66.070556640625
19.5099999,5.032611846923828,-7.7643961906433105,-1.3982137441635132,26.8402099609375,-22.03369140625,71.8536376953125
19.5299999,4.733336925506592,-7.936778545379639,-1.316810965538025,30.9600830078125,-25.0244140625,71.5179443359375
19.5499999,4.441244125366211,-8.037335395812988,-1.2306196689605713,36.3006591796875,-24.2919921875,65.9637451171875
19.5699999,4.271255970001221,-8.090007781982422,-1.0749965906143188,40.8477783203125,-24.0325927734375,62.9730224609375
19.589999900000002,4.134786128997803,-8.123526573181152,-0.8786720037460327,42.8619384765625,-22.308349609375,70.8160400390625
19.609999900000002,4.041412353515625,-8.128314971923828,-0.6153098344802856,42.2515869140625,-21.78955078125,85.0830078125
19.6299999,3.8714241981506348,-8.106766700744629,-0.3495534360408783,41.8853759765625,-22.1405029296875,93.719482421875
19.6499999,3.5721490383148193,-8.085219383239746,-0.13407529890537262,43.5028076171875,-29.7698974609375,96.8170166015625
19.6699999,3.064578056335449,-8.070854187011719,0.038307227194309235,45.196533203125,-47.9583740234375,104.06494140625
19.6899999,2.456450939178467,-8.078036308288574,0.19393034279346466,45.5169677734375,-60.6842041015625,112.640380859375
19.7099999,1.7381904125213623,-8.123526573181152,0.31842881441116333,46.38671875,-58.04443359375,112.7777099609375
19.7299999,1.0606313943862915,-8.248024940490723,0.5123591423034668,49.62158203125,-53.7109375,108.94775390625
19.749999900000002,0.33039984107017517,-8.44434928894043,0.7230489253997803,52.6123046875,-47.1649169921875,116.1651611328125
19.769999900000002,-0.47405192255973816,-8.71489429473877,1.01753568649292,52.7496337890625,-41.8548583984375,128.47900390625
19.7899999,-1.434126853942871,-8.98543930053711,1.359906554222107,48.8739013671875,-40.985107421875,126.7547607421875
19.8099999,-2.4660277366638184,-9.167398452758789,1.7405846118927002,41.1224365234375,-47.8363037109375,112.36572265625
19.8299999,-3.359065055847168,-9.277531623840332,2.0805611610412598,30.82275390625,-60.1654052734375,104.1259765625
19.8499999,-3.931279182434082,-9.39245319366455,2.403778553009033,20.904541015625,-66.650390625,111.297607421875
19.8699999,-4.129997730255127,-9.528923034667969,2.674323320388794,12.9241943359375,-53.436279296875,128.2196044921875
19.8899999,-4.036623954772949,-9.62947940826416,2.8778305053710938,3.204345703125,-33.0810546875,148.681640625
19.909999900000003,-3.974374771118164,-9.62947940826416,2.9472622871398926,-8.3465576171875,-30.6396484375,170.5169677734375
19.929999900000002,-4.108449935913086,-9.425971984863281,2.853888511657715,-16.78466796875,-46.3409423828125,188.720703125
19.9499999,-4.489128112792969,-9.050082206726074,2.6647465229034424,-17.88330078125,-59.1278076171875,192.8253173828125
19.9699999,-4.953603267669678,-8.482656478881836,2.4875755310058594,-16.876220703125,-56.0302734375,186.6912841796875
19.9899999,-5.305551052093506,-7.905653953552246,2.3942017555236816,-21.331787109375,-47.607421875,187.68310546875
20.0099999,-5.571307182312012,-7.321468830108643,2.3750481605529785,-30.82275390625,-49.5758056640625,202.9876708984375
20.0299999,-5.861005783081055,-6.847416877746582,2.367865562438965,-38.116455078125,-57.12890625,216.9647216796875
20.0499999,-6.3302693367004395,-6.406883716583252,2.3582887649536133,-39.0472412109375,-61.370849609375,219.4366455078125
20.0699999,-6.98628044128418,-5.987898349761963,2.3367409706115723,-39.2913818359375,-62.7288818359375,218.048095703125
