# Time (seconds),Accel_X,Accel_Y,Accel_Z,Gyro_X,Gyro_Y,Gyro_Z
0.0099999,-6.234501361846924,-7.433996200561523,1.2976573705673218,9.33837890625,-0.1983642578125,51.9256591796875
0.029999900000000003,-6.574477672576904,-7.292738437652588,1.41257905960083,5.706787109375,0.8697509765625,48.15673828125
0.0499999,-6.871358871459961,-7.1921820640563965,1.5155296325683594,3.448486328125,-3.1890869140625,46.0052490234375
0.0699999,-7.067683219909668,-7.122750282287598,1.5921441316604614,2.1514892578125,-7.4920654296875,42.8924560546875
0.08999990000000001,-7.141903877258301,-7.074865818023682,1.6519991159439087,-1.0223388671875,-3.692626953125,40.9393310546875
0.10999990000000001,-7.127538681030273,-7.038952827453613,1.6903064250946045,-5.8441162109375,4.8980712890625,41.9921875
0.1299999,-7.110779285430908,-7.000645637512207,1.6927006244659424,-9.033203125,8.4991455078125,42.5872802734375
0.14999990000000002,-7.129932880401611,-6.964732646942139,1.656787633895874,-9.1705322265625,6.9580078125,40.2679443359375
0.1699999,-7.206547260284424,-6.900089263916016,1.5849615335464478,-8.72802734375,7.781982421875,37.017822265625
0.1899999,-7.309497833251953,-6.842628479003906,1.4987702369689941,-8.5601806640625,11.016845703125,36.0107421875
0.20999990000000002,-7.395689010620117,-6.766014099121094,1.4101848602294922,-6.9122314453125,9.1552734375,36.3616943359375
0.2299999,-7.386112213134766,-6.698976516723633,1.3646949529647827,-4.9896240234375,5.096435546875,36.0565185546875
0.2499999,-7.359776020050049,-6.596025466918945,1.3215993642807007,-6.9580078125,13.97705078125,37.7197265625
0.2699999,-7.297526836395264,-6.476315498352051,1.3024457693099976,-9.5062255859375,24.8870849609375,41.7938232421875
0.28999990000000003,-7.314286231994629,-6.337451934814453,1.256955862045288,-9.185791015625,24.10888671875,45.7305908203125
0.3099999,-7.453149795532227,-6.203376770019531,1.1827356815338135,-6.378173828125,16.448974609375,47.088623046875
0.3299999,-7.735665798187256,-6.081272125244141,1.0821791887283325,-3.5247802734375,9.94873046875,45.4559326171875
0.34999990000000003,-8.08043098449707,-5.963956356048584,1.0007762908935547,-1.861572265625,4.7607421875,42.0989990234375
0.3699999,-8.425195693969727,-5.846640586853027,0.950498104095459,-0.7171630859375,-1.9989013671875,36.712646484375
0.3899999,-8.686163902282715,-5.743690013885498,0.9720458984375,-0.1068115234375,-7.965087890625,30.120849609375
0.40999990000000003,-8.856152534484863,-5.669469833374023,1.048660397529602,-2.0751953125,-8.0413818359375,24.017333984375
0.4299999,-8.949525833129883,-5.614402770996094,1.158793568611145,-6.2255859375,-4.0740966796875,18.1884765625
0.4499999,-8.975862503051758,-5.57370138168335,1.2761094570159912,-9.5367431640625,-1.129150390625,12.0391845703125
0.4699999,-8.932766914367676,-5.530605792999268,1.3862427473068237,-11.322021484375,-0.7171630859375,8.1329345703125
0.4899999,-8.803479194641113,-5.489904403686523,1.455674648284912,-13.2598876953125,-1.251220703125,8.0413818359375
0.5099999,-8.607154846191406,-5.420472621917725,1.4963760375976562,-16.143798828125,0.091552734375,9.58251953125
0.5299999,-8.38449478149414,-5.34625244140625,1.482010841369629,-18.9208984375,7.3699951171875,9.765625
0.5499999,-8.166622161865234,-5.264849662780762,1.4245500564575195,-19.775390625,11.8255615234375,11.3983154296875
0.5699999,-8.04691219329834,-5.197812080383301,1.3000515699386597,-19.8974609375,9.4146728515625,15.899658203125
0.5899998999999999,-8.01339340209961,-5.135562419891357,1.1324573755264282,-18.4783935546875,3.6163330078125,19.683837890625
0.6099998999999999,-8.056488990783691,-5.092466831207275,0.950498104095459,-16.0980224609375,0.0762939453125,19.805908203125
0.6299999,-8.161833763122559,-5.0469770431518555,0.7589619159698486,-14.6636962890625,0.9918212890625,17.852783203125
0.6499999,-8.26239013671875,-5.006275653839111,0.6105214357376099,-12.6190185546875,-0.1983642578125,16.2506103515625
0.6699999,-8.362946510314941,-4.977545261383057,0.507570743560791,-11.1236572265625,-1.190185546875,14.923095703125
0.6899999,-8.494627952575684,-4.946420669555664,0.47405192255973816,-9.6282958984375,-0.3509521484375,13.5040283203125
0.7099999,-8.662221908569336,-4.93923807144165,0.5003881454467773,-8.209228515625,-3.753662109375,12.1002197265625
0.7299998999999999,-8.89445972442627,-4.927267074584961,0.5578489899635315,-7.293701171875,-11.53564453125,11.260986328125
0.7499998999999999,-9.10993766784668,-4.90571928024292,0.6344634294509888,-5.79833984375,-18.9971923828125,10.5743408203125
0.7699999,-9.265560150146484,-4.876988887786865,0.7086837291717529,-4.7760009765625,-21.942138671875,10.1165771484375
0.7899999,-9.32541561126709,-4.821922302246094,0.7541735172271729,-4.6844482421875,-20.7977294921875,10.589599609375
0.8099999,-9.272743225097656,-4.738125324249268,0.7948749661445618,-4.57763671875,-21.728515625,12.115478515625
0.8299999,-9.157821655273438,-4.627991676330566,0.8068459630012512,-6.7901611328125,-20.4010009765625,13.5345458984375
0.8499998999999999,-9.028534889221191,-4.508281707763672,0.7924807667732239,-10.101318359375,-14.678955078125,14.5721435546875
0.8699998999999999,-8.901641845703125,-4.388571739196777,0.7541735172271729,-11.322021484375,-13.12255859375,16.693115234375
0.8899999,-8.803479194641113,-4.280832767486572,0.7038952708244324,-11.0626220703125,-14.9078369140625,19.0582275390625
0.9099999,-8.734047889709473,-4.216189384460449,0.6536170840263367,-10.8795166015625,-12.6953125,20.1873779296875
0.9299999,-8.683769226074219,-4.197035789489746,0.6272808313369751,-9.613037109375,-8.7890625,20.6298828125
0.9499999,-8.688557624816895,-4.197035789489746,0.6057330369949341,-7.0953369140625,-6.317138671875,20.599365234375
0.9699998999999999,-8.722076416015625,-4.199429988861084,0.6009446382522583,-3.0517578125,-4.8065185546875,18.98193359375
0.9899998999999999,-8.767566680908203,-4.1874589920043945,0.6129156351089478,0.4425048828125,-1.1444091796875,17.364501953125
1.0099999,-8.832210540771484,-4.151545524597168,0.646434485912323,2.197265625,4.1046142578125,17.2882080078125
1.0299999,-8.880094528198242,-4.098873138427734,0.6991068720817566,4.0740966796875,5.035400390625,17.8680419921875
1.0499999,-8.923190116882324,-4.02465295791626,0.7661445140838623,5.615234375,1.922607421875,18.12744140625
1.0699999,-8.951920509338379,-3.9408559799194336,0.8355764150619507,5.767822265625,1.9989013671875,18.463134765625
1.0899999,-8.975862503051758,-3.840299606323242,0.9074024558067322,4.638671875,4.4403076171875,19.6075439453125
1.1099999,-8.992621421813965,-3.7205893993377686,0.9720458984375,2.532958984375,6.4697265625,19.7601318359375
1.1299999,-9.062053680419922,-3.6367924213409424,1.0271124839782715,-0.0762939453125,9.4451904296875,18.4326171875
1.1499999,-9.452308654785156,-3.641580820083618,1.1204863786697388,-0.274658203125,6.4544677734375,16.0369873046875
1.1699998999999999,-9.694122314453125,-3.6176388263702393,1.1563993692398071,0,-3.6468505859375,5.06591796875
1.1899998999999999,-10.127472877502441,-3.6846764087677,1.1971008777618408,-1.434326171875,-2.197265625,8.697509765625
1.2099999,-10.14902114868164,-3.6320040225982666,1.1683704853057861,-0.3509521484375,-0.396728515625,10.8489990234375
1.2299999,-9.979032516479492,-3.5697548389434814,1.0989385843276978,1.251220703125,0.1068115234375,8.0718994140625
1.2499999,-9.641449928283691,-3.488351821899414,1.039083480834961,1.4495849609375,-0.2288818359375,6.103515625
1.2699999,-9.339780807495117,-3.442862033843994,1.0079588890075684,0.3509521484375,-1.15966796875,6.4849853515625
1.2899999,-9.155426979064941,-3.5003228187561035,1.036689281463623,-2.6397705078125,-1.1749267578125,8.056640625
1.3099999,-9.11233139038086,-3.576937437057495,1.0869675874710083,-6.5765380859375,-0.1678466796875,11.3525390625
1.3299999,-9.165003776550293,-3.7181951999664307,1.161187767982483,-7.904052734375,-0.1373291015625,13.275146484375
1.3499999,-9.169792175292969,-3.801992416381836,1.2306196689605713,-6.5460205078125,-2.0599365234375,8.9263916015625
1.3699999,-9.167398452758789,-3.84269380569458,1.2976573705673218,-5.5389404296875,-1.8310546875,5.5999755859375
1.3899999,-9.136273384094238,-3.8307228088378906,1.3623007535934448,-5.31005859375,0.762939453125,5.340576171875
1.4099999,-9.097966194152832,-3.7421371936798096,1.4077905416488647,-6.2255859375,2.2735595703125,3.570556640625
1.4299998999999999,-9.160215377807617,-3.576937437057495,1.4221558570861816,-9.3841552734375,6.04248046875,5.3863525390625
1.4499999,-9.279925346374512,-3.3470940589904785,1.3646949529647827,-13.4124755859375,11.0931396484375,12.1917724609375
1.4699999,-9.461885452270508,-3.117250680923462,1.2066776752471924,-16.2200927734375,11.871337890625,19.9432373046875
1.4899999,-9.579200744628906,-2.851494312286377,0.9528923034667969,-17.02880859375,9.2315673828125,18.4783935546875
1.5099999,-9.703699111938477,-2.695871114730835,0.6584054827690125,-14.8773193359375,5.6915283203125,15.3045654296875
1.5299999,-9.713275909423828,-2.58813214302063,0.3758896589279175,-11.3983154296875,3.2806396484375,10.2996826171875
1.5499999,-9.737217903137207,-2.583343744277954,0.19153612852096558,-8.0718994140625,2.4261474609375,5.828857421875
1.5699999,-9.718064308166504,-2.6671407222747803,0.11252748221158981,-4.9285888671875,-0.9307861328125,4.0740966796875
1.5899999,-9.68933391571045,-2.7748796939849854,0.1149216815829277,-3.7689208984375,-2.655029296875,3.509521484375
1.6099999,-9.619902610778809,-2.894589900970459,0.17477671802043915,-3.204345703125,1.2054443359375,4.3182373046875
1.6299999,-9.583989143371582,-2.985569477081299,0.2561795711517334,-1.434326171875,7.1258544921875,4.6844482421875
1.6499999,-9.57441234588623,-3.0550012588500977,0.33279404044151306,2.105712890625,5.889892578125,3.3416748046875
1.6699999,-9.526528358459473,-3.090914487838745,0.40462008118629456,6.16455078125,-3.4942626953125,1.46484375
1.6899998999999999,-9.485827445983887,-3.0861260890960693,0.42616790533065796,5.126953125,3.60107421875,2.655029296875
1.7099999,-9.44991397857666,-3.0382418632507324,0.44532153010368347,5.3253173828125,17.0745849609375,5.9967041015625
1.7299999,-9.430760383605957,-2.959233283996582,0.4381389021873474,8.514404296875,12.237548828125,5.4473876953125
1.7499999,-9.524134635925293,-2.8993782997131348,0.45010992884635925,9.9945068359375,1.64794921875,4.5623779296875
1.7699999,-9.648633003234863,-2.8826189041137695,0.47165772318840027,10.6964111328125,-0.3204345703125,5.9051513671875
1.7899999,-9.725247383117676,-2.8778305053710938,0.48602294921875,10.894775390625,4.3792724609375,8.0413818359375
1.8099999,-9.75637149810791,-2.87064790725708,0.4644751250743866,8.8958740234375,13.0462646484375,8.72802734375
1.8299999,-9.77791976928711,-2.8371291160583496,0.40940847992897034,7.4920654296875,20.0653076171875,5.2490234375
1.8499999,-9.77791976928711,-2.786850690841675,0.31364041566848755,8.4075927734375,18.341064453125,0.274658203125
1.8699999,-9.775525093078613,-2.7317841053009033,0.2298433631658554,9.307861328125,12.4053955078125,-1.3275146484375
1.8899999,-9.739612579345703,-2.7078421115875244,0.19393034279346466,9.8876953125,9.9639892578125,0.48828125
1.9099999,-9.674968719482422,-2.7006595134735107,0.2322375625371933,9.9029541015625,10.4827880859375,3.3721923828125
1.9299998999999999,-9.607931137084961,-2.7126305103302,0.3471592366695404,8.7738037109375,12.6190185546875,3.204345703125
1.9499999,-9.567230224609375,-2.7246015071868896,0.524330198764801,8.941650390625,12.2222900390625,0.2899169921875
1.9699999,-9.569623947143555,-2.7485435009002686,0.7398083209991455,9.58251953125,9.002685546875,-0.701904296875
1.9899999,-9.619902610778809,-2.7700912952423096,0.9624691009521484,8.9111328125,3.6163330078125,0.885009765625
2.0099999,-9.646238327026367,-2.782062292098999,1.161187767982483,6.7291259765625,-3.326416015625,0.152587890625
2.0299999,-9.610325813293457,-2.7676970958709717,1.314416766166687,3.082275390625,-6.134033203125,-1.953125
2.0499999,-9.495404243469238,-2.741360902786255,1.4077905416488647,-1.068115234375,-4.5318603515625,-0.1068115234375
2.0699999,-9.351752281188965,-2.717418909072876,1.4389152526855469,-4.0435791015625,-3.2806396484375,3.6773681640625
2.0899999,-9.21288776397705,-2.715024709701538,1.4077905416488647,-4.974365234375,-6.622314453125,3.204345703125
2.1099999,-9.119514465332031,-2.7437551021575928,1.3263877630233765,-4.0130615234375,-11.4288330078125,-0.244140625
2.1299999,-9.033323287963867,-2.7772738933563232,1.2042834758758545,-2.471923828125,-13.1683349609375,-0.030517578125
2.1499999,-8.925583839416504,-2.7988216876983643,1.0773907899856567,-0.6866455078125,-11.8865966796875,3.96728515625
2.1699999,-8.882488250732422,-2.8107926845550537,0.9552865028381348,1.7242431640625,-10.955810546875,7.5531005859375
2.1899999,-9.040505409240723,-2.911349296569824,0.8068459630012512,1.2054443359375,-6.8817138671875,3.9215087890625
2.2099999,-9.287108421325684,-2.9089550971984863,0.6488286852836609,-2.9449462890625,5.828857421875,-8.8958740234375
2.2299999,-9.84256362915039,-3.045424461364746,0.44771572947502136,-3.692626953125,4.5166015625,-0.91552734375
2.2499999,-10.235212326049805,-3.021482467651367,0.2513911724090576,-4.8980712890625,-0.1373291015625,2.838134765625
2.2699999,-10.529699325561523,-3.069366693496704,0.038307227194309235,-2.3345947265625,-5.859375,3.47900390625
2.2899999,-10.60152530670166,-3.0621838569641113,-0.08619125932455063,3.6468505859375,-10.101318359375,4.21142578125
2.3099999,-10.441113471984863,-3.0621838569641113,-0.14604631066322327,8.8653564453125,-13.7939453125,5.55419921875
2.3299999,-10.160991668701172,-3.047818660736084,-0.05027823522686958,12.9241943359375,-15.9912109375,6.2713623046875
2.3499999,-9.907206535339355,-2.985569477081299,0.19632454216480255,14.0838623046875,-15.9759521484375,7.2784423828125
2.3699999,-9.713275909423828,-2.8802247047424316,0.569819986820221,13.0462646484375,-19.22607421875,4.425048828125
2.3899999,-9.531316757202148,-2.736572504043579,1.0342950820922852,14.16015625,-34.0423583984375,2.4566650390625
2.4099999,-9.397241592407227,-2.557007312774658,1.5083470344543457,10.1318359375,-30.670166015625,-0.8392333984375
2.4299999,-9.334992408752441,-2.408566951751709,1.9033904075622559,3.84521484375,-14.434814453125,-3.2806396484375
2.4499999,-9.23443603515625,-2.298433542251587,2.190694570541382,2.3193359375,-24.5361328125,3.326416015625
2.4699999,-9.165003776550293,-2.252943754196167,2.319981336593628,-3.173828125,-30.3802490234375,10.8795166015625
2.4899999,-9.074024200439453,-2.252943754196167,2.2816741466522217,-12.02392578125,-7.3699951171875,7.7972412109375
2.5099999,-8.875306129455566,-2.2433669567108154,2.0901381969451904,-16.632080078125,10.589599609375,1.6937255859375
2.5299999,-8.588001251220703,-2.169146776199341,1.7980455160140991,-15.7470703125,11.138916015625,1.7547607421875
2.5499999,-8.609549522399902,-2.1380221843719482,1.6089035272598267,-17.364501953125,20.904541015625,4.7149658203125
2.5699999,-8.707711219787598,-2.1140801906585693,1.5705963373184204,-22.94921875,26.1077880859375,-4.974365234375
2.5899999,-9.100360870361328,-2.233790159225464,1.6639702320098877,-31.524658203125,19.3328857421875,-6.011962890625
2.6099999,-9.567230224609375,-2.389413356781006,1.800439715385437,-37.4755859375,27.0538330078125,2.5787353515625
2.6299999,-9.909601211547852,-2.535459518432617,1.7597382068634033,-39.4439697265625,28.01513671875,3.5552978515625
2.6499999,-10.086771965026855,-2.6024973392486572,1.4772224426269531,-36.346435546875,29.296875,1.8310546875
2.6699999,-10.139444351196289,-2.628833532333374,0.9816226959228516,-25.5889892578125,27.7862548828125,-1.8768310546875
2.6899999,-10.144232749938965,-2.650381326675415,0.35434186458587646,-14.4805908203125,23.162841796875,-4.0435791015625
2.7099999,-10.144232749938965,-2.7222073078155518,-0.28730419278144836,-6.0882568359375,15.350341796875,-4.608154296875
2.7299999,-10.20887565612793,-2.8562827110290527,-0.8355764150619507,1.190185546875,5.9356689453125,-4.8980712890625
2.7499999,-10.302249908447266,-3.0142998695373535,-1.1444283723831177,9.5977783203125,-2.4566650390625,-4.4097900390625
2.7699999,-10.321403503417969,-3.1723172664642334,-1.1899182796478271,17.547607421875,-7.75146484375,-2.349853515625
2.7899999,-10.244789123535156,-3.287238836288452,-0.9624691009521484,24.6429443359375,-10.5438232421875,0.91552734375
2.8099999,-10.0580415725708,-3.3255462646484375,-0.5171475410461426,31.707763671875,-11.0931396484375,3.4637451171875
2.8299999,-9.897629737854004,-3.380612850189209,0.0694318488240242,36.529541015625,-11.0931396484375,4.1046142578125
2.8499999,-9.691728591918945,-3.4165258407592773,0.751779317855835,39.1998291015625,-22.1099853515625,-0.8392333984375
2.8699999,-9.490615844726562,-3.4596214294433594,1.4652514457702637,36.2091064453125,-34.6221923828125,-5.126953125
2.8899999,-9.2033109664917,-3.49314022064209,2.1954829692840576,28.3355712890625,-39.9169921875,-5.5999755859375
2.9099999,-8.631096839904785,-3.287238836288452,2.762908697128296,10.7574462890625,-25.5584716796875,-7.4310302734375
2.9299999,-8.597578048706055,-3.2130186557769775,3.2537200450897217,-10.0860595703125,8.7127685546875,-3.1280517578125
2.9499999,-8.250418663024902,-2.8826189041137695,3.335123062133789,-19.6990966796875,-2.838134765625,-19.8822021484375
2.9699999,-8.578424453735352,-2.7676970958709717,3.1483752727508545,-29.7393798828125,3.1585693359375,-17.303466796875
2.9899999,-8.913613319396973,-2.7078421115875244,2.612074136734009,-28.594970703125,16.66259765625,-3.6163330078125
3.0099999,-9.26795482635498,-2.6024973392486572,1.800439715385437,-17.974853515625,15.411376953125,5.615234375
3.0299999,-9.727641105651855,-2.5761611461639404,0.9457096457481384,-9.1400146484375,22.3236083984375,14.190673828125
3.0499999,-9.959878921508789,-2.3750481605529785,0.12210428714752197,0.0762939453125,20.08056640625,13.1988525390625
3.0699999,-10.04846477508545,-2.0614075660705566,-0.545877993106842,6.6375732421875,18.8751220703125,13.24462890625
3.0899999,-10.125079154968262,-1.7932571172714233,-0.9744400978088379,11.199951171875,20.660400390625,13.24462890625
3.1099999,-10.093954086303711,-1.556231141090393,-1.1444283723831177,13.9617919921875,11.3677978515625,6.4544677734375
3.1299999,-10.093954086303711,-1.601720929145813,-1.0654197931289673,10.223388671875,1.1444091796875,4.547119140625
3.1499999,-10.02691650390625,-1.8076223134994507,-0.7876923680305481,4.5166015625,-4.8828125,3.35693359375
3.1699999,-9.847352027893066,-2.1571757793426514,-0.4381389021873474,4.638671875,-8.270263671875,2.1209716796875
3.1899999,-9.6989107131958,-2.473210334777832,-0.07422025501728058,8.4381103515625,-10.0860595703125,2.5634765625
3.2099999,-9.607931137084961,-2.7054479122161865,0.23942017555236816,9.7198486328125,-13.427734375,5.4473876953125
3.2299999,-9.59596061706543,-2.782062292098999,0.5267243981361389,10.0860595703125,-15.716552734375,5.18798828125
3.2499999,-9.600749015808105,-2.7317841053009033,0.7757213711738586,12.1002197265625,-14.7705078125,4.8370361328125
3.2699999,-9.600749015808105,-2.564189910888672,1.0271124839782715,14.068603515625,-12.5732421875,3.6773681640625
3.2899999,-9.660603523254395,-2.185906171798706,1.501164436340332,4.364013671875,-8.30078125,-2.0751953125
3.3099999,-9.713275909423828,-2.1116859912872314,1.6950948238372803,-1.373291015625,-5.5084228515625,-1.6632080078125
3.3299999000000002,-9.742006301879883,-2.0877439975738525,1.8602946996688843,-5.889892578125,-2.7008056640625,0.3204345703125
3.3499999,-9.68933391571045,-2.1356279850006104,1.8962076902389526,-8.6669921875,0.4730224609375,-1.2969970703125
3.3699999,-9.646238327026367,-2.1930887699127197,1.821987509727478,-7.9193115234375,4.7760009765625,-5.157470703125
3.3899999,-9.586383819580078,-2.2673089504241943,1.6543933153152466,-3.692626953125,6.0882568359375,-6.3323974609375
3.4099999,-9.57441234588623,-2.365471363067627,1.4317326545715332,-2.99072265625,4.94384765625,-4.1351318359375
3.4299999,-9.57201862335205,-2.5043349266052246,1.1444283723831177,-3.326416015625,4.669189453125,-3.997802734375
3.4499999,-9.607931137084961,-2.676717519760132,0.8619126081466675,4.6539306640625,5.4931640625,-6.4239501953125
3.4699999,-9.639056205749512,-2.801215887069702,0.6200982332229614,17.242431640625,1.6937255859375,-5.43212890625
3.4899999,-9.684545516967773,-2.868253707885742,0.47884035110473633,21.8353271484375,-2.3345947265625,-2.716064453125
3.5099999,-9.746794700622559,-2.8395233154296875,0.47165772318840027,21.91162109375,-3.72314453125,-3.204345703125
3.5299999,-9.746794700622559,-2.7054479122161865,0.608127236366272,19.2108154296875,-3.173828125,-4.4403076171875
3.5499999,-9.765948295593262,-2.4803929328918457,0.8667010068893433,10.650634765625,-4.57763671875,-3.6163330078125
3.5699999,-9.68933391571045,-2.3032219409942627,1.2018892765045166,-2.7313232421875,-7.1258544921875,-4.913330078125
3.5899999,-9.610325813293457,-2.250549554824829,1.4748282432556152,-14.6026611328125,-6.500244140625,-5.67626953125
3.6099999,-9.528923034667969,-2.3080103397369385,1.6519991159439087,-17.2119140625,-1.52587890625,-3.8299560546875
3.6299999,-9.485827445983887,-2.5282769203186035,1.6112977266311646,-11.9171142578125,-1.52587890625,-0.67138671875
3.6499999,-9.478644371032715,-2.779668092727661,1.3886369466781616,-5.79833984375,-3.1280517578125,0.762939453125
3.6699999,-9.493009567260742,-2.9735984802246094,1.113303780555725,1.4495849609375,-6.1187744140625,-0.7476806640625
3.6899999,-9.493009567260742,-3.0358476638793945,0.9385270476341248,8.880615234375,-9.9639892578125,-2.3345947265625
3.7099999,-9.512163162231445,-2.959233283996582,0.9385270476341248,10.9100341796875,-11.627197265625,0.06103515625
3.7299999,-9.531316757202148,-2.734178304672241,1.1228805780410767,5.0506591796875,-7.5836181640625,2.7313232421875
3.7499999,-9.588777542114258,-2.406172752380371,1.4077905416488647,-4.150390625,-2.716064453125,-1.4801025390625
3.7699999,-9.600749015808105,-2.1475989818573,1.6328455209732056,-7.9193115234375,-3.509521484375,-8.758544921875
3.7899999,-9.586383819580078,-1.9823989868164062,1.7812861204147339,-8.880615234375,-2.899169921875,-11.04736328125
3.8099999,-9.583989143371582,-2.0398597717285156,1.802833914756775,-9.9639892578125,1.3885498046875,-12.14599609375
3.8299999000000002,-9.569623947143555,-2.2888567447662354,1.7477672100067139,-10.1165771484375,5.1727294921875,-15.2435302734375
3.8499999,-9.500192642211914,-2.647987127304077,1.599326729774475,-4.2724609375,1.708984375,-13.8702392578125
3.8699999,-9.44752025604248,-3.00711727142334,1.3982137441635132,4.486083984375,-0.91552734375,-7.110595703125
3.8899999,-9.38048267364502,-3.339911460876465,1.173158884048462,10.3759765625,-0.3204345703125,-0.9613037109375
3.9099999,-9.404424667358398,-3.5003228187561035,1.0007762908935547,10.3302001953125,0.48828125,-0.1983642578125
3.9299999,-9.435548782348633,-3.4117374420166016,0.8978256583213806,8.7432861328125,-4.33349609375,0.396728515625
3.9499999,-9.531316757202148,-3.203441858291626,0.9457096457481384,7.6904296875,-8.30078125,0.67138671875
3.9699999,-9.569623947143555,-2.964021682739258,1.0127472877502441,5.035400390625,-6.622314453125,-3.0059814453125
3.9899999,-9.59835433959961,-2.741360902786255,1.137245774269104,2.4261474609375,-7.01904296875,-7.14111328125
4.0099999,-9.593565940856934,-2.7006595134735107,1.3000515699386597,4.2877197265625,-14.801025390625,-5.0201416015625
4.029999900000001,-9.524134635925293,-2.7724854946136475,1.460463047027588,7.232666015625,-14.9993896484375,-2.197265625
4.0499999,-9.514557838439941,-2.8850131034851074,1.5418659448623657,8.6669921875,-6.7901611328125,0.30517578125
4.069999900000001,-9.428366661071777,-2.9065608978271484,1.599326729774475,11.932373046875,-4.7149658203125,-2.2430419921875
4.0899999000000005,-9.35893440246582,-2.8993782997131348,1.6615760326385498,16.29638671875,-11.8865966796875,-3.0364990234375
4.1099999,-9.402029991149902,-2.7916390895843506,1.7621324062347412,12.8173828125,-8.9111328125,-3.997802734375
4.1299999000000005,-9.35654067993164,-2.7437551021575928,1.9177556037902832,3.5858154296875,-0.640869140625,-7.080078125
4.1499999,-9.351752281188965,-2.7533318996429443,2.054224967956543,-0.946044921875,-4.1961669921875,-8.11767578125
4.1699999000000005,-9.378087997436523,-2.765302896499634,2.2026655673980713,-0.518798828125,-9.7198486328125,-5.9051513671875
4.1899999,-9.385271072387695,-2.8347349166870117,2.1954829692840576,-2.99072265625,-2.899169921875,-2.2125244140625
4.209999900000001,-9.368511199951172,-2.875436305999756,2.140416383743286,-5.462646484375,4.7760009765625,-1.617431640625
4.2299999,-9.397241592407227,-2.851494312286377,1.9321208000183105,-1.5716552734375,-2.7313232421875,-3.265380859375
4.249999900000001,-9.390059471130371,-2.96162748336792,1.623268723487854,5.6304931640625,-8.72802734375,-3.72314453125
4.2699999,-9.452308654785156,-3.0789434909820557,1.338358759880066,12.3291015625,-5.584716796875,-4.8065185546875
4.289999900000001,-9.442731857299805,-3.1866824626922607,1.1827356815338135,16.387939453125,-8.11767578125,-6.195068359375
4.3099999,-9.411606788635254,-3.2992098331451416,1.2737152576446533,16.1590576171875,-17.7459716796875,-2.410888671875
4.329999900000001,-9.351752281188965,-3.2561142444610596,1.5275006294250488,11.566162109375,-15.9912109375,2.2125244140625
4.3499999,-9.308655738830566,-3.1723172664642334,1.867477297782898,5.8135986328125,-6.988525390625,4.5013427734375
4.369999900000001,-9.23682975769043,-3.026270866394043,2.190694570541382,2.6702880859375,-6.9732666015625,2.25830078125
4.3899999,-9.208099365234375,-2.9161376953125,2.477998733520508,-0.6561279296875,-11.3525390625,4.0740966796875
4.409999900000001,-9.208099365234375,-2.7964274883270264,2.6431987285614014,-8.4381103515625,-4.5166015625,5.9356689453125
4.4299999,-9.181763648986816,-2.738966703414917,2.7102363109588623,-14.4195556640625,2.38037109375,1.8768310546875
4.449999900000001,-9.184157371520996,-2.674323320388794,2.717418909072876,-14.83154296875,-6.1492919921875,-3.23486328125
4.4699999,-9.232041358947754,-2.6839001178741455,2.5977089405059814,-12.63427734375,-9.521484375,-0.7781982421875
4.489999900000001,-9.344569206237793,-2.779668092727661,2.4181437492370605,-8.1329345703125,0.7171630859375,5.157470703125
4.5099999,-9.368511199951172,-2.9041666984558105,2.1715409755706787,-0.9765625,4.3182373046875,2.50244140625
4.529999900000001,-9.387664794921875,-2.940079689025879,1.9967641830444336,5.2642822265625,-4.0740966796875,-0.6256103515625
4.5499999,-9.387664794921875,-2.918531894683838,1.889025092124939,4.8065185546875,-7.2784423828125,1.1749267578125
4.569999900000001,-9.385271072387695,-2.868253707885742,1.8914192914962769,0.1983642578125,1.7242431640625,-1.9073486328125
4.5899999000000005,-9.368511199951172,-2.808398485183716,1.98958158493042,-0.79345703125,1.312255859375,-8.544921875
4.609999900000001,-9.368511199951172,-2.8227639198303223,2.1116859912872314,0.2593994140625,-9.8419189453125,-6.6070556640625
4.6299999000000005,-9.375694274902344,-2.9305028915405273,2.2218191623687744,-0.0457763671875,-9.246826171875,0.8544921875
4.6499999,-9.351752281188965,-3.0597896575927734,2.2697031497955322,1.983642578125,0.3814697265625,1.6632080078125
4.6699999000000005,-9.299078941345215,-3.090914487838745,2.3271639347076416,4.57763671875,2.105712890625,-0.9918212890625
4.6899999,-9.253589630126953,-3.1028854846954346,2.3558945655822754,4.9896240234375,-7.8887939453125,0.3509521484375
4.709999900000001,-9.21288776397705,-3.0166940689086914,2.3942017555236816,0.2288818359375,-2.044677734375,3.509521484375
4.7299999,-9.23443603515625,-2.9281086921691895,2.3750481605529785,-1.251220703125,7.171630859375,-2.2430419921875
4.749999900000001,-9.263166427612305,-2.8443117141723633,2.4396915435791016,1.6632080078125,-2.410888671875,-8.2550048828125
4.7699999,-9.29189682006836,-2.8658595085144043,2.432508945465088,2.3040771484375,-10.8642578125,-4.39453125
4.789999900000001,-9.334992408752441,-2.9041666984558105,2.449268341064453,-1.0986328125,-0.1220703125,3.1585693359375
4.8099999,-9.258378028869629,-2.9664158821105957,2.425326347351074,-1.6326904296875,8.331298828125,3.204345703125
4.829999900000001,-9.222464561462402,-2.9975404739379883,2.4133553504943848,1.15966796875,-1.2664794921875,-1.2664794921875
4.8499999,-9.20091724395752,-2.940079689025879,2.3295583724975586,0.8544921875,-7.3394775390625,0.213623046875
4.869999900000001,-9.253589630126953,-2.999934673309326,2.27209734916687,-2.655029296875,3.5552978515625,2.5634765625
4.8899999,-9.244012832641602,-2.9496564865112305,2.209848165512085,-1.2054443359375,2.9144287109375,-4.974365234375
4.909999900000001,-9.275136947631836,-3.0119056701660156,2.2194249629974365,3.2501220703125,-11.8408203125,-3.3721923828125
4.9299999,-9.30386734008789,-2.96162748336792,2.2361843585968018,2.0904541015625,-9.82666015625,4.7454833984375
4.949999900000001,-9.306262016296387,-3.0310592651367188,2.2577321529388428,1.5106201171875,3.1280517578125,5.218505859375
4.9699999,-9.263166427612305,-3.0190882682800293,2.3319525718688965,3.7841796875,-2.1209716796875,0.762939453125
4.989999900000001,-9.205705642700195,-3.0190882682800293,2.322375535964966,2.197265625,-13.0462646484375,5.9814453125
5.0099999,-9.255983352661133,-3.0382418632507324,2.3032219409942627,-4.33349609375,-3.692626953125,6.40869140625
5.029999900000001,-9.17936897277832,-2.913743495941162,2.3750481605529785,-2.38037109375,-3.0364990234375,-4.0283203125
5.0499999,-9.246406555175781,-2.762908697128296,2.456450939178467,3.8604736328125,-15.13671875,-3.143310546875
5.069999900000001,-9.464279174804688,-2.738966703414917,2.52109432220459,1.9073486328125,-4.5928955078125,5.31005859375
5.0899999000000005,-9.402029991149902,-2.6192567348480225,2.5306711196899414,0.79345703125,0.3509521484375,-0.579833984375
5.109999900000001,-9.421183586120605,-2.6862943172454834,2.535459518432617,2.9296875,-9.2315673828125,-3.8604736328125
5.1299999000000005,-9.334992408752441,-2.786850690841675,2.47560453414917,4.791259765625,-7.3089599609375,-0.5645751953125
5.1499999,-9.244012832641602,-2.964021682739258,2.4827871322631836,8.4686279296875,4.08935546875,-1.9073486328125
5.1699999000000005,-9.160215377807617,-3.1268274784088135,2.5713725090026855,16.510009765625,-8.392333984375,-4.3487548828125
5.1899999,-9.126696586608887,-3.1507694721221924,2.6886885166168213,16.082763671875,-9.7808837890625,3.631591796875
5.209999900000001,-9.107542991638184,-3.0789434909820557,2.8802247047424316,7.537841796875,6.1798095703125,7.2479248046875
5.2299999,-9.157821655273438,-2.782062292098999,3.095702886581421,2.38037109375,4.8980712890625,-3.72314453125
5.249999900000001,-9.093177795410156,-2.4013843536376953,3.423708438873291,-8.758544921875,-2.288818359375,-4.119873046875
5.2699999,-9.186552047729492,-2.1332337856292725,3.531447410583496,-38.665771484375,8.3465576171875,-2.655029296875
5.289999900000001,-9.083600997924805,-2.094926595687866,3.4955344200134277,-47.607421875,11.0321044921875,-7.7667236328125
5.3099999,-9.028534889221191,-2.365471363067627,3.1196448802948,-31.6925048828125,8.209228515625,-6.1187744140625
5.329999900000001,-9.064447402954102,-2.9017724990844727,2.494758129119873,-9.0484619140625,6.04248046875,-2.3193359375
5.3499999,-9.157821655273438,-3.40216064453125,1.9033904075622559,12.1917724609375,3.2958984375,-0.8392333984375
5.369999900000001,-9.275136947631836,-3.6750996112823486,1.4939818382263184,28.38134765625,2.288818359375,-1.89208984375
5.3899999,-9.349357604980469,-3.691859006881714,1.357512354850769,37.04833984375,2.2430419921875,-3.204345703125
5.409999900000001,-9.38048267364502,-3.490746021270752,1.4891934394836426,39.48974609375,-0.396728515625,-3.7994384765625
5.4299999,-9.32302188873291,-3.2154128551483154,1.8363527059555054,37.5518798828125,-2.4566650390625,-4.21142578125
5.449999900000001,-9.222464561462402,-2.918531894683838,2.319981336593628,27.069091796875,-3.1890869140625,-4.0740966796875
5.4699999,-9.10993766784668,-2.6671407222747803,2.829946517944336,7.6904296875,-6.28662109375,-3.631591796875
5.489999900000001,-9.028534889221191,-2.4468741416931152,3.28963303565979,-12.51220703125,-4.425048828125,-3.6163330078125
5.5099999,-9.004592895507812,-2.300827741622925,3.550601005554199,-24.658203125,1.678466796875,-4.608154296875
5.529999900000001,-9.050082206726074,-2.2577321529388428,3.620033025741577,-34.576416015625,3.1890869140625,-5.9661865234375
5.5499999,-9.11233139038086,-2.3487119674682617,3.5027170181274414,-41.534423828125,4.1961669921875,-6.04248046875
5.569999900000001,-9.155426979064941,-2.5665841102600098,3.2752678394317627,-39.8406982421875,6.2713623046875,-5.9661865234375
5.5899999000000005,-9.162610054016113,-2.853888511657715,3.0142998695373535,-28.0914306640625,11.016845703125,-6.317138671875
5.609999900000001,-9.126696586608887,-3.1723172664642334,2.7676970958709717,-10.43701171875,16.8914794921875,-6.28662109375
5.6299999000000005,-9.07641887664795,-3.426102638244629,2.5306711196899414,0.54931640625,19.195556640625,-4.5013427734375
5.6499999,-9.07641887664795,-3.60566782951355,2.2888567447662354,-3.692626953125,16.11328125,-0.79345703125
5.6699999000000005,-9.071630477905273,-3.6942532062530518,2.049436569213867,-6.9122314453125,12.237548828125,2.410888671875
5.6899999,-9.148244857788086,-3.667917013168335,1.8195933103561401,-2.8533935546875,9.6435546875,4.3487548828125
5.709999900000001,-9.232041358947754,-3.60566782951355,1.6424223184585571,1.6937255859375,6.3323974609375,3.5247802734375
5.7299999,-9.279925346374512,-3.509899616241455,1.5514427423477173,6.1798095703125,3.387451171875,3.0517578125
5.749999900000001,-9.301473617553711,-3.40216064453125,1.5538369417190552,7.049560546875,0.9002685546875,3.9520263671875
5.7699999,-9.275136947631836,-3.318363666534424,1.6184803247451782,7.1563720703125,-1.0986328125,4.150390625
5.789999900000001,-9.244012832641602,-3.2369606494903564,1.8291701078414917,6.927490234375,-2.899169921875,5.0048828125
5.8099999,-9.186552047729492,-3.2537200450897217,2.0398597717285156,8.941650390625,-1.6326904296875,7.598876953125
5.829999900000001,-9.20091724395752,-3.201047658920288,2.319981336593628,11.6729736328125,3.8299560546875,9.21630859375
5.8499999,-9.208099365234375,-3.136404275894165,2.513911724090576,8.7432861328125,5.6610107421875,8.0413818359375
5.869999900000001,-9.253589630126953,-2.9544448852539062,2.6001031398773193,1.2054443359375,4.974365234375,4.6539306640625
5.8899999,-9.308655738830566,-2.7246015071868896,2.5713725090026855,-1.2359619140625,4.9896240234375,0.9002685546875
5.909999900000001,-9.330204010009766,-2.5474305152893066,2.470816135406494,1.3275146484375,6.40869140625,-1.5869140625
5.9299999,-9.368511199951172,-2.4660277366638184,2.363077163696289,-5.5389404296875,4.8675537109375,-2.471923828125
5.949999900000001,-9.387664794921875,-2.499546527862549,2.27209734916687,-11.9476318359375,2.1820068359375,-3.11279296875
5.9699999,-9.406818389892578,-2.604891538619995,2.190694570541382,-14.0380859375,1.28173828125,-3.662109375
5.989999900000001,-9.387664794921875,-2.765302896499634,2.099714994430542,-12.20703125,2.25830078125,-3.9215087890625
6.0099999,-9.346963882446289,-2.96162748336792,2.0015525817871094,-8.85009765625,1.7242431640625,-3.387451171875
6.029999900000001,-9.289502143859863,-3.1723172664642334,1.9081788063049316,-5.9967041015625,-0.3662109375,-1.9683837890625
6.0499999,-9.255983352661133,-3.3423056602478027,1.8602946996688843,-2.13623046875,-0.79345703125,0.0457763671875
6.069999900000001,-9.241618156433105,-3.428496837615967,1.8794482946395874,2.2125244140625,0.2593994140625,1.52587890625
6.0899999000000005,-9.23443603515625,-3.3949780464172363,1.98958158493042,4.791259765625,2.2125244140625,1.5869140625
6.109999900000001,-9.23682975769043,-3.2537200450897217,2.1547815799713135,2.86865234375,3.692626953125,0.2899169921875
6.1299999000000005,-9.258378028869629,-3.026270866394043,2.3367409706115723,-2.01416015625,5.18798828125,-1.3885498046875
6.149999900000001,-9.253589630126953,-2.808398485183716,2.492363929748535,-8.8043212890625,6.1492919921875,-3.1280517578125
6.1699999000000005,-9.26795482635498,-2.6360161304473877,2.559401512145996,-17.3797607421875,6.5765380859375,-3.90625
6.1899999,-9.282320022583008,-2.583343744277954,2.52109432220459,-25.848388671875,5.7220458984375,-4.6234130859375
6.209999900000001,-9.255983352661133,-2.6408045291900635,2.3918075561523438,-32.16552734375,4.5928955078125,-4.7454833984375
6.2299999,-9.287108421325684,-2.7916390895843506,2.183511972427368,-33.9813232421875,3.7689208984375,-3.753662109375
6.249999900000001,-9.275136947631836,-3.0310592651367188,1.941697597503662,-27.557373046875,4.21142578125,-3.4027099609375
6.2699999,-9.244012832641602,-3.287238836288452,1.7764976024627686,-15.960693359375,5.218505859375,-3.9520263671875
6.289999900000001,-9.186552047729492,-3.5194764137268066,1.625662922859192,-5.7830810546875,8.1787109375,-2.0294189453125
6.3099999,-9.114726066589355,-3.73016619682312,1.5394717454910278,5.4779052734375,11.0321044921875,-1.190185546875
6.329999900000001,-9.07641887664795,-3.864241600036621,1.4628572463989258,16.7083740234375,10.68115234375,-0.0762939453125
6.3499999,-9.126696586608887,-3.885789394378662,1.403002142906189,21.3775634765625,9.368896484375,3.8909912109375
6.369999900000001,-9.208099365234375,-3.778050184249878,1.3479355573654175,18.768310546875,6.4849853515625,6.7291259765625
6.3899999,-9.29189682006836,-3.509899616241455,1.3766659498214722,13.8397216796875,2.44140625,5.3558349609375
6.409999900000001,-9.366117477416992,-3.157952070236206,1.5634137392044067,6.439208984375,-1.220703125,1.678466796875
6.4299999,-9.41639518737793,-2.7269957065582275,1.8195933103561401,-9.9639892578125,-2.13623046875,0.1983642578125
6.449999900000001,-9.519346237182617,-2.3535003662109375,2.1475989818573,-31.5399169921875,1.3580322265625,-2.9449462890625
6.4699999,-9.557653427124023,-2.183511972427368,2.3080103397369385,-43.212890625,1.9378662109375,-9.429931640625
6.489999900000001,-9.603142738342285,-2.229001760482788,2.2816741466522217,-43.914794921875,1.9683837890625,-11.9476318359375
6.5099999,-9.478644371032715,-2.6791117191314697,1.9297266006469727,-33.4930419921875,-0.213623046875,-9.5062255859375
6.529999900000001,-9.370905876159668,-3.3063924312591553,1.4077905416488647,-12.2833251953125,-1.129150390625,-6.866455078125
6.5499999,-9.248801231384277,-4.003105163574219,0.9169792532920837,11.810302734375,-1.9073486328125,-1.46484375
6.569999900000001,-9.23682975769043,-4.486733913421631,0.5171475410461426,26.0467529296875,-4.4097900390625,6.5155029296875
6.5899999000000005,-9.248801231384277,-4.60165548324585,0.42856210470199585,33.172607421875,-8.819580078125,10.55908203125
6.609999900000001,-9.26795482635498,-4.357447147369385,0.6655880808830261,35.9649658203125,-13.97705078125,7.843017578125
6.6299999000000005,-9.277531623840332,-3.7612907886505127,1.2186486721038818,25.1617431640625,-12.420654296875,5.340576171875
6.649999900000001,-9.220070838928223,-3.095702886581421,1.886630892753601,5.8441162109375,-8.2550048828125,1.556396484375
6.6699999000000005,-9.260771751403809,-2.434903144836426,2.5785553455352783,-11.4288330078125,-0.0457763671875,-4.82177734375
6.6899999,-9.294290542602539,-2.094926595687866,2.9759926795959473,-20.6146240234375,3.082275390625,-6.65283203125
6.709999900000001,-9.334992408752441,-2.1284453868865967,3.07415509223938,-24.993896484375,3.2958984375,-5.37109375
6.7299999,-9.320627212524414,-2.4133553504943848,2.7964274883270264,-22.3846435546875,1.434326171875,-6.8511962890625
6.749999900000001,-9.29189682006836,-3.0142998695373535,2.3774423599243164,-11.71875,4.08935546875,-6.317138671875
6.7699999,-9.205705642700195,-3.5170822143554688,1.920149803161621,0.3204345703125,2.838134765625,-2.8533935546875
6.789999900000001,-9.150638580322266,-3.864241600036621,1.5945383310317993,1.3275146484375,6.8511962890625,-0.3509521484375
6.8099999,-9.141061782836914,-3.9408559799194336,1.4293384552001953,0.3509521484375,6.7138671875,2.685546875
6.829999900000001,-9.20091724395752,-3.823540210723877,1.335964560508728,4.119873046875,3.326416015625,1.708984375
6.8499999,-9.378087997436523,-3.3016040325164795,1.4628572463989258,-1.0833740234375,-4.39453125,-2.9144287109375
6.869999900000001,-9.35654067993164,-3.1316158771514893,1.5873557329177856,-5.06591796875,-4.913330078125,-2.9449462890625
6.8899999,-9.349357604980469,-3.0837318897247314,1.7262194156646729,-7.7972412109375,1.1749267578125,-6.3018798828125
6.909999900000001,-9.272743225097656,-3.093308687210083,1.8291701078414917,-9.7503662109375,1.1138916015625,-3.0364990234375
6.9299999,-9.284713745117188,-3.292027235031128,1.8555063009262085,-13.3819580078125,-3.4027099609375,3.7078857421875
6.949999900000001,-9.244012832641602,-3.4165258407592773,1.7860745191574097,-13.763427734375,-6.28662109375,3.4027099609375
6.9699999,-9.227252960205078,-3.579331636428833,1.6831238269805908,-6.77490234375,-5.859375,-0.30517578125
6.989999900000001,-9.155426979064941,-3.579331636428833,1.6927006244659424,-1.1138916015625,-8.5601806640625,-0.335693359375
7.0099999,-9.090784072875977,-3.4955344200134277,1.7405846118927002,-10.528564453125,-2.593994140625,-0.1220703125
7.029999900000001,-9.121908187866211,-3.397372245788574,1.944091796875,-16.8914794921875,3.814697265625,1.40380859375
7.0499999,-9.191340446472168,-3.248931646347046,2.013523578643799,-9.46044921875,1.678466796875,0.701904296875
7.069999900000001,-9.277531623840332,-3.2417490482330322,2.03507137298584,0.1068115234375,-0.0457763671875,-2.105712890625
7.0899999000000005,-9.366117477416992,-3.1459810733795166,1.9105730056762695,5.0048828125,2.99072265625,-5.7525634765625
7.109999900000001,-9.375694274902344,-3.1938650608062744,1.7621324062347412,8.941650390625,1.77001953125,-9.5062255859375
7.1299999000000005,-9.342175483703613,-3.136404275894165,1.6496049165725708,7.110595703125,1.5869140625,-13.2598876953125
7.149999900000001,-9.318233489990234,-3.287238836288452,1.5658079385757446,3.5858154296875,1.983642578125,-8.8653564453125
7.1699999000000005,-9.287108421325684,-3.44765043258667,1.5969325304031372,-0.6256103515625,-1.9989013671875,-2.9754638671875
7.1899999,-9.21288776397705,-3.6846764087677,1.6496049165725708,-5.279541015625,-4.6539306640625,-0.2288818359375
7.209999900000001,-9.172186851501465,-3.9025487899780273,1.7573440074920654,-3.936767578125,-1.46484375,0.7476806640625
7.2299999,-9.093177795410156,-3.955221176147461,1.7046716213226318,3.173828125,-2.8533935546875,1.9683837890625
7.249999900000001,-9.05487060546875,-3.952826976776123,1.644816517829895,6.2255859375,-6.439208984375,1.89208984375
7.2699999,-9.148244857788086,-3.8163576126098633,1.5083470344543457,4.9591064453125,-4.486083984375,2.99072265625
7.289999900000001,-9.205705642700195,-3.6535518169403076,1.4532804489135742,5.096435546875,-7.38525390625,4.1656494140625
7.3099999,-9.30386734008789,-3.44765043258667,1.4700398445129395,4.82177734375,-14.862060546875,3.997802734375
7.329999900000001,-9.306262016296387,-3.354276657104492,1.659181833267212,4.0283203125,-15.1214599609375,-0.3509521484375
7.3499999,-9.260771751403809,-3.2393548488616943,1.8938134908676147,1.3885498046875,-9.21630859375,-1.28173828125
7.369999900000001,-9.169792175292969,-3.332728862762451,2.209848165512085,-3.84521484375,-7.659912109375,2.0294189453125
7.3899999,-9.069235801696777,-3.3925838470458984,2.3918075561523438,-8.4381103515625,-6.4544677734375,5.0048828125
7.409999900000001,-9.002198219299316,-3.529053211212158,2.497152328491211,-10.55908203125,-1.8310546875,6.744384765625
7.4299999,-9.028534889221191,-3.5410242080688477,2.4013843536376953,-9.521484375,-1.77001953125,10.6201171875
7.449999900000001,-9.059659004211426,-3.5194764137268066,2.2625205516815186,-5.67626953125,-5.8746337890625,8.4075927734375
7.4699999,-9.239224433898926,-3.308786630630493,2.1380221843719482,0.4730224609375,-4.638671875,2.288818359375
7.489999900000001,-9.258378028869629,-3.155557870864868,2.10210919380188,1.6632080078125,-4.730224609375,-1.2664794921875
7.5099999,-9.313444137573242,-2.9257144927978516,2.1930887699127197,-7.5531005859375,-0.3509521484375,-4.180908203125
7.529999900000001,-9.198522567749023,-2.8993782997131348,2.3104045391082764,-15.4876708984375,2.0599365234375,-6.9732666015625
7.5499999,-9.165003776550293,-3.021482467651367,2.360682964324951,-15.472412109375,6.591796875,-4.5623779296875
7.569999900000001,-9.157821655273438,-3.3207578659057617,2.252943754196167,-7.3089599609375,3.7994384765625,1.6021728515625
7.5899999000000005,-9.14345645904541,-3.6391866207122803,2.0398597717285156,1.312255859375,-0.213623046875,1.220703125
7.609999900000001,-9.217676162719727,-3.8522706031799316,1.7956513166427612,10.19287109375,-0.457763671875,0.6256103515625
7.6299999000000005,-9.2033109664917,-3.8786067962646484,1.6879122257232666,14.95361328125,-0.640869140625,1.129150390625
7.649999900000001,-9.14585018157959,-3.6774938106536865,1.7381904125213623,9.1094970703125,-0.9613037109375,0.1220703125
7.6699999000000005,-9.14585018157959,-3.4356794357299805,1.920149803161621,-1.7242431640625,1.6937255859375,-2.2125244140625
7.6899999,-9.191340446472168,-3.2345664501190186,2.126051187515259,-7.080078125,2.9754638671875,0.4730224609375
7.709999900000001,-9.160215377807617,-3.181894063949585,2.2840683460235596,-9.735107421875,-1.8157958984375,0.762939453125
7.7299999,-9.196128845214844,-3.205836057662964,2.279279947280884,-11.199951171875,-2.166748046875,0.9918212890625
7.749999900000001,-9.167398452758789,-3.404554843902588,2.250549554824829,-6.1492919921875,0.0457763671875,1.8768310546875
7.7699999,-9.074024200439453,-3.469198226928711,2.1284453868865967,-2.5177001953125,1.4190673828125,3.0975341796875
7.789999900000001,-9.057265281677246,-3.6152446269989014,2.013523578643799,-2.7923583984375,0.7476806640625,2.8228759765625
7.8099999,-9.181763648986816,-3.5649664402008057,1.920149803161621,-0.48828125,2.777099609375,6.2713623046875
7.829999900000001,-9.217676162719727,-3.49314022064209,1.8267759084701538,5.9661865234375,-1.6937255859375,5.0048828125
7.8499999,-9.339780807495117,-3.380612850189209,1.8626888990402222,5.9814453125,-2.99072265625,-1.5869140625
7.869999900000001,-9.361329078674316,-3.179499864578247,1.9153614044189453,5.279541015625,-0.91552734375,-2.593994140625
7.8899999,-9.315838813781738,-3.1483752727508545,2.1332337856292725,2.838134765625,1.5869140625,-0.9307861328125
7.909999900000001,-9.186552047729492,-3.002328872680664,2.31758713722229,-6.4239501953125,3.0670166015625,-6.103515625
7.9299999,-9.157821655273438,-3.0813376903533936,2.47560453414917,-14.617919921875,6.8817138671875,-4.638671875
7.949999900000001,-9.131484985351562,-3.114856481552124,2.5115175247192383,-13.85498046875,6.4849853515625,1.007080078125
7.9699999,-9.165003776550293,-3.3279404640197754,2.403778553009033,-13.519287109375,4.3792724609375,-1.52587890625
7.989999900000001,-9.210494041442871,-3.488351821899414,2.183511972427368,-11.749267578125,5.18798828125,-1.3885498046875
8.0099999,-9.224859237670898,-3.687070608139038,1.8818424940109253,-1.068115234375,5.43212890625,1.922607421875
8.0299999,-9.167398452758789,-3.737348794937134,1.6089035272598267,6.8817138671875,5.584716796875,0.244140625
8.049999900000001,-9.121908187866211,-3.667917013168335,1.4532804489135742,9.9945068359375,3.1280517578125,-1.129150390625
8.069999900000001,-9.184157371520996,-3.627215623855591,1.4269442558288574,10.6964111328125,0.274658203125,1.64794921875
8.0899999,-9.198522567749023,-3.4165258407592773,1.5131354331970215,5.2947998046875,-2.593994140625,-0.30517578125
8.1099999,-9.299078941345215,-3.3255462646484375,1.7190368175506592,-1.0986328125,-2.38037109375,-0.9765625
8.129999900000001,-9.301473617553711,-3.138798475265503,1.946485996246338,-4.0435791015625,-2.532958984375,0.0152587890625
8.149999900000001,-9.193734169006348,-3.1004912853240967,2.1523873805999756,-11.3983154296875,-0.4425048828125,-3.7994384765625
8.1699999,-9.153033256530762,-3.1507694721221924,2.2409727573394775,-15.5029296875,4.150390625,-4.6844482421875
8.1899999,-9.220070838928223,-3.4380736351013184,2.1739351749420166,-8.0108642578125,3.2958984375,4.57763671875
8.2099999,-9.205705642700195,-3.603273630142212,1.946485996246338,-0.2593994140625,-4.608154296875,7.0648193359375
8.229999900000001,-9.263166427612305,-3.7852327823638916,1.7262194156646729,3.6163330078125,-3.173828125,2.1209716796875
8.2499999,-9.222464561462402,-3.6320040225982666,1.6041151285171509,8.72802734375,0.48828125,0.79345703125
8.2699999,-9.153033256530762,-3.4955344200134277,1.7357962131500244,4.5623779296875,-0.579833984375,-0.579833984375
8.2899999,-9.119514465332031,-3.337517261505127,1.941697597503662,-9.1094970703125,0.9613037109375,-1.9073486328125
8.309999900000001,-9.20091724395752,-3.3207578659057617,2.1715409755706787,-12.5274658203125,5.126953125,3.9825439453125
8.3299999,-9.162610054016113,-3.3207578659057617,2.2912509441375732,-4.302978515625,3.631591796875,5.18798828125
8.3499999,-9.167398452758789,-3.3255462646484375,2.298433542251587,-2.2430419921875,4.8065185546875,-1.0528564453125
8.3699999,-9.196128845214844,-3.3039982318878174,2.1787235736846924,-3.4332275390625,6.65283203125,-0.9002685546875
8.389999900000001,-9.210494041442871,-3.2561142444610596,1.9752163887023926,-1.373291015625,5.5694580078125,1.2969970703125
8.4099999,-9.27034854888916,-3.294421434402466,1.742978811264038,-1.068115234375,3.662109375,-2.4261474609375
8.4299999,-9.35893440246582,-3.2992098331451416,1.5083470344543457,0.8087158203125,-0.396728515625,-1.6326904296875
8.4499999,-9.399636268615723,-3.3686418533325195,1.403002142906189,-0.0762939453125,-5.7373046875,1.8157958984375
8.469999900000001,-9.363722801208496,-3.421314239501953,1.3982137441635132,-7.080078125,-5.79833984375,-1.4801025390625
8.4899999,-9.344569206237793,-3.442862033843994,1.5825673341751099,-7.537841796875,-4.150390625,-1.7547607421875
8.5099999,-9.241618156433105,-3.488351821899414,1.721431016921997,-3.0059814453125,-4.486083984375,2.2430419921875
8.5299999,-9.117119789123535,-3.5410242080688477,1.9105730056762695,-5.615234375,-2.3040771484375,1.434326171875
8.549999900000001,-9.05487060546875,-3.5410242080688477,2.006340980529785,-5.9051513671875,-0.3814697265625,3.41796875
8.569999900000001,-9.064447402954102,-3.622427225112915,2.126051187515259,-0.8544921875,-0.946044921875,8.7738037109375
8.5899999,-9.083600997924805,-3.5386300086975098,2.1547815799713135,-2.13623046875,-0.946044921875,6.683349609375
8.6099999,-9.114726066589355,-3.4308910369873047,2.252943754196167,-10.4827880859375,1.708984375,4.547119140625
8.629999900000001,-9.172186851501465,-3.201047658920288,2.296039342880249,-16.998291015625,3.72314453125,4.6539306640625
8.649999900000001,-9.17936897277832,-3.0621838569641113,2.2840683460235596,-21.209716796875,6.0882568359375,0.3814697265625
8.6699999,-9.239224433898926,-2.942473888397217,2.118868589401245,-17.9595947265625,7.781982421875,-1.373291015625
8.6899999,-9.342175483703613,-3.0573954582214355,1.946485996246338,-9.1705322265625,4.119873046875,2.532958984375
8.709999900000001,-9.35893440246582,-3.112462282180786,1.7142484188079834,-5.9661865234375,1.9683837890625,-1.7242431640625
8.729999900000001,-9.35893440246582,-3.3207578659057617,1.6160861253738403,-4.7760009765625,6.5765380859375,-4.5166015625
8.7499999,-9.306262016296387,-3.4380736351013184,1.522712230682373,1.03759765625,6.8817138671875,0.274658203125
8.7699999,-9.248801231384277,-3.5386300086975098,1.5490485429763794,0.762939453125,4.82177734375,0.885009765625
8.7899999,-9.251194953918457,-3.5194764137268066,1.4437036514282227,-3.9825439453125,3.84521484375,-2.685546875
8.809999900000001,-9.368511199951172,-3.557783842086792,1.3910311460494995,-3.41796875,0.4730224609375,0.274658203125
8.8299999,-9.279925346374512,-3.466804027557373,1.3335703611373901,-2.166748046875,-5.706787109375,1.8310546875
8.8499999,-9.23443603515625,-3.5218706130981445,1.4437036514282227,-4.8828125,-4.852294921875,1.251220703125
8.8699999,-9.172186851501465,-3.464409828186035,1.6519991159439087,-9.6588134765625,-0.67138671875,4.0740966796875
8.889999900000001,-9.121908187866211,-3.4572272300720215,1.8770540952682495,-15.07568359375,2.1820068359375,6.103515625
8.9099999,-9.17936897277832,-3.2968156337738037,1.9991583824157715,-16.7999267578125,2.8839111328125,2.7313232421875
8.9299999,-9.349357604980469,-3.2585084438323975,1.8914192914962769,-9.09423828125,0,2.227783203125
8.9499999,-9.38048267364502,-3.177105665206909,1.6328455209732056,-1.4190673828125,-2.9296875,-0.7476806640625
8.969999900000001,-9.41400146484375,-3.2178070545196533,1.4053963422775269,2.25830078125,-1.0223388671875,-4.33349609375
8.9899999,-9.311050415039062,-3.268085241317749,1.3551181554794312,9.46044921875,-2.1209716796875,-2.8533935546875
9.0099999,-9.215282440185547,-3.378218650817871,1.5322890281677246,10.467529296875,-0.0457763671875,1.3427734375
9.0299999,-9.095572471618652,-3.40216064453125,1.8267759084701538,-0.396728515625,9.0484619140625,-0.1220703125
9.049999900000001,-9.2033109664917,-3.3877954483032227,2.0374655723571777,-5.8135986328125,11.6119384765625,1.983642578125
9.069999900000001,-9.244012832641602,-3.2776620388031006,2.0590133666992188,-3.8909912109375,4.4097900390625,1.40380859375
9.0899999,-9.437943458557129,-3.177105665206909,1.8315643072128296,-7.8125,2.86865234375,-4.39453125
9.1099999,-9.425971984863281,-3.136404275894165,1.53707754611969,-8.7432861328125,0.7476806640625,-5.2490234375
9.129999900000001,-9.406818389892578,-3.2537200450897217,1.2761094570159912,-0.7476806640625,-2.9754638671875,-1.2969970703125
9.149999900000001,-9.29189682006836,-3.4548330307006836,1.1563993692398071,3.2806396484375,-1.7242431640625,-2.13623046875
9.1699999,-9.275136947631836,-3.624821424484253,1.192312479019165,2.532958984375,-0.67138671875,1.3275146484375
9.1899999,-9.217676162719727,-3.6750996112823486,1.2761094570159912,-1.2054443359375,-4.425048828125,6.500244140625
9.209999900000001,-9.246406555175781,-3.648763418197632,1.4437036514282227,-9.70458984375,-5.6915283203125,2.1209716796875
9.229999900000001,-9.27034854888916,-3.44765043258667,1.6304513216018677,-14.2364501953125,-3.936767578125,0.7781982421875
9.2499999,-9.296685218811035,-3.3638534545898438,1.8291701078414917,-14.46533203125,-3.35693359375,4.852294921875
9.2699999,-9.224859237670898,-3.162740468978882,1.9632453918457031,-20.782470703125,-0.396728515625,2.5787353515625
9.2899999,-9.232041358947754,-3.1220390796661377,2.0183119773864746,-20.233154296875,2.777099609375,-2.349853515625
9.309999900000001,-9.239224433898926,-3.1866824626922607,1.968033790588379,-9.94873046875,1.4190673828125,0.42724609375
9.3299999,-9.301473617553711,-3.220201253890991,1.8842366933822632,-10.2996826171875,1.2664794921875,1.03759765625
9.3499999,-9.35893440246582,-3.201047658920288,1.824381709098816,-19.378662109375,4.0435791015625,0.54931640625
9.3699999,-9.349357604980469,-3.023876667022705,1.8722656965255737,-29.052734375,4.7607421875,-3.2196044921875
9.389999900000001,-9.215282440185547,-2.851494312286377,1.944091796875,-41.5191650390625,3.2196044921875,-5.9661865234375
9.4099999,-9.10993766784668,-2.7054479122161865,2.0446481704711914,-59.7381591796875,8.1024169921875,-7.904052734375
9.4299999,-8.250418663024902,-2.7461493015289307,1.9057846069335938,-77.545166015625,9.124755859375,2.13623046875
9.4499999,-7.218518257141113,-3.090914487838745,1.7190368175506592,-64.7125244140625,10.07080078125,27.5726318359375
9.469999900000001,-5.963956356048584,-3.488351821899414,1.3096283674240112,-29.4189453125,14.862060546875,24.2156982421875
9.4899999,-5.731719017028809,-3.995922565460205,0.8427590131759644,-7.1868896484375,25.6500244140625,27.8472900390625
9.5099999,-6.780379295349121,-4.290409564971924,0.5793967843055725,-0.3814697265625,23.62060546875,37.567138671875
9.5299999,-8.949525833129883,-4.144362926483154,0.4189853072166443,-11.1541748046875,14.58740234375,36.8499755859375
9.549999900000001,-11.08994197845459,-3.471592426300049,0.5386953949928284,-25.32958984375,4.82177734375,26.42822265625
9.569999900000001,-12.469002723693848,-2.6408045291900635,0.6440402865409851,-40.283203125,-3.6163330078125,17.2882080078125
9.5899999,-12.701239585876465,-1.7310078144073486,0.8236053586006165,-60.4705810546875,-17.913818359375,7.0953369140625
9.6099999,-12.066776275634766,-1.5945383310317993,0.7038952708244324,-76.3702392578125,-18.6767578125,-4.1961669921875
9.629999900000001,-11.063606262207031,-2.2864625453948975,0.22505496442317963,-49.6978759765625,-1.861572265625,-6.8359375
9.649999900000001,-10.122684478759766,-3.5458126068115234,-0.44532153010368347,21.05712890625,2.899169921875,4.6539306640625
9.6699999,-9.294290542602539,-4.831499099731445,-0.9074024558067322,77.8961181640625,-15.0604248046875,20.4315185546875
9.6899999,-9.373299598693848,-4.039018154144287,-0.2944868206977844,43.2281494140625,-4.5013427734375,3.5858154296875
9.709999900000001,-9.708487510681152,-2.7772738933563232,0.8667010068893433,7.0953369140625,0.79345703125,-11.0626220703125
9.729999900000001,-9.971850395202637,-1.778891921043396,1.8124107122421265,-30.5328369140625,1.9073486328125,-16.0064697265625
9.7499999,-10.192116737365723,-1.577778935432434,2.169146776199341,-49.7589111328125,5.9051513671875,-15.31982421875
9.7699999,-10.268731117248535,-1.98958158493042,2.0015525817871094,-29.6783447265625,2.8533935546875,-9.0789794921875
9.7899999,-10.079588890075684,-2.6815059185028076,1.3838485479354858,-4.119873046875,-2.349853515625,-4.6844482421875
9.809999900000001,-9.744400978088379,-3.4811692237854004,0.6033388376235962,11.53564453125,-4.5013427734375,0.8697509765625
9.8299999,-9.404424667358398,-3.93367338180542,0.10773907601833344,26.3519287109375,-9.6588134765625,12.481689453125
9.8499999,-8.908824920654297,-4.235342979431152,-0.05746084079146385,40.0848388671875,-12.3748779296875,16.082763671875
9.8699999,-8.638279914855957,-4.127603530883789,0.26575639843940735,46.08154296875,-4.4403076171875,24.0936279296875
9.889999900000001,-8.480262756347656,-3.6152446269989014,0.8810662031173706,19.287109375,16.448974609375,20.2178955078125
9.9099999,-8.559270858764648,-2.8419175148010254,1.4173674583435059,-18.4173583984375,41.6107177734375,0.54931640625
9.9299999,-8.875306129455566,-2.032677173614502,1.5682021379470825,-37.872314453125,52.3223876953125,-19.8822021484375
9.9499999,-9.255983352661133,-1.5394717454910278,1.2761094570159912,-35.1715087890625,39.9932861328125,-30.303955078125
9.969999900000001,-9.660603523254395,-1.5275006294250488,0.7805097699165344,-30.9906005859375,21.3775634765625,-27.4200439453125
9.9899999,-9.821015357971191,-1.9321208000183105,0.3016694188117981,-33.5845947265625,10.5438232421875,-20.56884765625
10.0099999,-9.890447616577148,-2.4899697303771973,0.12449848651885986,-33.38623046875,4.8065185546875,-13.1072998046875
10.0299999,-9.888052940368652,-3.0550012588500977,-0.004788403399288654,-31.6314697265625,1.8310546875,-4.8675537109375
10.049999900000001,-9.967061996459961,-3.5027170181274414,0.10295066982507706,-28.717041015625,-10.55908203125,4.1961669921875
10.069999900000001,-10.0580415725708,-3.756502389907837,0.10773907601833344,-7.0648193359375,-14.6331787109375,5.462646484375
10.0899999,-10.290278434753418,-3.804386615753174,0.2585737705230713,13.12255859375,-12.786865234375,4.547119140625
10.1099999,-10.27591323852539,-3.5434184074401855,0.5889736413955688,17.2119140625,-9.979248046875,2.62451171875
10.129999900000001,-10.110713958740234,-3.1962592601776123,0.871489405632019,-0.1373291015625,3.1280517578125,-3.7994384765625
10.149999900000001,-9.75397777557373,-2.8562827110290527,1.0654197931289673,-2.6702880859375,12.9241943359375,-10.223388671875
10.1699999,-9.337387084960938,-2.698265314102173,1.1037269830703735,-0.091552734375,9.8876953125,-7.3089599609375
10.1899999,-9.17697525024414,-2.7509377002716064,0.8523358106613159,-11.5966796875,1.861572265625,0.030517578125
10.209999900000001,-8.949525833129883,-2.918531894683838,0.5147533416748047,-30.1361083984375,-6.1798095703125,-1.8157958984375
10.229999900000001,-9.059659004211426,-3.179499864578247,0.1867477297782898,15.0299072265625,5.828857421875,-6.0272216796875
10.2499999,-9.074024200439453,-3.3279404640197754,-0.021547814831137657,24.9481201171875,4.8980712890625,-0.8392333984375
10.2699999,-9.193734169006348,-3.4787750244140625,-0.17477671802043915,32.3333740234375,2.7008056640625,1.312255859375
10.2899999,-9.35893440246582,-3.5170822143554688,-0.1604115068912506,39.886474609375,0.0762939453125,-0.8544921875
10.309999900000001,-9.53849983215332,-3.3949780464172363,0.019153613597154617,35.6903076171875,-2.3956298828125,-0.0152587890625
10.3299999,-9.6989107131958,-3.2082302570343018,0.3423708379268646,20.599365234375,-0.4119873046875,1.373291015625
10.3499999,-9.77791976928711,-3.00711727142334,0.7254431247711182,2.1209716796875,3.41796875,0.5645751953125
10.3699999,-9.785101890563965,-2.9041666984558105,0.9552865028381348,-10.9710693359375,6.16455078125,-0.030517578125
10.389999900000001,-9.816226959228516,-2.935291290283203,0.9265560507774353,-3.5552978515625,5.3253173828125,0.18310546875
10.4099999,-9.742006301879883,-3.026270866394043,0.5841852426528931,15.4571533203125,-7.4615478515625,-0.3814697265625
10.4299999,-9.744400978088379,-3.203441858291626,0.2561795711517334,27.6031494140625,-11.3525390625,0.54931640625
10.4499999,-9.682151794433594,-3.332728862762451,0.004788403399288654,39.9322509765625,-6.317138671875,1.0223388671875
10.469999900000001,-9.684545516967773,-3.4524388313293457,0.004788403399288654,43.0450439453125,-3.2196044921875,2.7008056640625
10.4899999,-9.684545516967773,-3.4811692237854004,0.1843535304069519,26.9012451171875,-8.0413818359375,7.14111328125
10.5099999,-9.694122314453125,-3.442862033843994,0.4165911078453064,17.08984375,-12.4053955078125,10.2691650390625
10.5299999,-9.636661529541016,-3.2776620388031006,0.6344634294509888,12.542724609375,-12.1917724609375,10.6658935546875
10.549999900000001,-9.560047149658203,-2.9951462745666504,0.933738648891449,9.1705322265625,-11.1541748046875,11.0015869140625
10.569999900000001,-9.440337181091309,-2.7246015071868896,1.2090718746185303,1.190185546875,-6.53076171875,6.561279296875
10.5899999,-9.327810287475586,-2.518700122833252,1.4844050407409668,-2.5177001953125,1.861572265625,1.129150390625
10.6099999,-9.260771751403809,-2.432508945465088,1.6352397203445435,-2.838134765625,9.3231201171875,-0.152587890625
10.629999900000001,-9.258378028869629,-2.4827871322631836,1.6376339197158813,0.54931640625,12.6953125,0.9765625
10.649999900000001,-9.306262016296387,-2.6024973392486572,1.4748282432556152,2.25830078125,12.908935546875,0.1068115234375
10.6699999,-9.397241592407227,-2.734178304672241,1.237802267074585,-1.2359619140625,11.90185546875,0.5035400390625
10.6899999,-9.502586364746094,-2.9712042808532715,0.8140285611152649,-2.8533935546875,11.749267578125,1.3427734375
10.709999900000001,-9.660603523254395,-3.222595453262329,0.3519476354122162,19.4854736328125,7.049560546875,1.953125
10.729999900000001,-9.832986831665039,-3.4356794357299805,-0.0933738648891449,52.764892578125,-1.77001953125,1.9378662109375
10.7499999,-10.012551307678223,-3.5051112174987793,-0.26096799969673157,68.7255859375,-5.6610107421875,-0.885009765625
10.7699999,-10.163386344909668,-3.335123062133789,-0.14365209639072418,65.97900390625,-4.302978515625,-2.4566650390625
10.7899999,-10.15141487121582,-2.868253707885742,0.3232172429561615,54.5806884765625,-1.5411376953125,-5.706787109375
10.809999900000001,-10.077195167541504,-2.715024709701538,0.646434485912323,55.8624267578125,0.9613037109375,-10.80322265625
10.8299999,-9.971850395202637,-2.3343467712402344,1.0821791887283325,59.417724609375,-1.3885498046875,-10.4827880859375
10.8499999,-9.785101890563965,-2.365471363067627,1.2306196689605713,44.647216796875,0.732421875,-15.350341796875
10.8699999,-9.610325813293457,-2.3774423599243164,1.460463047027588,30.2734375,3.082275390625,-17.2119140625
10.889999900000001,-9.327810287475586,-2.4803929328918457,1.6496049165725708,23.7579345703125,4.1961669921875,-14.8773193359375
10.9099999,-9.026140213012695,-2.6001031398773193,1.7381904125213623,21.1639404296875,12.0086669921875,-9.8419189453125
10.9299999,-8.83699893951416,-2.8634653091430664,1.7286136150360107,17.6849365234375,13.397216796875,-5.767822265625
10.9499999,-8.686163902282715,-3.0095114707946777,1.6160861253738403,13.336181640625,9.613037109375,-2.410888671875
10.969999900000001,-8.793902397155762,-3.1435868740081787,1.4460978507995605,11.8408203125,10.8489990234375,2.8228759765625
10.9899999,-8.959102630615234,-3.1316158771514893,1.278503656387329,10.1318359375,11.688232421875,1.0528564453125
11.0099999,-9.224859237670898,-3.098097085952759,1.1420341730117798,2.7313232421875,10.0860595703125,2.777099609375
11.0299999,-9.564835548400879,-2.9975404739379883,1.0534487962722778,0.30517578125,7.3699951171875,1.3275146484375
11.049999900000001,-9.821015357971191,-2.999934673309326,0.9552865028381348,6.1798095703125,7.659912109375,0.0457763671875
11.069999900000001,-10.06043529510498,-2.9927520751953125,0.9361328482627869,10.5133056640625,8.6517333984375,-0.42724609375
11.0899999,-10.105925559997559,-3.0190882682800293,0.9433154463768005,12.3138427734375,7.0343017578125,-3.143310546875
11.1099999,-10.014945983886719,-3.071760892868042,0.9792284965515137,15.472412109375,6.2713623046875,-2.2735595703125
11.129999900000001,-9.837775230407715,-3.0861260890960693,0.993593692779541,22.2015380859375,10.3607177734375,-0.6256103515625
11.149999900000001,-9.648633003234863,-3.1028854846954346,1.0199298858642578,24.5208740234375,10.833740234375,-1.4190673828125
11.1699999,-9.500192642211914,-3.098097085952759,0.9840168952941895,21.8353271484375,9.7808837890625,-0.2288818359375
11.1899999,-9.337387084960938,-2.985569477081299,1.0031704902648926,22.52197265625,8.636474609375,-0.7171630859375
11.209999900000001,-9.29189682006836,-2.8874073028564453,1.0534487962722778,24.200439453125,14.190673828125,0.4730224609375
11.229999900000001,-9.275136947631836,-2.7557260990142822,1.0869675874710083,20.69091796875,15.2435302734375,-0.1373291015625
11.2499999,-9.289502143859863,-2.631227731704712,1.0869675874710083,14.1448974609375,11.7340087890625,-2.6397705078125
11.2699999,-9.41400146484375,-2.58813214302063,1.0678139925003052,8.5601806640625,8.60595703125,-1.7242431640625
11.2899999,-9.433155059814453,-2.5689783096313477,0.9911994934082031,5.6304931640625,9.002685546875,-3.9215087890625
11.309999900000001,-9.41400146484375,-2.671929121017456,0.9289502501487732,0.640869140625,11.4593505859375,-1.708984375
11.3299999,-9.337387084960938,-2.7126305103302,0.8595184087753296,-3.2501220703125,7.5531005859375,-0.2593994140625
11.3499999,-9.378087997436523,-2.765302896499634,0.7876923680305481,-3.8909912109375,7.1563720703125,1.7547607421875
11.3699999,-9.397241592407227,-2.762908697128296,0.7445967197418213,-6.6070556640625,5.9051513671875,0.4425048828125
11.389999900000001,-9.648633003234863,-2.75812029838562,0.768538773059845,-14.1448974609375,4.4097900390625,-2.0294189453125
11.4099999,-10.113107681274414,-2.896984100341797,0.7230489253997803,-16.693115234375,5.523681640625,-6.89697265625
11.4299999,-10.776301383972168,-2.9975404739379883,0.7182605266571045,-16.7236328125,18.6920166015625,-17.8375244140625
11.4499999,-11.283872604370117,-3.1220390796661377,0.5889736413955688,-13.214111328125,-2.105712890625,-13.3819580078125
11.469999900000001,-11.54244613647461,-3.1292216777801514,0.4213795065879822,-7.904052734375,-11.04736328125,-6.7596435546875
11.4899999,-11.32457447052002,-3.069366693496704,0.3471592366695404,1.1444091796875,-4.669189453125,-10.5743408203125
11.5099999,-10.706870079040527,-3.028665065765381,0.2992752194404602,14.2059326171875,-2.9754638671875,-18.4783935546875
11.5299999,-10.079588890075684,-3.069366693496704,0.3902548849582672,21.8658447265625,-2.8533935546875,-19.775390625
11.549999900000001,-9.557653427124023,-3.134010076522827,0.5410895943641663,23.773193359375,-0.9613037109375,-18.646240234375
11.569999900000001,-9.334992408752441,-3.265691041946411,0.706289529800415,23.62060546875,-0.2288818359375,-18.0511474609375
11.5899999,-9.248801231384277,-3.3470940589904785,0.8619126081466675,20.9197998046875,0.885009765625,-22.674560546875
11.6099999,-9.26795482635498,-3.426102638244629,0.9792284965515137,17.7001953125,-1.3275146484375,-18.2037353515625
11.629999900000001,-9.260771751403809,-3.469198226928711,1.048660397529602,12.542724609375,-4.302978515625,-12.39013671875
11.649999900000001,-9.169792175292969,-3.4739866256713867,1.0678139925003052,6.591796875,-2.685546875,-13.916015625
11.6699999,-9.07641887664795,-3.3734302520751953,1.235408067703247,-0.9307861328125,3.4332275390625,-20.3094482421875
11.6899999,-8.899248123168945,-3.177105665206909,1.2880805730819702,-26.0009765625,12.51220703125,-23.0255126953125
11.709999900000001,-8.700529098510742,-3.002328872680664,1.3503297567367554,-51.5289306640625,21.1639404296875,-18.00537109375
11.729999900000001,-8.487444877624512,-2.9233202934265137,1.139639973640442,-52.7801513671875,25.3143310546875,-7.2021484375
11.7499999,-8.339004516601562,-3.047818660736084,0.6799532771110535,-34.332275390625,18.1427001953125,2.13623046875
11.7699999,-8.336610794067383,-3.3255462646484375,0.07661445438861847,-11.1846923828125,7.7667236328125,8.4381103515625
11.7899999,-8.439560890197754,-3.620033025741577,-0.4668693244457245,9.8419189453125,4.45556640625,9.0789794921875
11.809999900000001,-8.607154846191406,-3.8067808151245117,-0.7709329724311829,26.3824462890625,0.396728515625,9.490966796875
11.8299999,-8.827422142028809,-3.8594532012939453,-0.7924807667732239,34.4390869140625,-3.5247802734375,9.33837890625
11.8499999,-8.99740982055664,-3.778050184249878,-0.5267243981361389,35.5682373046875,-4.3792724609375,0.8087158203125
11.8699999,-9.107542991638184,-3.624821424484253,-0.090979665517807,30.7159423828125,1.373291015625,-8.4228515625
11.889999900000001,-9.11233139038086,-3.466804027557373,0.3974374830722809,23.345947265625,7.659912109375,-8.3465576171875
11.9099999,-8.999804496765137,-3.3446998596191406,0.8259995579719543,16.326904296875,8.2244873046875,-1.800537109375
11.9299999,-8.832210540771484,-3.2824504375457764,1.1348515748977661,9.765625,6.2713623046875,3.265380859375
11.9499999,-8.702922821044922,-3.2609026432037354,1.3048399686813354,2.777099609375,6.256103515625,4.7454833984375
11.969999900000001,-8.647856712341309,-3.2848446369171143,1.3503297567367554,-2.9449462890625,5.859375,5.0811767578125
11.9899999,-8.683769226074219,-3.3231520652770996,1.3048399686813354,-5.7373046875,-1.9378662109375,6.8206787109375
12.0099999,-8.791508674621582,-3.383007049560547,1.2186486721038818,-7.38525390625,-13.7786865234375,8.0108642578125
12.0299999,-8.9064302444458,-3.442862033843994,1.1300631761550903,-10.19287109375,-19.5159912109375,6.5460205078125
12.049999900000001,-8.978256225585938,-3.488351821899414,1.072602391242981,-15.6402587890625,-14.9993896484375,3.4637451171875
12.069999900000001,-9.026140213012695,-3.5458126068115234,1.0462661981582642,-21.8048095703125,-6.683349609375,0.42724609375
12.0899999,-9.078812599182129,-3.6104562282562256,1.0319008827209473,-25.1922607421875,-3.662109375,-2.716064453125
12.1099999,-9.150638580322266,-3.708618402481079,1.0199298858642578,-25.4974365234375,-7.4005126953125,-6.561279296875
12.129999900000001,-9.258378028869629,-3.8331170082092285,1.0031704902648926,-24.5819091796875,-12.3291015625,-8.575439453125
12.149999900000001,-9.363722801208496,-3.957615375518799,0.9792284965515137,-23.406982421875,-16.204833984375,-7.720947265625
12.1699999,-9.421183586120605,-4.07014274597168,0.9600749015808105,-23.5137939453125,-17.333984375,-6.500244140625
12.1899999,-9.442731857299805,-4.158728122711182,0.9241618514060974,-21.0113525390625,-15.31982421875,-5.9814453125
12.209999900000001,-9.437943458557129,-4.20421838760376,0.8762778043746948,-14.007568359375,-15.594482421875,-6.011962890625
12.229999900000001,-9.411606788635254,-4.216189384460449,0.8427590131759644,-8.8653564453125,-18.3258056640625,-5.8746337890625
12.2499999,-9.387664794921875,-4.170699596405029,0.8164227604866028,-7.6141357421875,-17.6239013671875,-6.2255859375
12.2699999,-9.344569206237793,-4.089296340942383,0.811634361743927,-6.561279296875,-13.763427734375,-8.23974609375
12.289999900000002,-9.282320022583008,-3.9839515686035156,0.8140285611152649,-5.279541015625,-11.5203857421875,-10.467529296875
12.309999900000001,-9.227252960205078,-3.885789394378662,0.8212111592292786,-5.3863525390625,-11.077880859375,-11.1083984375
12.3299999,-9.188945770263672,-3.8115692138671875,0.8259995579719543,-6.744384765625,-9.1094970703125,-10.5438232421875
12.3499999,-9.169792175292969,-3.7660791873931885,0.8403648138046265,-7.5836181640625,-6.927490234375,-9.918212890625
12.3699999,-9.184157371520996,-3.7421371936798096,0.8619126081466675,-7.0953369140625,-6.927490234375,-8.1024169921875
12.389999900000001,-9.222464561462402,-3.7421371936798096,0.8667010068893433,-6.072998046875,-9.735107421875,-4.8370361328125
12.4099999,-9.277531623840332,-3.7445313930511475,0.8667010068893433,-5.462646484375,-13.702392578125,-1.28173828125
12.4299999,-9.334992408752441,-3.7397429943084717,0.8571242094039917,-7.293701171875,-11.871337890625,-0.244140625
12.4499999,-9.373299598693848,-3.73016619682312,0.828393816947937,-9.368896484375,-3.5552978515625,-2.7008056640625
12.469999900000001,-9.370905876159668,-3.713406801223755,0.7996633648872375,-9.002685546875,2.7923583984375,-5.06591796875
12.4899999,-9.354146003723145,-3.706224203109741,0.7589619159698486,-8.148193359375,4.39453125,-5.035400390625
12.5099999,-9.332598686218262,-3.734954595565796,0.7230489253997803,-6.5765380859375,2.960205078125,-3.631591796875
12.5299999,-9.327810287475586,-3.780444383621216,0.7038952708244324,-3.631591796875,-0.67138671875,-1.6937255859375
12.549999900000001,-9.332598686218262,-3.8355112075805664,0.7182605266571045,-1.129150390625,-2.5634765625,-0.091552734375
12.569999900000001,-9.148244857788086,-3.9815573692321777,0.7733271718025208,4.547119140625,5.096435546875,6.011962890625
12.5899999,-9.033323287963867,-4.0078935623168945,0.7996633648872375,7.293701171875,13.580322265625,15.106201171875
12.6099999,-8.932766914367676,-4.0078935623168945,0.8427590131759644,12.02392578125,18.06640625,21.697998046875
12.629999900000001,-8.96389102935791,-3.931279182434082,0.8762778043746948,19.4854736328125,12.14599609375,27.4505615234375
12.649999900000001,-9.114726066589355,-3.8283286094665527,0.9002198576927185,26.1383056640625,0.8392333984375,31.280517578125
12.6699999,-9.330204010009766,-3.6942532062530518,0.9409212470054626,31.5093994140625,-12.4969482421875,28.38134765625
12.6899999,-9.567230224609375,-3.557783842086792,1.048660397529602,30.120849609375,-16.1285400390625,16.5252685546875
12.709999900000001,-9.749189376831055,-3.426102638244629,1.2066776752471924,25.08544921875,-8.5296630859375,2.4261474609375
12.729999900000001,-9.890447616577148,-3.3662476539611816,1.3982137441635132,18.3563232421875,0.2593994140625,-9.1705322265625
12.7499999,-10.000580787658691,-3.3686418533325195,1.5729905366897583,13.1683349609375,-2.1820068359375,-19.6990966796875
12.7699999,-10.019734382629395,-3.44765043258667,1.6735470294952393,11.2457275390625,-15.80810546875,-29.571533203125
12.789999900000002,-9.749189376831055,-3.584120035171509,1.7118542194366455,8.575439453125,-17.7764892578125,-32.379150390625
12.809999900000001,-9.41639518737793,-3.7852327823638916,1.659181833267212,6.134033203125,10.528564453125,-23.6968994140625
12.8299999,-9.040505409240723,-3.974374771118164,1.5897499322891235,14.95361328125,14.83154296875,-9.8724365234375
12.8499999,-8.789113998413086,-4.156333923339844,1.5155296325683594,21.3470458984375,-1.068115234375,-11.4288330078125
12.8699999,-8.803479194641113,-4.266467571258545,1.4772224426269531,17.7001953125,-8.30078125,-24.3072509765625
12.889999900000001,-8.889671325683594,-4.2760443687438965,1.4939818382263184,15.106201171875,-4.9591064453125,-29.541015625
12.9099999,-8.848969459533691,-4.216189384460449,1.5490485429763794,13.1378173828125,-6.53076171875,-22.857666015625
12.9299999,-8.69095230102539,-4.10366153717041,1.6304513216018677,5.1116943359375,-4.9896240234375,-14.678955078125
12.9499999,-8.461109161376953,-3.9839515686035156,1.699883222579956,-5.7220458984375,8.11767578125,-8.5906982421875
12.969999900000001,-8.271966934204102,-3.890577793121338,1.7525556087493896,-13.458251953125,17.303466796875,-1.2054443359375
12.9899999,-8.22887134552002,-3.84269380569458,1.7501614093780518,-19.8211669921875,15.2130126953125,7.26318359375
13.0099999,-8.339004516601562,-3.840299606323242,1.6879122257232666,-27.89306640625,12.6495361328125,11.7950439453125
13.0299999,-8.576030731201172,-3.88818359375,1.534683346748352,-35.7513427734375,21.575927734375,10.8795166015625
13.049999900000001,-8.87051773071289,-3.952826976776123,1.314416766166687,-37.7655029296875,32.16552734375,9.4146728515625
13.069999900000001,-9.210494041442871,-4.036623954772949,1.0247182846069336,-31.3873291015625,31.951904296875,8.6822509765625
13.0899999,-9.555258750915527,-4.137180328369141,0.7230489253997803,-20.782470703125,19.04296875,5.79833984375
13.1099999,-9.8784761428833,-4.194641590118408,0.4908113479614258,-11.8560791015625,3.173828125,0.4119873046875
13.129999900000001,-10.08198356628418,-4.264073371887207,0.3519476354122162,-5.1422119140625,-2.7618408203125,-8.48388671875
13.149999900000001,-10.137049674987793,-4.304774761199951,0.3447650372982025,2.197265625,-7.6751708984375,-15.4876708984375
13.1699999,-10.005369186401367,-4.347870349884033,0.4357447028160095,6.591796875,-13.031005859375,-18.9666748046875
13.1899999,-9.710882186889648,-4.400542736053467,0.5841852426528931,7.5531005859375,-14.09912109375,-19.8974609375
13.209999900000001,-9.342175483703613,-4.448426723480225,0.7613561153411865,8.4228515625,-9.6282958984375,-18.3258056640625
13.229999900000001,-8.968679428100586,-4.491522312164307,0.9241618514060974,9.4146728515625,-6.134033203125,-14.1754150390625
13.2499999,-8.667010307312012,-4.5154643058776855,1.0654197931289673,9.27734375,-6.927490234375,-9.521484375
13.2699999,-8.468291282653809,-4.529829502105713,1.170764684677124,7.26318359375,-6.195068359375,-6.8817138671875
13.289999900000002,-8.365341186523438,-4.520252704620361,1.2282254695892334,4.9591064453125,-1.373291015625,-6.89697265625
13.309999900000001,-8.343792915344238,-4.484339714050293,1.280897855758667,2.2125244140625,3.631591796875,-7.7972412109375
13.3299999,-8.389283180236816,-4.4292731285095215,1.3000515699386597,-2.105712890625,7.5531005859375,-8.1939697265625
13.3499999,-8.47547435760498,-4.381389141082764,1.316810965538025,-5.096435546875,7.110595703125,-6.6986083984375
13.3699999,-8.604761123657227,-4.335899353027344,1.3311761617660522,-7.75146484375,4.33349609375,-4.08935546875
13.389999900000001,-8.7268648147583,-4.307168960571289,1.3311761617660522,-10.5743408203125,3.4332275390625,-3.3111572265625
13.4099999,-8.825027465820312,-4.290409564971924,1.3215993642807007,-12.0086669921875,3.387451171875,-4.3182373046875
13.4299999,-8.87051773071289,-4.2951979637146,1.280897855758667,-11.7950439453125,1.7242431640625,-4.669189453125
13.4499999,-8.848969459533691,-4.326322555541992,1.2258312702178955,-10.7879638671875,-2.532958984375,-3.11279296875
13.469999900000001,-8.769960403442383,-4.388571739196777,1.161187767982483,-10.6201171875,-5.5084228515625,-1.3427734375
13.4899999,-8.674192428588867,-4.455609321594238,1.1085153818130493,-11.41357421875,-4.8980712890625,-1.0528564453125
13.5099999,-8.580819129943848,-4.513070106506348,1.0821791887283325,-12.26806640625,-3.5858154296875,-1.3580322265625
13.5299999,-8.552088737487793,-4.541800498962402,1.0749965906143188,-12.0391845703125,-5.6915283203125,-0.2593994140625
13.549999900000001,-8.571242332458496,-4.537012100219727,1.0797849893569946,-11.53564453125,-10.92529296875,1.220703125
13.569999900000001,-8.638279914855957,-4.49870491027832,1.0965443849563599,-12.1612548828125,-13.3819580078125,0.3814697265625
13.5899999,-8.712499618530273,-4.4292731285095215,1.1109095811843872,-14.129638671875,-8.8653564453125,-1.678466796875
13.6099999,-8.762778282165527,-4.323928356170654,1.1204863786697388,-15.228271484375,-2.838134765625,-2.044677734375
13.629999900000001,-8.786720275878906,-4.20421838760376,1.1324573755264282,-14.2822265625,-0.48828125,0.6256103515625
13.649999900000001,-8.789113998413086,-4.082113742828369,1.1109095811843872,-12.481689453125,-2.1820068359375,4.82177734375
13.6699999,-8.779537200927734,-3.971980571746826,1.1061211824417114,-10.467529296875,-7.415771484375,8.8958740234375
13.6899999,-8.774748802185059,-3.869029998779297,1.1061211824417114,-10.1776123046875,-9.21630859375,13.397216796875
13.709999900000001,-8.98543930053711,-3.8498764038085938,1.1563993692398071,-10.5438232421875,-7.7667236328125,19.439697265625
13.729999900000001,-9.41639518737793,-3.971980571746826,1.161187767982483,-13.1072998046875,-2.349853515625,13.3056640625
13.7499999,-9.761159896850586,-4.101267337799072,1.1444283723831177,-14.892578125,2.3956298828125,-8.23974609375
13.7699999,-10.194510459899902,-4.2544965744018555,1.0271124839782715,-12.908935546875,-1.190185546875,3.7078857421875
13.789999900000002,-10.093954086303711,-4.28322696685791,0.871489405632019,-8.453369140625,0.2593994140625,4.3182373046875
13.809999900000001,-9.888052940368652,-4.14915132522583,0.6967126727104187,-3.9520263671875,-0.8697509765625,-3.173828125
13.8299999,-9.536105155944824,-4.065354347229004,0.5578489899635315,-1.77001953125,-3.2806396484375,-8.270263671875
13.8499999,-9.244012832641602,-4.027047157287598,0.45489832758903503,-0.1068115234375,-6.805419921875,-10.986328125
13.8699999,-9.047688484191895,-4.132391929626465,0.40940847992897034,3.9215087890625,-9.307861328125,-10.80322265625
13.889999900000001,-8.913613319396973,-4.364629745483398,0.37828385829925537,6.28662109375,-11.993408203125,-9.918212890625
13.9099999,-8.83939266204834,-4.616020679473877,0.4165911078453064,9.8114013671875,-14.7705078125,-7.0953369140625
13.9299999,-8.808267593383789,-4.817133903503418,0.5147533416748047,13.5498046875,-16.7236328125,-3.5858154296875
13.9499999,-8.779537200927734,-4.9152960777282715,0.7445967197418213,14.8468017578125,-17.2271728515625,-1.3885498046875
13.969999900000001,-8.765172004699707,-4.908113479614258,1.048660397529602,12.14599609375,-15.3045654296875,-0.0457763671875
13.9899999,-8.722076416015625,-4.841075897216797,1.4484920501708984,9.1705322265625,-11.53564453125,1.0986328125
14.0099999,-8.664615631103516,-4.8602294921875,1.86508309841156,3.2958984375,-7.476806640625,4.7454833984375
14.0299999,-8.559270858764648,-5.015852451324463,2.1954829692840576,-7.598876953125,-0.244140625,15.7928466796875
14.049999900000001,-8.382100105285645,-5.427655220031738,2.403778553009033,-15.07568359375,3.0364990234375,37.3077392578125
14.069999900000001,-8.236053466796875,-5.731719017028809,2.4875755310058594,-19.775390625,3.814697265625,48.4466552734375
14.0899999,-8.106766700744629,-5.896918773651123,2.5019407272338867,-27.7862548828125,7.5225830078125,58.4869384765625
14.1099999,-8.125920295715332,-5.698200225830078,2.33913516998291,-31.7230224609375,13.00048828125,62.5457763671875
14.129999900000001,-8.305485725402832,-5.190629482269287,2.0853497982025146,-25.87890625,16.2353515625,61.279296875
14.149999900000001,-8.592789649963379,-4.541800498962402,1.6280571222305298,-18.06640625,12.4969482421875,61.21826171875
14.1699999,-8.911218643188477,-3.758896589279175,0.9959878921508789,-12.298583984375,5.584716796875,53.4515380859375
14.1899999,-9.41400146484375,-3.026270866394043,0.3280056416988373,-3.448486328125,3.3111572265625,39.9169921875
14.209999900000001,-9.737217903137207,-2.367865562438965,-0.1628057211637497,10.6964111328125,-3.662109375,34.698486328125
14.229999900000001,-10.074800491333008,-1.7908629179000854,-0.2753331959247589,10.9100341796875,-10.0555419921875,30.059814453125
14.2499999,-10.204087257385254,-1.41257905960083,-0.033518824726343155,-4.6539306640625,-13.3056640625,20.32470703125
14.2699999,-10.163386344909668,-1.2330138683319092,0.43335050344467163,-20.843505859375,-13.3514404296875,9.307861328125
14.289999900000002,-10.010157585144043,-1.2737152576446533,0.9983820915222168,-27.4658203125,-12.9852294921875,2.4261474609375
14.309999900000001,-9.856928825378418,-1.41257905960083,1.3670891523361206,-28.4271240234375,-12.1917724609375,-1.068115234375
14.3299999,-9.751583099365234,-1.7597382068634033,1.4891934394836426,-23.86474609375,-10.284423828125,-7.2174072265625
14.3499999,-9.694122314453125,-2.1811177730560303,1.3479355573654175,-6.4849853515625,-8.5906982421875,-14.495849609375
14.3699999,-9.617507934570312,-2.6623523235321045,1.1037269830703735,15.68603515625,-9.2315673828125,-15.2435302734375
14.389999900000001,-9.528923034667969,-3.1292216777801514,0.8619126081466675,27.2369384765625,-9.7808837890625,-12.3443603515625
14.4099999,-9.409213066101074,-3.5913026332855225,0.7445967197418213,33.203125,-8.148193359375,-10.467529296875
14.4299999,-9.301473617553711,-3.8762125968933105,0.8834604024887085,40.2984619140625,-6.0882568359375,-5.8135986328125
14.4499999,-9.246406555175781,-3.928884983062744,1.2330138683319092,37.689208984375,-5.4931640625,1.9683837890625
14.469999900000001,-9.227252960205078,-3.7684733867645264,1.7190368175506592,21.6217041015625,-2.777099609375,6.6680908203125
14.4899999,-9.222464561462402,-3.428496837615967,2.2457611560821533,2.777099609375,2.74658203125,5.79833984375
14.5099999,-9.248801231384277,-2.9759926795959473,2.698265314102173,-12.0086669921875,7.843017578125,4.852294921875
14.5299999,-9.294290542602539,-2.5929205417633057,2.8586769104003906,-26.0162353515625,9.6893310546875,5.4779052734375
14.549999900000001,-9.342175483703613,-2.432508945465088,2.674323320388794,-33.5845947265625,9.979248046875,4.1656494140625
14.569999900000001,-9.399636268615723,-2.540247917175293,2.2002713680267334,-26.947021484375,10.07080078125,3.8909912109375
14.5899999,-9.421183586120605,-2.8179752826690674,1.5825673341751099,-12.2528076171875,8.9569091796875,9.368896484375
14.6099999,-9.423578262329102,-3.090914487838745,1.0055646896362305,-1.0528564453125,7.659912109375,11.8560791015625
14.629999900000001,-9.440337181091309,-3.177105665206909,0.646434485912323,3.662109375,10.25390625,6.2408447265625
14.649999900000001,-9.497797966003418,-3.045424461364746,0.5123591423034668,2.2430419921875,15.5181884765625,9.33837890625
14.6699999,-9.53849983215332,-2.6862943172454834,0.5099649429321289,-6.28662109375,14.3280029296875,17.364501953125
14.6899999,-9.660603523254395,-2.341529369354248,0.5506663918495178,-15.350341796875,11.3677978515625,17.4560546875
14.709999900000001,-9.713275909423828,-2.0829553604125977,0.6512228846549988,-20.0958251953125,7.0037841796875,4.302978515625
14.729999900000001,-9.763554573059082,-2.094926595687866,0.7493851184844971,-18.5089111328125,-0.091552734375,-7.659912109375
14.7499999,-9.765948295593262,-2.367865562438965,0.8595184087753296,-11.3525390625,-7.1563720703125,-10.955810546875
14.7699999,-9.682151794433594,-2.8347349166870117,0.933738648891449,0.152587890625,-8.819580078125,-8.453369140625
14.789999900000002,-9.531316757202148,-3.3039982318878174,0.9911994934082031,12.3443603515625,-5.889892578125,-2.74658203125
14.809999900000001,-9.366117477416992,-3.579331636428833,1.0678139925003052,20.4620361328125,-0.4730224609375,-1.5716552734375
14.8299999,-9.296685218811035,-3.600879430770874,1.1803414821624756,23.468017578125,3.1280517578125,-2.7618408203125
14.8499999,-9.320627212524414,-3.3949780464172363,1.292868971824646,22.7203369140625,3.35693359375,-1.5716552734375
14.8699999,-9.435548782348633,-3.0526070594787598,1.3646949529647827,17.852783203125,2.044677734375,-0.54931640625
14.889999900000001,-9.567230224609375,-2.719813108444214,1.3431471586227417,8.5601806640625,0.2899169921875,-2.685546875
14.9099999,-9.66299819946289,-2.427720546722412,1.235408067703247,0.8392333984375,-2.6092529296875,-5.8441162109375
14.9299999,-9.725247383117676,-2.279279947280884,1.1252747774124146,-2.3651123046875,-6.866455078125,-6.591796875
14.9499999,-9.758766174316406,-2.27209734916687,1.0749965906143188,-3.0975341796875,-7.904052734375,-5.9814453125
14.969999900000001,-9.725247383117676,-2.410961151123047,1.1061211824417114,-1.3580322265625,-4.1656494140625,-4.1961669921875
14.9899999,-9.634267807006836,-2.6192567348480225,1.1899182796478271,2.9144287109375,-0.1678466796875,-0.4425048828125
15.0099999,-9.495404243469238,-2.806004285812378,1.290474772453308,7.62939453125,0.4119873046875,1.15966796875
15.0299999,-9.378087997436523,-2.9759926795959473,1.400607943534851,8.026123046875,-0.1983642578125,-1.0528564453125
15.049999900000001,-9.29189682006836,-3.0813376903533936,1.534683346748352,0.5950927734375,1.7242431640625,-1.3427734375
15.069999900000001,-9.232041358947754,-3.155557870864868,1.702277421951294,-10.894775390625,3.662109375,1.6021728515625
15.0899999,-9.184157371520996,-3.1459810733795166,1.845929503440857,-19.6685791015625,4.8980712890625,1.28173828125
15.1099999,-9.196128845214844,-3.1459810733795166,1.8770540952682495,-20.0042724609375,7.049560546875,-1.7852783203125
15.129999900000001,-9.241618156433105,-3.1100680828094482,1.7286136150360107,-12.1917724609375,10.1470947265625,-2.1209716796875
15.149999900000001,-9.344569206237793,-3.0597896575927734,1.4173674583435059,1.068115234375,11.90185546875,-0.4119873046875
15.1699999,-9.524134635925293,-2.96162748336792,1.0319008827209473,15.7012939453125,10.2081298828125,-3.6773681640625
15.1899999,-9.6989107131958,-2.801215887069702,0.7206547260284424,22.0489501953125,6.1798095703125,-10.528564453125
15.209999900000001,-9.830592155456543,-2.5713725090026855,0.586579442024231,12.5885009765625,2.7313232421875,-13.5345458984375
15.229999900000001,-9.871294021606445,-2.408566951751709,0.646434485912323,-3.7994384765625,1.129150390625,-13.4735107421875
15.2499999,-9.804255485534668,-2.346317768096924,0.8667010068893433,-12.237548828125,-0.762939453125,-14.09912109375
15.2699999,-9.655815124511719,-2.557007312774658,1.1037269830703735,-13.6566162109375,-0.1983642578125,-14.6026611328125
15.289999900000002,-9.478644371032715,-2.920926094055176,1.2234370708465576,-13.214111328125,2.197265625,-12.2528076171875
15.309999900000001,-9.344569206237793,-3.361459255218506,1.1444283723831177,-4.2724609375,1.739501953125,-7.7362060546875
15.3299999,-9.27034854888916,-3.8307228088378906,0.9217676520347595,13.73291015625,-1.0833740234375,-4.5623779296875
15.3499999,-9.246406555175781,-4.120420932769775,0.6440402865409851,28.6102294921875,-3.7689208984375,-0.79345703125
15.3699999,-9.272743225097656,-4.072536945343018,0.5123591423034668,31.25,-4.2266845703125,3.0059814453125
15.389999900000001,-9.339780807495117,-3.758896589279175,0.5937620401382446,24.7802734375,-5.035400390625,2.99072265625
15.4099999,-9.41400146484375,-3.2178070545196533,0.9888052940368652,13.671875,-7.171630859375,-3.814697265625
15.4299999,-9.445125579833984,-2.650381326675415,1.4987702369689941,-4.0740966796875,-3.2501220703125,-10.55908203125
15.4499999,-9.493009567260742,-2.3127987384796143,1.886630892753601,-20.538330078125,4.21142578125,-10.7421875
15.469999900000001,-9.48343276977539,-2.2457611560821533,2.051830768585205,-25.57373046875,4.9285888671875,-9.27734375
15.4899999,-9.457097053527832,-2.5450363159179688,1.8746598958969116,-20.050048828125,-0.030517578125,-7.9345703125
15.5099999,-9.39245319366455,-3.066972494125366,1.436521053314209,-10.92529296875,-2.50244140625,-6.34765625
15.5299999,-9.337387084960938,-3.667917013168335,0.9289502501487732,3.0975341796875,-2.6702880859375,-2.9144287109375
15.549999900000001,-9.279925346374512,-4.101267337799072,0.586579442024231,18.7225341796875,-4.1351318359375,1.1138916015625
15.569999900000001,-9.330204010009766,-4.199429988861084,0.5626373887062073,20.6146240234375,-5.6610107421875,3.173828125
15.5899999,-9.306262016296387,-3.950432777404785,0.8092401623725891,5.4473876953125,-6.9122314453125,1.9683837890625
15.6099999,-9.346963882446289,-3.4548330307006836,1.213860273361206,-13.24462890625,-0.30517578125,0.274658203125
15.629999900000001,-9.351752281188965,-2.9712042808532715,1.5322890281677246,-19.775390625,-0.0457763671875,-1.953125
15.649999900000001,-9.387664794921875,-2.6671407222747803,1.6974890232086182,-17.333984375,-2.899169921875,-4.974365234375
15.6699999,-9.44752025604248,-2.647987127304077,1.6759412288665771,-13.9617919921875,-1.8157958984375,-8.4686279296875
15.6899999,-9.44991397857666,-2.8610711097717285,1.5179238319396973,-5.79833984375,1.251220703125,-8.8653564453125
15.709999900000001,-9.454702377319336,-3.2082302570343018,1.2832920551300049,7.6904296875,2.227783203125,-7.4310302734375
15.729999900000001,-9.337387084960938,-3.5960910320281982,0.993593692779541,19.59228515625,-3.8909912109375,-5.950927734375
15.7499999,-9.313444137573242,-3.8355112075805664,0.8068459630012512,19.927978515625,-3.0670166015625,-4.5166015625
15.7699999,-9.255983352661133,-3.909731388092041,0.8164227604866028,13.85498046875,-1.7547607421875,0.6866455078125
15.789999900000002,-9.244012832641602,-3.8355112075805664,1.0534487962722778,4.82177734375,-3.90625,3.2806396484375
15.809999900000001,-9.23682975769043,-3.627215623855591,1.4532804489135742,-5.8746337890625,-5.645751953125,2.7618408203125
15.8299999,-9.21288776397705,-3.4165258407592773,1.8315643072128296,-17.0135498046875,-2.0904541015625,2.7923583984375
15.8499999,-9.241618156433105,-3.227383852005005,2.054224967956543,-26.031494140625,3.0059814453125,4.3487548828125
15.869999900000002,-9.188945770263672,-3.1938650608062744,2.0254945755004883,-25.87890625,-0.396728515625,3.23486328125
15.889999900000001,-9.239224433898926,-3.2776620388031006,1.6903064250946045,-16.9677734375,1.77001953125,0.6866455078125
15.9099999,-9.282320022583008,-3.4596214294433594,1.1994950771331787,-1.861572265625,2.9754638671875,4.2724609375
15.9299999,-9.35893440246582,-3.581725835800171,0.7469909191131592,9.7808837890625,-3.387451171875,6.7138671875
15.9499999,-9.442731857299805,-3.5913026332855225,0.5099649429321289,12.2528076171875,-10.284423828125,4.5623779296875
15.969999900000001,-9.47146224975586,-3.471592426300049,0.6368576288223267,11.5509033203125,-8.7738037109375,-0.732421875
15.9899999,-9.488221168518066,-3.265691041946411,1.0127472877502441,5.950927734375,-3.8909912109375,-1.89208984375
16.0099999,-9.330204010009766,-3.090914487838745,1.556231141090393,-7.9193115234375,-4.9591064453125,-1.129150390625
16.0299999,-9.265560150146484,-3.002328872680664,1.9823989868164062,-20.99609375,1.64794921875,-2.2125244140625
16.0499999,-9.205705642700195,-3.064578056335449,2.1523873805999756,-18.096923828125,8.7738037109375,-0.9613037109375
16.0699999,-9.205705642700195,-3.2082302570343018,2.0207061767578125,-7.9345703125,6.9580078125,2.13623046875
16.089999900000002,-9.29189682006836,-3.3877954483032227,1.7118542194366455,-2.8228759765625,1.617431640625,3.662109375
16.109999900000002,-9.404424667358398,-3.531447410583496,1.1755530834197998,3.47900390625,5.2947998046875,0.274658203125
16.1299999,-9.3828763961792,-3.4356794357299805,1.1755530834197998,-6.0882568359375,1.9378662109375,1.46484375
16.1499999,-9.363722801208496,-3.31118106842041,1.2473790645599365,-19.53125,1.2664794921875,2.8076171875
16.1699999,-9.320627212524414,-3.227383852005005,1.278503656387329,-20.3857421875,3.0670166015625,-1.0528564453125
16.1899999,-9.315838813781738,-3.2082302570343018,1.2856862545013428,-12.9547119140625,7.0343017578125,-2.1820068359375
16.2099999,-9.390059471130371,-3.251325845718384,1.1468225717544556,-11.9781494140625,4.638671875,3.936767578125
16.2299999,-9.435548782348633,-3.318363666534424,1.0103530883789062,-12.1002197265625,-2.716064453125,5.1116943359375
16.249999900000002,-9.536105155944824,-3.375824451446533,0.8044517636299133,-2.3651123046875,-3.72314453125,-1.77001953125
16.269999900000002,-9.502586364746094,-3.4332852363586426,0.6368576288223267,14.6636962890625,-4.241943359375,-5.43212890625
16.2899999,-9.466673851013184,-3.4165258407592773,0.6105214357376099,20.111083984375,-5.096435546875,-2.2430419921875
16.3099999,-9.35654067993164,-3.4141316413879395,0.7015010714530945,11.4593505859375,-7.415771484375,-1.6632080078125
16.3299999,-9.315838813781738,-3.3518824577331543,1.0342950820922852,1.7242431640625,-4.8370361328125,-4.45556640625
16.3499999,-9.294290542602539,-3.315969467163086,1.3934253454208374,-4.33349609375,0.0457763671875,-1.0986328125
16.3699999,-9.265560150146484,-3.31118106842041,1.6879122257232666,-9.21630859375,-1.678466796875,4.5928955078125
16.3899999,-9.299078941345215,-3.3063924312591553,1.7932571172714233,-12.115478515625,-3.41796875,2.288818359375
16.4099999,-9.275136947631836,-3.361459255218506,1.745373010635376,-6.195068359375,-2.1820068359375,-0.5035400390625
16.429999900000002,-9.287108421325684,-3.3518824577331543,1.623268723487854,-1.7242431640625,-0.396728515625,0.152587890625
16.4499999,-9.284713745117188,-3.332728862762451,1.5107412338256836,-8.575439453125,-0.0762939453125,-0.0762939453125
16.4699999,-9.258378028869629,-3.3255462646484375,1.4101848602294922,-13.9007568359375,1.5716552734375,-2.50244140625
16.4899999,-9.342175483703613,-3.361459255218506,1.290474772453308,-9.490966796875,4.1656494140625,-2.2735595703125
16.5099999,-9.320627212524414,-3.3925838470458984,1.1492167711257935,-0.1983642578125,0.48828125,2.38037109375
16.5299999,-9.378087997436523,-3.4380736351013184,1.0103530883789062,3.5858154296875,-2.9449462890625,2.1514892578125
16.5499999,-9.375694274902344,-3.44765043258667,0.9576807022094727,5.2337646484375,-3.631591796875,-0.946044921875
16.5699999,-9.394847869873047,-3.378218650817871,1.0199298858642578,9.368896484375,-1.3427734375,-2.6092529296875
16.589999900000002,-9.32541561126709,-3.3039982318878174,1.1779472827911377,4.1961669921875,-0.4425048828125,-1.46484375
16.609999900000002,-9.301473617553711,-3.2609026432037354,1.3886369466781616,-9.033203125,0.7781982421875,-2.410888671875
16.6299999,-9.308655738830566,-3.227383852005005,1.5179238319396973,-14.5721435546875,1.8310546875,-2.2125244140625
16.6499999,-9.315838813781738,-3.3207578659057617,1.5466543436050415,-10.25390625,0.823974609375,1.5716552734375
16.6699999,-9.320627212524414,-3.466804027557373,1.4053963422775269,-3.7841796875,-2.9296875,2.01416015625
16.6899999,-9.346963882446289,-3.5913026332855225,1.1971008777618408,2.3345947265625,-4.486083984375,1.4495849609375
16.7099999,-9.366117477416992,-3.603273630142212,1.0199298858642578,9.70458984375,-4.1656494140625,0.48828125
16.7299999,-9.337387084960938,-3.4955344200134277,1.0271124839782715,10.650634765625,-4.974365234375,-0.732421875
16.749999900000002,-9.354146003723145,-3.287238836288452,1.216254472732544,-1.77001953125,-2.4261474609375,-4.180908203125
16.769999900000002,-9.339780807495117,-3.136404275894165,1.4628572463989258,-15.472412109375,-0.457763671875,-2.5482177734375
16.7899999,-9.35654067993164,-3.098097085952759,1.6304513216018677,-20.44677734375,-0.640869140625,2.7618408203125
16.8099999,-9.30386734008789,-3.24414324760437,1.6424223184585571,-14.984130859375,-3.814697265625,2.2735595703125
16.8299999,-9.296685218811035,-3.4739866256713867,1.4748282432556152,-2.4261474609375,-2.7008056640625,-0.48828125
16.8499999,-9.277531623840332,-3.60566782951355,1.3455413579940796,7.6751708984375,-0.396728515625,1.64794921875
16.8699999,-9.23443603515625,-3.6942532062530518,1.2761094570159912,5.8135986328125,-0.732421875,5.157470703125
16.8899999,-9.287108421325684,-3.6128504276275635,1.280897855758667,-3.0517578125,1.6632080078125,0.457763671875
16.9099999,-9.296685218811035,-3.4189200401306152,1.3287819623947144,-3.753662109375,2.3651123046875,-0.3509521484375
16.929999900000002,-9.373299598693848,-3.2178070545196533,1.4484920501708984,-5.2337646484375,0.6103515625,3.814697265625
16.9499999,-9.406818389892578,-3.0095114707946777,1.4772224426269531,-11.4288330078125,-2.4566650390625,-0.1373291015625
16.9699999,-9.435548782348633,-2.892195701599121,1.534683346748352,-11.474609375,1.64794921875,-9.3231201171875
16.9899999,-9.437943458557129,-2.9065608978271484,1.4269442558288574,-2.6397705078125,3.7384033203125,-10.0555419921875
17.0099999,-9.385271072387695,-3.220201253890991,1.3000515699386597,5.31005859375,0.762939453125,-4.6234130859375
17.0299999,-9.301473617553711,-3.555389642715454,1.173158884048462,6.6070556640625,1.5869140625,-2.0294189453125
17.0499999,-9.188945770263672,-3.890577793121338,1.0630255937576294,10.589599609375,4.08935546875,0.5035400390625
17.0699999,-9.157821655273438,-3.97916316986084,1.0893617868423462,11.4898681640625,2.593994140625,5.5999755859375
17.089999900000002,-9.157821655273438,-3.818751811981201,1.137245774269104,3.4027099609375,-2.410888671875,4.82177734375
17.109999900000002,-9.260771751403809,-3.514688014984131,1.2665326595306396,-4.608154296875,-2.0751953125,-1.0223388671875
17.1299999,-9.370905876159668,-3.2178070545196533,1.3623007535934448,-5.157470703125,-1.3275146484375,-2.716064453125
17.1499999,-9.433155059814453,-3.050212860107422,1.4915876388549805,-6.40869140625,-2.7008056640625,-1.2969970703125
17.1699999,-9.433155059814453,-3.117250680923462,1.4508862495422363,-10.8642578125,-0.732421875,-3.0059814453125
17.1899999,-9.375694274902344,-3.3039982318878174,1.3239935636520386,-3.8299560546875,1.46484375,-3.082275390625
17.2099999,-9.361329078674316,-3.5673606395721436,1.139639973640442,12.0849609375,-0.823974609375,1.739501953125
17.2299999,-9.279925346374512,-3.7469255924224854,1.0438719987869263,19.3023681640625,-5.9356689453125,4.9591064453125
17.249999900000002,-9.279925346374512,-3.713406801223755,1.139639973640442,12.786865234375,-3.448486328125,3.0670166015625
17.269999900000002,-9.260771751403809,-3.5170822143554688,1.4173674583435059,1.739501953125,-0.2288818359375,1.40380859375
17.2899999,-9.222464561462402,-3.251325845718384,1.8363527059555054,-10.711669921875,1.7242431640625,0.9002685546875
17.3099999,-9.217676162719727,-3.00711727142334,2.2625205516815186,-25.634765625,7.2174072265625,-1.5411376953125
17.3299999,-9.160215377807617,-2.9927520751953125,2.408566951751709,-34.60693359375,13.5650634765625,0.5645751953125
17.3499999,-9.215282440185547,-3.1244332790374756,2.2888567447662354,-31.0516357421875,14.495849609375,5.1116943359375
17.3699999,-9.222464561462402,-3.3662476539611816,1.6759412288665771,-16.7694091796875,8.0718994140625,3.8909912109375
17.3899999,-9.378087997436523,-3.5889084339141846,0.8667010068893433,6.6680908203125,4.1351318359375,-0.06103515625
17.409999900000003,-9.495404243469238,-3.7181951999664307,0.06464344263076782,30.8837890625,-1.28173828125,-1.3275146484375
17.429999900000002,-9.583989143371582,-3.734954595565796,-0.38067805767059326,44.219970703125,-7.232666015625,-2.7618408203125
17.4499999,-9.576807022094727,-3.6367924213409424,-0.2825157940387726,43.9910888671875,-7.6446533203125,-6.9122314453125
17.4699999,-9.48343276977539,-3.3446998596191406,0.3734954595565796,31.9366455078125,-5.5084228515625,-5.7525634765625
17.4899999,-9.370905876159668,-3.064578056335449,1.335964560508728,4.0740966796875,-2.410888671875,-0.30517578125
17.5099999,-9.2033109664917,-2.8347349166870117,2.229001760482788,-24.59716796875,-0.6561279296875,-0.3509521484375
17.5299999,-9.160215377807617,-2.853888511657715,2.7724854946136475,-34.423828125,5.401611328125,-2.7923583984375
17.5499999,-9.117119789123535,-3.0550012588500977,2.7317841053009033,-24.7650146484375,7.38525390625,0.2593994140625
17.5699999,-9.17697525024414,-3.40216064453125,2.190694570541382,-9.521484375,5.035400390625,3.631591796875
17.589999900000002,-9.241618156433105,-3.6774938106536865,1.4077905416488647,4.2877197265625,3.0975341796875,-0.6103515625
17.609999900000002,-9.370905876159668,-3.8546648025512695,0.7158663272857666,19.073486328125,0.8544921875,-0.9613037109375
17.6299999,-9.435548782348633,-3.8570590019226074,0.38067805767059326,23.74267578125,-4.1656494140625,5.06591796875
17.6499999,-9.485827445983887,-3.6798880100250244,0.4572925269603729,12.6495361328125,-7.62939453125,4.2877197265625
17.6699999,-9.461885452270508,-3.354276657104492,0.8379706144332886,0.6561279296875,-4.119873046875,-2.3956298828125
17.6899999,-9.423578262329102,-3.043030261993408,1.3479355573654175,-5.43212890625,-1.8768310546875,-3.5552978515625
17.7099999,-9.337387084960938,-2.8778305053710938,1.766920804977417,-13.5955810546875,-2.38037109375,-0.9918212890625
17.7299999,-9.220070838928223,-2.9448680877685547,1.9488801956176758,-19.4549560546875,2.2430419921875,-2.8228759765625
17.749999900000002,-9.184157371520996,-3.160346269607544,1.9057846069335938,-10.0860595703125,6.77490234375,-3.1585693359375
17.769999900000002,-9.17936897277832,-3.4404678344726562,1.656787633895874,4.241943359375,4.425048828125,1.3580322265625
17.7899999,-9.23443603515625,-3.5745432376861572,1.3694833517074585,9.307861328125,-0.274658203125,1.7242431640625
17.8099999,-9.318233489990234,-3.6320040225982666,1.1420341730117798,9.796142578125,1.1749267578125,-1.373291015625
17.8299999,-9.390059471130371,-3.550601005554199,1.1109095811843872,10.68115234375,2.62451171875,-2.0751953125
17.8499999,-9.370905876159668,-3.4380736351013184,1.2282254695892334,3.662109375,0.18310546875,0.8087158203125
17.8699999,-9.363722801208496,-3.335123062133789,1.3623007535934448,-10.1165771484375,0.762939453125,-0.640869140625
17.8899999,-9.35893440246582,-3.308786630630493,1.4508862495422363,-13.4735107421875,2.4566650390625,-0.7476806640625
17.909999900000003,-9.344569206237793,-3.3279404640197754,1.4413094520568848,-7.3699951171875,0.1373291015625,3.0975341796875
17.929999900000002,-9.334992408752441,-3.375824451446533,1.3431471586227417,-8.1024169921875,-3.8604736328125,3.4637451171875
17.9499999,-9.351752281188965,-3.3207578659057617,1.2952631711959839,-10.92529296875,-4.241943359375,2.5787353515625
17.9699999,-9.29189682006836,-3.265691041946411,1.3886369466781616,-14.923095703125,-4.7760009765625,2.5177001953125
17.9899999,-9.138668060302734,-3.004723072052002,1.8698714971542358,-32.5927734375,-3.7384033203125,5.6915283203125
18.0099999,-7.94635534286499,-2.5474305152893066,2.2601263523101807,-72.8607177734375,7.5225830078125,7.9803466796875
18.0299999,-7.151480674743652,-2.674323320388794,2.674323320388794,-87.6312255859375,27.77099609375,33.599853515625
18.0499999,-5.920860767364502,-2.6144683361053467,2.3989901542663574,-51.69677734375,29.998779296875,12.0697021484375
18.0699999,-6.22731876373291,-3.3255462646484375,1.699883222579956,-9.552001953125,37.59765625,19.04296875
18.089999900000002,-7.134721279144287,-3.641580820083618,1.0414776802062988,5.43212890625,31.2042236328125,39.61181640625
18.109999900000002,-8.829815864562988,-3.579331636428833,0.5578489899635315,-35.2020263671875,23.0865478515625,43.8232421875
18.1299999,-10.33098030090332,-3.1459810733795166,0.31124621629714966,-72.723388671875,26.7181396484375,30.517578125
18.1499999,-11.276689529418945,-2.279279947280884,0.17477671802043915,-79.5440673828125,15.07568359375,31.2652587890625
18.1699999,-12.083536148071289,-1.8842366933822632,-0.26336219906806946,-74.981689453125,-21.0113525390625,37.7655029296875
18.1899999,-12.648567199707031,-1.800439715385437,-0.49799394607543945,-65.24658203125,-43.0755615234375,32.28759765625
18.2099999,-13.06515884399414,-2.212242364883423,-0.5267243981361389,-66.89453125,-33.4014892578125,28.50341796875
18.2299999,-13.053187370300293,-2.9903578758239746,-0.6177040338516235,-71.8994140625,-11.71875,15.07568359375
18.249999900000002,-12.284648895263672,-3.466804027557373,-0.4908113479614258,-16.5252685546875,-2.838134765625,-3.9825439453125
18.269999900000002,-10.862493515014648,-3.533841609954834,-0.363918662071228,33.3404541015625,-5.2642822265625,-4.3182373046875
18.2899999,-9.14345645904541,-3.117250680923462,-0.043095629662275314,14.2669677734375,6.7596435546875,-5.5389404296875
18.3099999,-7.819462776184082,-2.47560453414917,0.395043283700943,-22.552490234375,16.7236328125,-6.5765380859375
18.3299999,-7.201758861541748,-2.0685901641845703,0.6368576288223267,-26.7333984375,13.580322265625,-3.6163330078125
18.3499999,-7.338228225708008,-2.0015525817871094,0.40940847992897034,-9.4451904296875,0.7781982421875,1.64794921875
18.3699999,-7.989450931549072,-2.1930887699127197,-0.004788403399288654,8.3465576171875,-7.5836181640625,1.129150390625
18.3899999,-8.858546257019043,-2.3104045391082764,-0.22026655077934265,9.1400146484375,-8.7738037109375,-3.35693359375
18.409999900000003,-9.682151794433594,-2.3080103397369385,-0.15322890877723694,-6.1798095703125,-6.378173828125,-7.598876953125
18.429999900000002,-10.292673110961914,-2.2912509441375732,0.0933738648891449,-13.7786865234375,-3.5552978515625,-14.5263671875
18.4499999,-10.63504409790039,-2.341529369354248,0.29209262132644653,-13.671875,-5.3558349609375,-15.56396484375
18.4699999,-10.6925048828125,-2.542642116546631,0.3256114423274994,-11.3067626953125,-10.7574462890625,-11.3525390625
18.4899999,-10.620678901672363,-2.827552318572998,0.3878606855869293,-5.340576171875,-13.7481689453125,-8.392333984375
18.5099999,-10.412383079528809,-3.095702886581421,0.5746083855628967,-2.1514892578125,-9.4451904296875,-5.9051513671875
18.5299999,-10.125079154968262,-3.222595453262329,0.8307880163192749,-5.462646484375,3.4027099609375,-4.7760009765625
18.5499999,-9.84495735168457,-3.184288263320923,1.1276689767837524,-18.3868408203125,9.9029541015625,-0.9307861328125
18.5699999,-9.569623947143555,-3.00711727142334,1.173158884048462,-30.517578125,10.0250244140625,-0.1220703125
18.589999900000002,-9.466673851013184,-2.801215887069702,0.9528923034667969,-27.7252197265625,6.9122314453125,-4.791259765625
18.609999900000002,-9.476250648498535,-2.647987127304077,0.6320692300796509,-2.38037109375,7.659912109375,-11.444091796875
18.6299999,-9.469067573547363,-2.5665841102600098,0.26815059781074524,0.91552734375,7.415771484375,-12.115478515625
18.6499999,-9.404424667358398,-2.607285737991333,0.2346317619085312,-12.237548828125,5.7373046875,-8.5296630859375
18.6699999,-9.220070838928223,-2.717418909072876,0.31364041566848755,5.7373046875,19.927978515625,-8.9263916015625
18.6899999,-9.08838939666748,-2.894589900970459,0.49320554733276367,2.288818359375,27.8167724609375,-4.2266845703125
18.7099999,-9.059659004211426,-3.157952070236206,0.5219359993934631,4.9285888671875,30.0445556640625,1.3580322265625
18.7299999,-9.2033109664917,-3.35667085647583,0.3256114423274994,11.688232421875,25.1007080078125,5.5084228515625
18.749999900000002,-9.50498104095459,-3.442862033843994,-0.047884032130241394,12.63427734375,18.0816650390625,7.3394775390625
18.769999900000002,-9.828198432922363,-3.399766445159912,-0.4405331015586853,9.7198486328125,12.14599609375,5.767822265625
18.7899999,-10.074800491333008,-3.227383852005005,-0.6703764796257019,9.1552734375,6.3629150390625,4.7454833984375
18.8099999,-10.132261276245117,-3.07415509223938,-0.7445967197418213,6.3323974609375,2.74658203125,6.40869140625
18.8299999,-10.091560363769531,-2.8874073028564453,-0.7158663272857666,1.5106201171875,0.3814697265625,10.8642578125
18.8499999,-10.053253173828125,-2.717418909072876,-0.7469909191131592,-0.2288818359375,-5.67626953125,11.3067626953125
18.8699999,-10.105925559997559,-2.58813214302063,-0.7661445140838623,12.6495361328125,-13.458251953125,2.960205078125
18.8899999,-10.249577522277832,-2.5282769203186035,-0.8212111592292786,24.10888671875,-18.6004638671875,-4.1046142578125
18.909999900000003,-10.323798179626465,-2.5043349266052246,-0.6703764796257019,19.317626953125,-23.406982421875,-7.2479248046875
18.929999900000002,-10.268731117248535,-2.492363929748535,-0.3423708379268646,12.2528076171875,-22.2015380859375,-7.720947265625
18.9499999,-9.96945571899414,-2.473210334777832,0.1364694982767105,6.8511962890625,-14.0533447265625,-10.6658935546875
18.9699999,-9.552865028381348,-2.427720546722412,0.6631938815116882,4.1046142578125,-6.4544677734375,-12.0849609375
18.9899999,-9.071630477905273,-2.537853717803955,1.0438719987869263,-0.06103515625,2.899169921875,-9.3841552734375
19.0099999,-8.729259490966797,-2.691082715988159,1.2545616626739502,-2.3345947265625,9.735107421875,-2.25830078125
19.0299999,-8.5903959274292,-2.9735984802246094,1.094150185585022,-2.8228759765625,12.908935546875,1.5869140625
19.0499999,-8.7268648147583,-3.2848446369171143,0.545877993106842,16.7999267578125,11.6729736328125,1.2664794921875
19.0699999,-9.028534889221191,-3.584120035171509,-0.22026655077934265,59.7686767578125,2.685546875,1.4190673828125
19.089999900000002,-9.464279174804688,-3.691859006881714,-0.8236053586006165,91.6900634765625,-5.9814453125,2.0294189453125
19.109999900000002,-9.739612579345703,-3.4165258407592773,-0.9624691009521484,96.6796875,-7.2021484375,-3.35693359375
19.1299999,-10.074800491333008,-3.114856481552124,-0.6440402865409851,75.3326416015625,1.1138916015625,-8.1787109375
19.1499999,-10.194510459899902,-2.7246015071868896,-0.17717093229293823,60.2569580078125,2.7618408203125,-14.739990234375
19.1699999,-10.273519515991211,-2.499546527862549,0.37828385829925537,70.037841796875,-3.4332275390625,-11.932373046875
19.1899999,-10.467450141906738,-2.5067291259765625,0.8164227604866028,58.4869384765625,-4.8828125,-4.547119140625
19.2099999,-10.350133895874023,-2.365471363067627,1.2473790645599365,21.7742919921875,-0.8544921875,-13.24462890625
19.2299999,-10.536881446838379,-2.360682964324951,1.7166426181793213,-13.1683349609375,5.889892578125,-9.735107421875
19.249999900000002,-10.577583312988281,-2.47560453414917,1.8818424940109253,-29.8614501953125,5.126953125,-13.4124755859375
19.269999900000002,-10.654197692871094,-2.8179752826690674,1.6639702320098877,-26.458740234375,0.640869140625,-18.1732177734375
19.2899999,-10.699687004089355,-3.3303346633911133,1.1204863786697388,-8.056640625,-0.946044921875,-6.4544677734375
19.3099999,-10.560823440551758,-3.7181951999664307,0.4213795065879822,14.678955078125,-5.8746337890625,-0.0762939453125
19.3299999,-10.285490036010742,-3.928884983062744,-0.17238251864910126,35.5072021484375,-5.950927734375,-3.0059814453125
19.3499999,-9.78989028930664,-3.7828385829925537,-0.44771572947502136,49.530029296875,-4.08935546875,-5.7220458984375
19.3699999,-9.330204010009766,-3.404554843902588,-0.28969839215278625,55.389404296875,-5.1422119140625,-4.08935546875
19.3899999,-8.848969459533691,-2.8802247047424316,0.2346317619085312,50.47607421875,-7.8125,-10.8489990234375
19.409999900000003,-8.51138687133789,-2.43011474609375,0.9840168952941895,34.8663330078125,-0.9613037109375,-11.7340087890625
19.429999900000002,-8.7268648147583,-2.1954829692840576,1.7477672100067139,12.9547119140625,9.9639892578125,-15.3656005859375
19.4499999,-8.980650901794434,-2.298433542251587,2.207453966140747,-0.7171630859375,5.6610107421875,-20.4925537109375
19.4699999,-9.524134635925293,-2.5761611461639404,2.3726539611816406,-6.591796875,0.9918212890625,-18.5546875
19.4899999,-9.873687744140625,-3.00711727142334,2.1308395862579346,-5.9356689453125,4.5013427734375,-14.70947265625
19.5099999,-9.959878921508789,-3.3446998596191406,1.6711528301239014,2.0751953125,0.54931640625,-12.9852294921875
19.5299999,-9.763554573059082,-3.598485231399536,1.0678139925003052,10.5438232421875,-0.213623046875,-13.671875
19.5499999,-9.399636268615723,-3.687070608139038,0.5291185975074768,18.8446044921875,2.2125244140625,-13.7481689453125
19.5699999,-8.911218643188477,-3.5913026332855225,0.24660277366638184,22.6898193359375,2.532958984375,-9.70458984375
19.589999900000002,-8.434772491455078,-3.335123062133789,0.2585737705230713,5.2490234375,4.791259765625,-4.302978515625
19.609999900000002,-8.034940719604492,-3.1244332790374756,0.38067805767059326,-20.8587646484375,11.383056640625,-3.6468505859375
19.6299999,-7.783549785614014,-2.999934673309326,0.5315127968788147,-26.7791748046875,20.263671875,-3.997802734375
19.6499999,-7.675810813903809,-3.1268274784088135,0.43335050344467163,-17.6544189453125,25.1922607421875,-2.8533935546875
19.6699999,-7.740454196929932,-3.4356794357299805,0.15801730751991272,-2.8533935546875,27.496337890625,-3.753662109375
19.6899999,-8.291120529174805,-4.098873138427734,-0.3711012601852417,29.632568359375,27.7557373046875,-6.7901611328125
19.7099999,-8.722076416015625,-4.278438568115234,-0.3663128614425659,40.9393310546875,15.0299072265625,-6.927490234375
19.7299999,-9.174580574035645,-4.285621166229248,-0.12928688526153564,46.4324951171875,-3.509521484375,-5.6610107421875
19.749999900000002,-9.526528358459473,-4.158728122711182,0.31842881441116333,45.379638671875,-12.4053955078125,-5.7525634765625
19.769999900000002,-9.742006301879883,-3.9408559799194336,0.8667010068893433,37.1246337890625,-9.5367431640625,-6.4544677734375
19.7899999,-9.780313491821289,-3.689464807510376,1.4053963422775269,24.2919921875,-3.0670166015625,-8.9569091796875
19.8099999,-9.715670585632324,-3.5051112174987793,1.800439715385437,9.46044921875,9.6435546875,-16.082763671875
19.8299999,-9.600749015808105,-3.421314239501953,1.9584569931030273,2.349853515625,18.7835693359375,-19.7296142578125
19.8499999,-9.488221168518066,-3.423708438873291,1.889025092124939,4.547119140625,11.3677978515625,-14.2822265625
19.8699999,-9.390059471130371,-3.49314022064209,1.6280571222305298,8.85009765625,-1.3580322265625,-5.5084228515625
19.8899999,-9.26795482635498,-3.536235809326172,1.316810965538025,15.68603515625,-16.876220703125,4.2877197265625
19.909999900000003,-9.050082206726074,-3.5386300086975098,1.0462661981582642,22.3388671875,-25.8026123046875,17.2882080078125
19.929999900000002,-8.860940933227539,-3.450044631958008,0.9026140570640564,23.956298828125,-18.890380859375,27.8167724609375
19.9499999,-8.798690795898438,-3.3303346633911133,0.9169792532920837,20.7977294921875,-6.4849853515625,24.1546630859375
19.9699999,-8.987833023071289,-3.181894063949585,1.0271124839782715,6.1187744140625,1.6632080078125,4.5318603515625
19.9899999,-9.255983352661133,-3.047818660736084,1.280897855758667,-3.326416015625,-17.8680419921875,-22.4456787109375
20.0099999,-9.421183586120605,-3.0190882682800293,1.3982137441635132,-16.0064697265625,-20.5078125,-29.0069580078125
20.0299999,-9.425971984863281,-3.114856481552124,1.4987702369689941,-28.4271240234375,14.0380859375,-18.85986328125
20.0499999,-9.23443603515625,-3.28963303565979,1.381454348564148,-24.200439453125,17.7459716796875,-8.880615234375
20.0699999,-9.033323287963867,-3.533841609954834,1.161187767982483,-22.735595703125,6.3934326171875,-4.2266845703125
20.089999900000002,-8.954314231872559,-3.7253777980804443,0.912190854549408,-20.20263671875,-1.64794921875,1.373291015625
20.109999900000002,-8.923190116882324,-3.8546648025512695,0.6751648783683777,-14.404296875,4.3487548828125,6.3629150390625
20.1299999,-8.954314231872559,-3.909731388092041,0.5386953949928284,-4.5166015625,1.708984375,11.0626220703125
20.1499999,-9.074024200439453,-3.8977603912353516,0.5099649429321289,-1.0833740234375,-0.7171630859375,12.8326416015625
