# Time (seconds),Accel_X,Accel_Y,Accel_Z,Gyro_X,Gyro_Y,Gyro_Z
0.0099999,-10.168174743652344,-1.2449848651885986,0.629675030708313,-30.1361083984375,2.777099609375,31.219482421875
0.029999900000000003,-10.333374977111816,-1.1971008777618408,0.5913678407669067,-29.693603515625,3.11279296875,27.9998779296875
0.0499999,-10.42195987701416,-1.1851298809051514,0.5841852426528931,-29.571533203125,3.0364990234375,25.604248046875
0.0699999,-10.45547866821289,-1.1875240802764893,0.5889736413955688,-29.3426513671875,0.3204345703125,23.5748291015625
0.08999990000000001,-10.433931350708008,-1.194706678390503,0.586579442024231,-27.587890625,-0.152587890625,19.2108154296875
0.10999990000000001,-10.3549222946167,-1.2018892765045166,0.5793967843055725,-24.505615234375,1.861572265625,14.4195556640625
0.1299999,-10.249577522277832,-1.1994950771331787,0.545877993106842,-21.8353271484375,3.4942626953125,14.6026611328125
0.14999990000000002,-10.11550235748291,-1.1899182796478271,0.4812345504760742,-19.71435546875,0.4730224609375,18.1121826171875
0.1699999,-9.971850395202637,-1.1635819673538208,0.3902548849582672,-17.059326171875,-3.7994384765625,20.20263671875
0.1899999,-9.840168952941895,-1.0989385843276978,0.26575639843940735,-13.85498046875,-1.0223388671875,20.4315185546875
0.20999990000000002,-9.734824180603027,-1.0103530883789062,0.1364694982767105,-10.5133056640625,6.622314453125,21.1639404296875
0.2299999,-9.797073364257812,-0.7254431247711182,-0.13168109953403473,-4.2266845703125,16.693115234375,17.1966552734375
0.2499999,-9.93354320526123,-0.5650315880775452,-0.23942017555236816,-1.5869140625,13.519287109375,11.9476318359375
0.2699999,-10.098742485046387,-0.43335050344467163,-0.2992752194404602,1.5716552734375,10.955810546875,11.566162109375
0.28999990000000003,-10.244789123535156,-0.30885201692581177,-0.26575639843940735,5.9661865234375,7.965087890625,13.48876953125
0.3099999,-10.357316970825195,-0.21547815203666687,-0.1364694982767105,10.711669921875,4.2877197265625,12.0086669921875
0.3299999,-10.469843864440918,-0.12210428714752197,0.08140286058187485,13.3514404296875,-1.312255859375,10.2081298828125
0.34999990000000003,-10.613495826721191,-0.019153613597154617,0.3519476354122162,12.4053955078125,-10.8489990234375,10.223388671875
0.3699999,-10.714052200317383,0.06703764945268631,0.6392518281936646,9.9029541015625,-22.76611328125,8.209228515625
0.3899999,-10.72602367401123,0.1388636976480484,0.9074024558067322,7.232666015625,-29.1595458984375,4.39453125
0.40999990000000003,-10.584765434265137,0.17238251864910126,1.1109095811843872,4.3792724609375,-21.942138671875,1.7547607421875
0.4299999,-10.290278434753418,0.17477671802043915,1.237802267074585,0.79345703125,-10.1318359375,2.716064453125
0.4499999,-9.955090522766113,0.15322890877723694,1.2545616626739502,-3.2806396484375,0.6103515625,5.1727294921875
0.4699999,-9.696516990661621,0.12449848651885986,1.1755530834197998,-6.6986083984375,4.1961669921875,5.7830810546875
0.4899999,-9.552865028381348,0.10055647045373917,1.0438719987869263,-9.1552734375,-0.91552734375,5.5389404296875
0.5099999,-9.560047149658203,0.08379705995321274,0.8882488012313843,-10.5438232421875,-3.875732421875,7.232666015625
0.5299999,-9.615114212036133,0.05985504388809204,0.7469909191131592,-10.1776123046875,-5.2032470703125,8.819580078125
0.5499999,-9.679757118225098,0.038307227194309235,0.6440402865409851,-8.1329345703125,-5.9051513671875,8.48388671875
0.5699999,-9.713275909423828,0.021547814831137657,0.5793967843055725,-5.9661865234375,-1.220703125,8.2550048828125
0.5899998999999999,-10.053253173828125,0.026336219161748886,0.545877993106842,-4.608154296875,2.9144287109375,8.5906982421875
0.6099998999999999,-10.225635528564453,-0.016759412363171577,0.47884035110473633,-2.9144287109375,5.584716796875,-1.3885498046875
0.6299999,-10.579977035522461,0.004788403399288654,0.395043283700943,0.2899169921875,4.0283203125,1.40380859375
0.6499999,-10.6709566116333,-0.023942016065120697,0.272938996553421,3.662109375,-0.946044921875,6.134033203125
0.6699999,-10.572794914245605,-0.019153613597154617,0.17956513166427612,5.767822265625,-3.47900390625,3.631591796875
0.6899999,-10.371682167053223,-0.016759412363171577,0.14844051003456116,6.4697265625,-4.364013671875,3.35693359375
0.7099999,-10.18493366241455,-0.031124621629714966,0.2298433631658554,5.645751953125,-4.8828125,5.37109375
0.7299998999999999,-10.06043529510498,-0.07182604819536209,0.3663128614425659,2.7923583984375,-4.791259765625,7.2479248046875
0.7499998999999999,-9.99100399017334,-0.05985504388809204,0.5051765441894531,0.5035400390625,-3.96728515625,9.3841552734375
0.7699999,-10.046070098876953,-0.021547814831137657,0.6272808313369751,1.6326904296875,-2.685546875,7.720947265625
0.7899999,-10.034099578857422,0.019153613597154617,0.6655880808830261,4.08935546875,2.8533935546875,-4.45556640625
0.8099999,-10.079588890075684,0.07661445438861847,0.6584054827690125,5.5999755859375,10.6353759765625,-14.5263671875
0.8299999,-9.971850395202637,0.035913024097681046,0.6153098344802856,6.1492919921875,11.3525390625,-12.939453125
0.8499998999999999,-9.77791976928711,-0.009576806798577309,0.5770025849342346,5.401611328125,6.2103271484375,-2.471923828125
0.8699998999999999,-9.509769439697266,-0.033518824726343155,0.5434837937355042,3.96728515625,6.53076171875,5.9051513671875
0.8899999,-9.47146224975586,0.043095629662275314,0.5746083855628967,2.2430419921875,8.1024169921875,9.246826171875
0.9099999,-9.579200744628906,0.1388636976480484,0.6009446382522583,-0.79345703125,-1.953125,7.7972412109375
0.9299999,-9.864110946655273,0.23942017555236816,0.6368576288223267,-1.434326171875,-2.105712890625,9.9945068359375
0.9499999,-10.1753568649292,0.3256114423274994,0.6512228846549988,0.4119873046875,-1.77001953125,12.6953125
0.9699998999999999,-10.304644584655762,0.3423708379268646,0.608127236366272,0.8697509765625,-3.47900390625,11.3372802734375
0.9899998999999999,-10.278307914733887,0.363918662071228,0.5650315880775452,-0.152587890625,-3.509521484375,11.16943359375
1.0099999,-10.180145263671875,0.4381389021873474,0.5410895943641663,-2.1209716796875,-2.5787353515625,9.70458984375
1.0299999,-10.086771965026855,0.49320554733276367,0.5578489899635315,-5.1116943359375,-1.7547607421875,7.99560546875
1.0499999,-10.019734382629395,0.5626373887062073,0.6224924325942993,-6.89697265625,0.0457763671875,6.1492919921875
1.0699999,-9.938331604003906,0.6105214357376099,0.6703764796257019,-4.08935546875,1.739501953125,4.3487548828125
1.0899999,-9.916783332824707,0.6057330369949341,0.7038952708244324,1.190185546875,1.4495849609375,4.2572021484375
1.1099999,-9.86889934539795,0.5339069962501526,0.6799532771110535,4.2572021484375,1.03759765625,3.2501220703125
1.1299999,-9.859322547912598,0.45250412821769714,0.6440402865409851,6.04248046875,1.52587890625,4.4403076171875
1.1499999,-9.880870819091797,0.36152446269989014,0.6344634294509888,8.758544921875,2.044677734375,5.401611328125
1.1699998999999999,-9.892841339111328,0.3064578175544739,0.646434485912323,9.94873046875,2.1209716796875,5.157470703125
1.1899998999999999,-9.904812812805176,0.31124621629714966,0.6655880808830261,8.36181640625,3.72314453125,4.5166015625
1.2099999,-9.904812812805176,0.3711012601852417,0.6751648783683777,6.4544677734375,4.8065185546875,4.94384765625
1.2299999,-9.914389610290527,0.4620809257030487,0.6584054827690125,4.8675537109375,5.615234375,5.3558349609375
1.2499999,-9.931148529052734,0.5482721924781799,0.6248866319656372,1.3427734375,6.3629150390625,5.06591796875
1.2699999,-9.945513725280762,0.6631938815116882,0.5674257874488831,-3.4332275390625,6.5765380859375,4.852294921875
1.2899999,-9.988609313964844,0.7493851184844971,0.5219359993934631,-6.591796875,6.744384765625,5.5694580078125
1.3099999,-9.998186111450195,0.8403648138046265,0.49559974670410156,-9.82666015625,1.15966796875,8.9874267578125
1.3299999,-10.000580787658691,0.912190854549408,0.4908113479614258,-12.8021240234375,-10.68115234375,15.9759521484375
1.3499999,-9.981427192687988,0.9313444495201111,0.4884171485900879,-10.31494140625,-9.27734375,15.80810546875
1.3699999,-9.99339771270752,0.9241618514060974,0.48602294921875,-4.852294921875,-10.6201171875,12.6953125
1.3899999,-9.947908401489258,0.8236053586006165,0.4118026793003082,-1.6632080078125,-11.2762451171875,9.3994140625
1.4099999,-9.947908401489258,0.7757213711738586,0.33039984107017517,2.8228759765625,-3.2501220703125,2.6397705078125
1.4299998999999999,-9.90241813659668,0.7206547260284424,0.24420857429504395,9.7503662109375,1.6326904296875,-3.7078857421875
1.4499999,-9.775525093078613,0.6871358752250671,0.1843535304069519,14.007568359375,-1.1444091796875,-7.14111328125
1.4699999,-9.847352027893066,0.7350199222564697,0.20350714027881622,13.153076171875,-2.166748046875,-4.8828125
1.4899999,-9.840168952941895,0.7110779285430908,0.2513911724090576,10.650634765625,-2.4566650390625,-3.204345703125
1.5099999,-9.943120002746582,0.689530074596405,0.3495534360408783,9.185791015625,-3.143310546875,1.0833740234375
1.5299999,-10.034099578857422,0.6584054827690125,0.45010992884635925,8.5601806640625,-3.8909912109375,3.082275390625
1.5499999,-10.046070098876953,0.6416460275650024,0.5410895943641663,8.9263916015625,-4.4403076171875,3.2958984375
1.5699999,-10.017339706420898,0.6799532771110535,0.6200982332229614,9.8419189453125,-4.4708251953125,2.9754638671875
1.5899999,-9.95748519897461,0.768538773059845,0.6919242739677429,8.270263671875,-4.0740966796875,1.6632080078125
1.6099999,-9.897629737854004,0.9385270476341248,0.7469909191131592,3.23486328125,-3.082275390625,0
1.6299999,-9.847352027893066,1.1013327836990356,0.7852981686592102,-1.0833740234375,-1.7547607421875,-1.7852783203125
1.6499999,-9.813833236694336,1.2473790645599365,0.8738836050033569,-4.5166015625,-0.54931640625,-3.631591796875
1.6699999,-9.799467086791992,1.3192051649093628,0.9864110946655273,-10.406494140625,2.6092529296875,-5.0811767578125
1.6899998999999999,-9.785101890563965,1.3096283674240112,1.1420341730117798,-16.1895751953125,7.6904296875,-5.7220458984375
1.7099999,-9.768342971801758,1.213860273361206,1.3335703611373901,-18.6920166015625,12.8021240234375,-5.889892578125
1.7299999,-9.742006301879883,1.0773907899856567,1.4772224426269531,-19.5465087890625,17.63916015625,-5.9661865234375
1.7499999,-9.734824180603027,0.9385270476341248,1.5298948287963867,-21.5911865234375,22.8118896484375,-6.256103515625
1.7699999,-9.720458984375,0.8212111592292786,1.4844050407409668,-22.9034423828125,26.91650390625,-6.3629150390625
1.7899999,-9.739612579345703,0.7661445140838623,1.3718775510787964,-26.0009765625,29.3731689453125,-4.94384765625
1.8099999,-9.730035781860352,0.7733271718025208,1.1228805780410767,-35.858154296875,35.064697265625,-4.2877197265625
1.8299999,-9.773131370544434,0.8092401623725891,0.8068459630012512,-43.792724609375,37.8265380859375,-4.9285888671875
1.8499999,-9.813833236694336,0.8475474119186401,0.3256114423274994,-42.236328125,35.247802734375,-6.16455078125
1.8699999,-9.945513725280762,0.7422025203704834,-0.2513911724090576,-34.97314453125,27.374267578125,-4.7607421875
1.8899999,-10.113107681274414,0.5746083855628967,-0.8595184087753296,-24.6429443359375,16.2353515625,-4.0740966796875
1.9099999,-10.273519515991211,0.33758243918418884,-1.4413094520568848,-8.9569091796875,5.1727294921875,-3.72314453125
1.9299998999999999,-10.405200958251953,0.035913024097681046,-1.7908629179000854,8.697509765625,-5.55419921875,-2.7923583984375
1.9499999,-10.441113471984863,-0.18914192914962769,-1.9536685943603516,20.294189453125,-14.9383544921875,-0.5340576171875
1.9699999,-10.383652687072754,-0.2777273952960968,-1.8507179021835327,23.651123046875,-23.8800048828125,0.1983642578125
1.9899999,-10.323798179626465,-0.2968810200691223,-1.5394717454910278,29.0069580078125,-31.463623046875,1.0223388671875
2.0099999,-10.177751541137695,-0.12210428714752197,-1.1109095811843872,33.8287353515625,-27.2369384765625,1.64794921875
2.0299999,-10.050858497619629,0.11971008777618408,-0.5722141861915588,27.618408203125,-22.4761962890625,7.0648193359375
2.0499999,-9.959878921508789,0.5147533416748047,-0.12449848651885986,19.4091796875,-24.383544921875,11.7034912109375
2.0699999,-9.864110946655273,0.8906430602073669,0.3471592366695404,19.500732421875,-30.5633544921875,6.591796875
2.0899999,-9.794678688049316,1.1492167711257935,0.689530074596405,16.66259765625,-27.679443359375,1.800537109375
2.1099999,-9.794678688049316,1.3048399686813354,1.0007762908935547,5.462646484375,-20.0958251953125,2.716064453125
2.1299999,-9.751583099365234,1.2018892765045166,1.290474772453308,-3.509521484375,-16.2200927734375,-0.3509521484375
2.1499999,-9.758766174316406,0.9241618514060974,1.455674648284912,-6.7138671875,-14.923095703125,0.4730224609375
2.1699999,-9.734824180603027,0.6607996821403503,1.460463047027588,-6.011962890625,-7.4310302734375,2.777099609375
2.1899999,-9.799467086791992,0.44532153010368347,1.37906014919281,-0.2593994140625,-0.946044921875,8.97216796875
2.2099999,-9.804255485534668,0.42377370595932007,1.335964560508728,2.593994140625,-2.1820068359375,12.6800537109375
2.2299999,-9.859322547912598,0.45489832758903503,1.2234370708465576,-3.11279296875,-4.7607421875,10.650634765625
2.2499999,-9.883264541625977,0.5386953949928284,1.170764684677124,-5.2337646484375,-2.593994140625,9.0789794921875
2.2699999,-9.892841339111328,0.7110779285430908,1.1013327836990356,-0.1678466796875,-2.197265625,9.5672607421875
2.2899999,-9.8784761428833,0.9002198576927185,1.1540051698684692,-2.716064453125,0.0457763671875,5.37109375
2.3099999,-9.725247383117676,1.2090718746185303,1.192312479019165,-15.7623291015625,6.7596435546875,-2.86865234375
2.3299999,-9.734824180603027,1.501164436340332,1.256955862045288,-21.209716796875,21.3165283203125,-3.0670166015625
2.3499999,-9.727641105651855,1.6184803247451782,1.139639973640442,-14.739990234375,17.852783203125,2.8839111328125
2.3699999,-9.797073364257812,1.644816517829895,0.849941611289978,-6.011962890625,5.92041015625,-2.1820068359375
2.3899999,-9.995792388916016,1.479616641998291,0.4572925269603729,-0.732421875,0.3204345703125,-10.8795166015625
2.4099999,-10.050858497619629,1.1875240802764893,0.07422025501728058,6.8359375,-3.662109375,-9.674072265625
2.4299999,-10.070012092590332,0.8236053586006165,-0.09576806426048279,10.80322265625,-8.5601806640625,-6.77490234375
2.4499999,-10.04846477508545,0.4141969084739685,-0.2298433631658554,6.9427490234375,-15.0299072265625,-8.7738037109375
2.4699999,-10.034099578857422,0.10055647045373917,-0.1412578970193863,6.500244140625,-8.270263671875,-3.7384033203125
2.4899999,-10.017339706420898,0.038307227194309235,0.05267243832349777,11.688232421875,-7.2021484375,7.6446533203125
2.5099999,-9.955090522766113,0.22266076505184174,0.4405331015586853,9.3231201171875,-11.5814208984375,10.6964111328125
2.5299999,-9.897629737854004,0.6200982332229614,0.8930372595787048,-1.1749267578125,-11.749267578125,4.2266845703125
2.5499999,-9.773131370544434,1.0223240852355957,1.3072341680526733,-10.894775390625,-3.875732421875,-2.1209716796875
2.5699999,-9.72285270690918,1.359906554222107,1.845929503440857,-14.5263671875,1.46484375,-1.3885498046875
2.5899999,-9.593565940856934,1.53707754611969,2.252943754196167,-33.1268310546875,13.4124755859375,-3.23486328125
2.6099999,-9.490615844726562,1.5729905366897583,2.669534921646118,-57.9833984375,32.3333740234375,-7.3699951171875
2.6299999,-9.500192642211914,1.403002142906189,2.691082715988159,-69.9920654296875,46.7529296875,-4.974365234375
2.6499999,-9.579200744628906,1.2234370708465576,2.3032219409942627,-56.976318359375,41.7938232421875,2.960205078125
2.6699999,-9.682151794433594,0.849941611289978,1.3048399686813354,-35.1409912109375,31.9061279296875,6.8206787109375
2.6899999,-10.079588890075684,0.5315127968788147,0.2322375625371933,-15.5181884765625,20.751953125,-3.0975341796875
2.7099999,-10.218452453613281,0.10534487664699554,-0.9600749015808105,-3.3416748046875,5.4473876953125,-4.5623779296875
2.7299999,-10.38844108581543,0.043095629662275314,-1.4963760375976562,22.5372314453125,-10.6048583984375,-2.8228759765625
2.7499999,-10.323798179626465,-0.038307227194309235,-1.7908629179000854,25.726318359375,-14.6942138671875,1.2664794921875
2.7699999,-10.316615104675293,0.1604115068912506,-1.6089035272598267,14.7552490234375,-10.7879638671875,-4.7454833984375
2.7899999,-10.177751541137695,0.35913026332855225,-1.2761094570159912,11.260986328125,-15.2435302734375,-2.3193359375
2.8099999,-10.093954086303711,0.6967126727104187,-0.7038952708244324,19.989013671875,-27.1148681640625,0.5035400390625
2.8299999,-10.02452278137207,0.8786720037460327,-0.06703764945268631,13.0767822265625,-28.4576416015625,4.2572021484375
2.8499999,-9.904812812805176,1.094150185585022,0.6727706789970398,-13.153076171875,-16.3726806640625,3.6468505859375
2.8699999,-9.801861763000488,1.0438719987869263,1.237802267074585,-29.571533203125,-8.8653564453125,3.570556640625
2.8899999,-9.708487510681152,0.8619126081466675,1.6400281190872192,-18.3868408203125,-11.4898681640625,-1.007080078125
2.9099999,-9.770736694335938,0.6416460275650024,1.721431016921997,-1.6937255859375,-12.5274658203125,-0.1678466796875
2.9299999,-9.739612579345703,0.47165772318840027,1.6424223184585571,-2.532958984375,-5.7373046875,2.960205078125
2.9499999,-9.823410034179688,0.4381389021873474,1.4413094520568848,-10.0860595703125,3.0059814453125,6.6680908203125
2.9699999,-9.864110946655273,0.5889736413955688,1.213860273361206,-3.692626953125,-2.3956298828125,6.134033203125
2.9899999,-9.921571731567383,0.7661445140838623,0.8834604024887085,4.1961669921875,-8.6517333984375,3.5247802734375
3.0099999,-9.959878921508789,1.0127472877502441,0.7876923680305481,4.1046142578125,-13.885498046875,-0.3204345703125
3.0299999,-9.971850395202637,1.2066776752471924,0.7637503147125244,-6.5460205078125,-9.58251953125,-0.18310546875
3.0499999,-9.931148529052734,1.2210428714752197,0.9409212470054626,-9.368896484375,-3.692626953125,-4.669189453125
3.0699999,-9.86650562286377,1.158793568611145,1.0797849893569946,-1.0833740234375,-3.2958984375,-10.284423828125
3.0899999,-9.813833236694336,0.8858546018600464,1.1492167711257935,6.8511962890625,-4.69970703125,-9.796142578125
3.1099999,-9.773131370544434,0.6607996821403503,1.2066776752471924,10.8795166015625,-5.462646484375,-4.3792724609375
3.1299999,-9.77791976928711,0.42616790533065796,1.2737152576446533,9.857177734375,1.0528564453125,1.8310546875
3.1499999,-9.813833236694336,0.2968810200691223,1.3958195447921753,4.82177734375,2.8533935546875,6.3934326171875
3.1699999,-9.852140426635742,0.37828385829925537,1.4317326545715332,-5.4779052734375,4.4097900390625,3.47900390625
3.1899999,-9.885659217834473,0.5650315880775452,1.4437036514282227,-6.1798095703125,-1.5869140625,3.3721923828125
3.2099999,-9.938331604003906,0.8092401623725891,1.2258312702178955,-3.8604736328125,0.823974609375,0.1373291015625
3.2299999,-9.928754806518555,1.0055646896362305,0.9959878921508789,0.79345703125,-0.1983642578125,-6.6986083984375
3.2499999,-9.964667320251465,1.0127472877502441,0.7182605266571045,3.265380859375,-5.035400390625,-8.9874267578125
3.2699999,-9.890447616577148,0.9026140570640564,0.5770025849342346,6.65283203125,-7.904052734375,-5.2032470703125
3.2899999,-9.921571731567383,0.6751648783683777,0.5793967843055725,11.77978515625,-4.669189453125,0.1220703125
3.3099999,-9.849745750427246,0.5674257874488831,0.8140285611152649,8.4075927734375,-4.638671875,4.1961669921875
3.3299999000000002,-9.832986831665039,0.44771572947502136,1.1516109704971313,-5.31005859375,-5.126953125,7.26318359375
3.3499999,-9.821015357971191,0.5985504388809204,1.556231141090393,-11.23046875,-1.64794921875,4.08935546875
3.3699999,-9.792284965515137,0.7852981686592102,1.9057846069335938,-18.5394287109375,7.415771484375,2.9296875
3.3899999,-9.679757118225098,0.9864110946655273,2.0638017654418945,-30.242919921875,15.8843994140625,-1.4495849609375
3.4099999,-9.6989107131958,1.1540051698684692,2.123656988143921,-37.017822265625,16.6778564453125,-4.3792724609375
3.4299999,-9.59596061706543,1.1803414821624756,1.9297266006469727,-40.069580078125,20.99609375,-3.4027099609375
3.4499999,-9.720458984375,0.9241618514060974,1.4532804489135742,-41.534423828125,27.0233154296875,0.457763671875
3.4699999,-9.919178009033203,0.586579442024231,0.8403648138046265,-14.83154296875,15.5487060546875,4.302978515625
3.4899999,-10.072406768798828,0.21787235140800476,0.11013327538967133,13.0615234375,-2.5634765625,5.615234375
3.5099999,-10.307038307189941,0.12210428714752197,-0.3519476354122162,26.1383056640625,-14.0533447265625,2.4871826171875
3.5299999,-10.295066833496094,0.24420857429504395,-0.5506663918495178,24.5361328125,-18.3868408203125,-0.640869140625
3.5499999,-10.285490036010742,0.4572925269603729,-0.5003881454467773,25.634765625,-18.310546875,-4.9591064453125
3.5699999,-10.127472877502441,0.7110779285430908,-0.05027823522686958,36.8804931640625,-25.9246826171875,-5.950927734375
3.5899999,-9.947908401489258,0.8331822156906128,0.49559974670410156,27.923583984375,-22.52197265625,-6.3934326171875
3.6099999,-9.785101890563965,0.9169792532920837,1.2090718746185303,10.6048583984375,-10.589599609375,-3.84521484375
3.6299999,-9.624691009521484,0.9026140570640564,1.8962076902389526,-0.7476806640625,0.42724609375,-0.2593994140625
3.6499999,-9.607931137084961,0.9241618514060974,2.410961151123047,-2.197265625,4.1961669921875,5.615234375
3.6699999,-9.579200744628906,0.8858546018600464,2.612074136734009,-8.1634521484375,6.2713623046875,4.7607421875
3.6899999,-9.651026725769043,0.8834604024887085,2.5258827209472656,-11.077880859375,10.4827880859375,1.2054443359375
3.7099999,-9.634267807006836,0.8595184087753296,2.0901381969451904,-4.94384765625,8.4686279296875,-3.7078857421875
3.7299999,-9.801861763000488,0.8379706144332886,1.5873557329177856,10.92529296875,4.1351318359375,-6.1798095703125
3.7499999,-9.828198432922363,0.7637503147125244,0.9983820915222168,15.19775390625,0.8697509765625,-6.3629150390625
3.7699999,-9.959878921508789,0.7158663272857666,0.6512228846549988,8.636474609375,2.8228759765625,-7.8582763671875
3.7899999,-9.983820915222168,0.6416460275650024,0.5410895943641663,2.8839111328125,4.0740966796875,-5.096435546875
3.8099999,-10.036493301391602,0.608127236366272,0.6200982332229614,2.8533935546875,2.838134765625,1.556396484375
3.8299999000000002,-9.96945571899414,0.6536170840263367,0.8307880163192749,3.1280517578125,-0.5035400390625,2.227783203125
3.8499999,-9.995792388916016,0.6392518281936646,1.0127472877502441,-1.0223388671875,-0.6256103515625,-1.5716552734375
3.8699999,-9.926360130310059,0.6392518281936646,1.1252747774124146,-2.593994140625,-1.5411376953125,-3.8299560546875
3.8899999,-9.926360130310059,0.5841852426528931,1.259350061416626,3.448486328125,-0.2593994140625,-2.6397705078125
3.9099999,-9.8784761428833,0.5027823448181152,1.256955862045288,6.072998046875,1.5716552734375,-0.4425048828125
3.9299999,-9.804255485534668,0.5626373887062073,1.316810965538025,-1.40380859375,11.0626220703125,-1.4495849609375
3.9499999,-9.770736694335938,0.7493851184844971,1.3479355573654175,3.875732421875,9.0179443359375,2.288818359375
3.9699999,-9.75397777557373,0.9145850539207458,1.3120225667953491,2.777099609375,6.195068359375,-1.6326904296875
3.9899999,-9.837775230407715,1.05105459690094,1.2306196689605713,-3.631591796875,7.598876953125,-6.7138671875
4.0099999,-9.895236015319824,0.9648633003234863,1.0797849893569946,-1.190185546875,6.378173828125,-9.6893310546875
4.029999900000001,-9.93593692779541,0.8188169598579407,0.8690952062606812,10.650634765625,2.3193359375,-8.6517333984375
4.0499999,-9.979032516479492,0.45489832758903503,0.586579442024231,15.6402587890625,-0.5340576171875,-8.514404296875
4.069999900000001,-9.998186111450195,0.24181437492370605,0.45010992884635925,13.0462646484375,-0.762939453125,-4.0130615234375
4.0899999000000005,-9.952696800231934,0.09576806426048279,0.3926490843296051,7.354736328125,-0.9307861328125,1.9683837890625
4.1099999,-9.967061996459961,0.17717093229293823,0.6057330369949341,1.15966796875,-1.800537109375,6.8817138671875
4.1299999000000005,-9.931148529052734,0.2968810200691223,0.8092401623725891,-7.50732421875,-1.03759765625,5.401611328125
4.1499999,-9.971850395202637,0.395043283700943,1.0749965906143188,-11.29150390625,-1.1138916015625,4.119873046875
4.1699999000000005,-9.919178009033203,0.49799394607543945,1.2042834758758545,-6.7901611328125,-2.105712890625,2.1514892578125
4.1899999,-9.945513725280762,0.5027823448181152,1.1971008777618408,-0.579833984375,-1.556396484375,2.9144287109375
4.209999900000001,-9.909601211547852,0.5793967843055725,1.1180921792984009,-0.1068115234375,0.48828125,1.4801025390625
4.2299999,-9.888052940368652,0.6847416758537292,0.9911994934082031,-1.2054443359375,1.983642578125,0.06103515625
4.249999900000001,-9.835380554199219,0.8403648138046265,0.9911994934082031,1.77001953125,0.244140625,2.593994140625
4.2699999,-9.818621635437012,1.0271124839782715,1.0534487962722778,-0.213623046875,-1.495361328125,2.4261474609375
4.289999900000001,-9.816226959228516,1.0678139925003052,1.1204863786697388,-7.99560546875,2.38037109375,-1.4495849609375
4.3099999,-9.804255485534668,0.9911994934082031,1.1803414821624756,-6.1187744140625,1.2969970703125,-4.364013671875
4.329999900000001,-9.921571731567383,0.7110779285430908,1.1348515748977661,6.5155029296875,-2.7923583984375,-4.913330078125
4.3499999,-9.998186111450195,0.4213795065879822,1.0606313943862915,14.0533447265625,-2.7618408203125,-2.74658203125
4.369999900000001,-9.995792388916016,0.1388636976480484,1.01753568649292,9.735107421875,3.2501220703125,3.082275390625
4.3899999,-10.06043529510498,0.08140286058187485,1.036689281463623,3.631591796875,6.9580078125,5.859375
4.409999900000001,-10.036493301391602,0.26096799969673157,0.9911994934082031,3.9215087890625,4.08935546875,9.1705322265625
4.4299999,-10.062829971313477,0.5267243981361389,0.8786720037460327,6.805419921875,-1.0223388671875,9.0789794921875
4.449999900000001,-10.108319282531738,0.7709329724311829,0.7110779285430908,11.322021484375,-5.706787109375,6.134033203125
4.4699999,-10.08198356628418,0.933738648891449,0.5506663918495178,19.2413330078125,-10.772705078125,1.800537109375
4.489999900000001,-10.072406768798828,0.7972691655158997,0.3232172429561615,28.411865234375,-16.2200927734375,-2.62451171875
4.5099999,-10.019734382629395,0.6607996821403503,0.22266076505184174,45.34912109375,-23.4527587890625,-5.3558349609375
4.529999900000001,-9.921571731567383,0.5027823448181152,0.3711012601852417,58.563232421875,-27.1148681640625,-0.54931640625
4.5499999,-9.81143856048584,0.5793967843055725,0.8259995579719543,41.32080078125,-18.37158203125,3.72314453125
4.569999900000001,-9.66299819946289,0.8403648138046265,1.5610195398330688,12.481689453125,-2.74658203125,4.7149658203125
4.5899999000000005,-9.528923034667969,1.1803414821624756,2.2601263523101807,-8.7890625,12.0849609375,3.6773681640625
4.609999900000001,-9.464279174804688,1.4891934394836426,2.6647465229034424,-17.6849365234375,17.15087890625,4.0435791015625
4.6299999000000005,-9.50737476348877,1.6304513216018677,2.6575639247894287,-20.0347900390625,16.0675048828125,1.9989013671875
4.6499999,-9.569623947143555,1.5849615335464478,2.3104045391082764,-18.1121826171875,16.8304443359375,-4.45556640625
4.6699999000000005,-9.682151794433594,1.3551181554794312,1.7932571172714233,-12.1002197265625,16.3726806640625,-6.8817138671875
4.6899999,-9.806650161743164,1.0342950820922852,1.235408067703247,-5.1727294921875,13.397216796875,-5.06591796875
4.709999900000001,-10.02691650390625,0.7134721279144287,0.7757213711738586,-0.3509521484375,9.9029541015625,-3.2958984375
4.7299999,-10.235212326049805,0.47165772318840027,0.47644615173339844,2.1514892578125,6.591796875,-2.8228759765625
4.749999900000001,-10.47942066192627,0.3663128614425659,0.35434186458587646,3.7841796875,4.547119140625,1.007080078125
4.7699999,-10.754754066467285,0.40462008118629456,0.3711012601852417,5.462646484375,3.6468505859375,-0.6103515625
4.789999900000001,-11.03248119354248,0.5506663918495178,0.42377370595932007,6.8359375,2.288818359375,-4.33349609375
4.8099999,-11.281478881835938,0.7805097699165344,0.49799394607543945,8.4991455078125,-1.190185546875,-6.0882568359375
4.829999900000001,-11.425130844116211,1.0342950820922852,0.5363011956214905,10.1318359375,-6.103515625,-7.6904296875
4.8499999,-11.348516464233398,1.2401964664459229,0.5315127968788147,10.5438232421875,-4.8675537109375,-8.4686279296875
4.869999900000001,-10.991780281066895,1.357512354850769,0.5171475410461426,10.6048583984375,-0.6561279296875,-10.1776123046875
4.8899999,-10.393229484558105,1.3455413579940796,0.5315127968788147,10.4827880859375,3.41796875,-11.199951171875
4.909999900000001,-9.670180320739746,1.213860273361206,0.5985504388809204,7.7056884765625,7.3089599609375,-5.9967041015625
4.9299999,-8.942343711853027,1.0055646896362305,0.730231523513794,3.082275390625,9.6282958984375,0.579833984375
4.949999900000001,-8.339004516601562,0.7972691655158997,0.9002198576927185,-0.8087158203125,13.3819580078125,1.0986328125
4.9699999,-7.939172744750977,0.6512228846549988,1.0534487962722778,-3.1890869140625,14.7705078125,0.4730224609375
4.989999900000001,-7.781155586242676,0.6033388376235962,1.1420341730117798,-5.9967041015625,13.3514404296875,5.1422119140625
5.0099999,-7.841010570526123,0.629675030708313,1.139639973640442,-8.3770751953125,14.5111083984375,9.46044921875
5.029999900000001,-8.085219383239746,0.6871358752250671,1.0462661981582642,-8.636474609375,15.9759521484375,9.1400146484375
5.0499999,-8.494627952575684,0.730231523513794,0.8786720037460327,-7.3089599609375,13.336181640625,8.697509765625
5.069999900000001,-9.028534889221191,0.7326257228851318,0.6727706789970398,-3.1890869140625,5.645751953125,10.2996826171875
5.0899999000000005,-9.555258750915527,0.6823474764823914,0.4908113479614258,3.90625,-3.5552978515625,8.8653564453125
5.109999900000001,-10.017339706420898,0.6248866319656372,0.35673606395721436,10.7269287109375,-2.471923828125,4.9285888671875
5.1299999000000005,-10.338163375854492,0.569819986820221,0.304063618183136,13.5650634765625,1.9073486328125,3.4027099609375
5.1499999,-10.529699325561523,0.5650315880775452,0.33758243918418884,12.3138427734375,1.129150390625,3.0517578125
5.1699999000000005,-10.60391902923584,0.5841852426528931,0.4357447028160095,9.613037109375,0.274658203125,-1.9378662109375
5.1899999,-10.584765434265137,0.608127236366272,0.5674257874488831,6.7138671875,1.1444091796875,-4.8828125
5.209999900000001,-10.496180534362793,0.6177040338516235,0.6967126727104187,4.2724609375,-0.9765625,0.2288818359375
5.2299999,-10.345345497131348,0.608127236366272,0.7805097699165344,2.74658203125,-3.6773681640625,3.4637451171875
5.249999900000001,-10.160991668701172,0.5913678407669067,0.8188169598579407,3.4027099609375,-4.241943359375,0.1220703125
5.2699999,-10.022128105163574,0.5793967843055725,0.8212111592292786,4.3792724609375,-4.150390625,-0.701904296875
5.289999900000001,-9.99100399017334,0.5841852426528931,0.8164227604866028,4.08935546875,-8.1634521484375,2.197265625
5.3099999,-10.014945983886719,0.5889736413955688,0.8331822156906128,4.1351318359375,-15.1519775390625,0.4730224609375
5.329999900000001,-10.086771965026855,0.6129156351089478,0.8882488012313843,5.523681640625,-14.9688720703125,-3.3111572265625
5.3499999,-10.182539939880371,0.6607996821403503,0.9768342971801758,5.3863525390625,-8.8348388671875,-2.3345947265625
5.369999900000001,-10.256759643554688,0.7469909191131592,1.0797849893569946,1.3885498046875,-7.8887939453125,-2.6702880859375
5.3899999,-10.249577522277832,0.8331822156906128,1.170764684677124,-3.2958984375,-10.6658935546875,-8.6517333984375
5.409999900000001,-10.153809547424316,0.9074024558067322,1.213860273361206,-4.9896240234375,-7.049560546875,-10.07080078125
5.4299999,-9.928754806518555,0.9481038451194763,1.1851298809051514,-5.096435546875,1.6326904296875,-2.8839111328125
5.449999900000001,-9.591172218322754,0.9409212470054626,1.094150185585022,-5.79833984375,7.75146484375,4.82177734375
5.4699999,-9.469067573547363,0.9840168952941895,0.9911994934082031,-6.622314453125,12.3748779296875,6.65283203125
5.489999900000001,-9.423578262329102,0.9816226959228516,0.9097966551780701,-8.209228515625,10.25390625,-2.8839111328125
5.5099999,-9.710882186889648,1.0199298858642578,0.8307880163192749,-11.1083984375,3.2196044921875,-4.0283203125
5.529999900000001,-9.928754806518555,0.9672574996948242,0.8212111592292786,-10.589599609375,8.056640625,2.8228759765625
5.5499999,-10.108319282531738,0.9145850539207458,0.8092401623725891,-10.7421875,6.3629150390625,1.953125
5.569999900000001,-10.125079154968262,0.8547300100326538,0.7781155705451965,-10.711669921875,6.744384765625,1.3580322265625
5.5899999000000005,-10.072406768798828,0.8164227604866028,0.7254431247711182,-8.9874267578125,4.486083984375,-1.6632080078125
5.609999900000001,-9.981427192687988,0.7924807667732239,0.6703764796257019,-4.5013427734375,2.5787353515625,-1.9989013671875
5.6299999000000005,-9.919178009033203,0.7757213711738586,0.5937620401382446,-0.030517578125,1.7852783203125,-1.983642578125
5.6499999,-9.914389610290527,0.7541735172271729,0.4357447028160095,5.2337646484375,-0.213623046875,-3.814697265625
5.6699999000000005,-9.983820915222168,0.7565677165985107,0.24181437492370605,14.4805908203125,-6.28662109375,-5.0048828125
5.6899999,-10.014945983886719,0.7733271718025208,0.1173158809542656,19.287109375,-13.0462646484375,-3.1890869140625
5.709999900000001,-10.043676376342773,0.8762778043746948,0.1867477297782898,10.4217529296875,-13.5345458984375,-2.716064453125
5.7299999,-9.99339771270752,0.9074024558067322,0.3974374830722809,-5.7830810546875,-8.1634521484375,-4.8370361328125
5.749999900000001,-9.967061996459961,0.8331822156906128,0.7110779285430908,-11.322021484375,-6.28662109375,-4.5928955078125
5.7699999,-9.785101890563965,0.7493851184844971,1.0821791887283325,-11.688232421875,-4.94384765625,0
5.789999900000001,-9.861717224121094,0.5147533416748047,1.0654197931289673,-12.0849609375,-1.46484375,3.9215087890625
5.8099999,-9.904812812805176,0.3926490843296051,0.993593692779541,-3.47900390625,-6.04248046875,7.354736328125
5.829999900000001,-9.959878921508789,0.27054479718208313,0.7709329724311829,7.232666015625,-17.3187255859375,10.467529296875
5.8499999,-10.050858497619629,0.27054479718208313,0.45250412821769714,11.993408203125,-23.37646484375,10.284423828125
5.869999900000001,-10.043676376342773,0.3926490843296051,0.31842881441116333,17.9443359375,-26.8402099609375,6.89697265625
5.8899999,-10.050858497619629,0.5961562395095825,0.4620809257030487,25.360107421875,-28.472900390625,2.99072265625
5.909999900000001,-9.840168952941895,0.8355764150619507,0.8906430602073669,19.0277099609375,-27.64892578125,1.3580322265625
5.9299999,-9.701305389404297,1.1444283723831177,1.5610195398330688,0.79345703125,-8.4686279296875,3.997802734375
5.949999900000001,-9.533711433410645,1.4053963422775269,2.274491548538208,-16.326904296875,6.8359375,9.0484619140625
5.9699999,-9.29189682006836,1.6160861253738403,2.9496564865112305,-34.0423583984375,11.1541748046875,9.1094970703125
5.989999900000001,-9.387664794921875,1.6711528301239014,3.272873640060425,-49.041748046875,18.768310546875,7.293701171875
6.0099999,-9.478644371032715,1.5466543436050415,3.1890766620635986,-45.379638671875,26.4129638671875,4.7607421875
6.029999900000001,-9.646238327026367,1.1994950771331787,2.715024709701538,-24.23095703125,25.8331298828125,0.701904296875
6.0499999,-9.77791976928711,0.8236053586006165,1.920149803161621,-1.40380859375,24.0325927734375,-5.828857421875
6.069999900000001,-9.950302124023438,0.6655880808830261,1.1180921792984009,12.26806640625,22.003173828125,-0.6103515625
6.0899999000000005,-10.046070098876953,0.6416460275650024,0.5530605912208557,9.6435546875,14.3280029296875,7.62939453125
6.109999900000001,-10.012551307678223,0.8547300100326538,0.27054479718208313,-3.5552978515625,15.6707763671875,0.1373291015625
6.1299999000000005,-10.02452278137207,1.091755986213684,0.3256114423274994,-14.312744140625,15.0299072265625,-1.6937255859375
6.149999900000001,-9.8784761428833,1.2473790645599365,0.545877993106842,-19.22607421875,15.6402587890625,-3.2196044921875
6.1699999000000005,-9.734824180603027,1.3527239561080933,0.7733271718025208,-20.9503173828125,18.1884765625,-7.99560546875
6.1899999,-9.742006301879883,1.2425906658172607,0.7805097699165344,-14.7857666015625,25.0091552734375,-7.5225830078125
6.209999900000001,-9.849745750427246,1.091755986213684,0.6320692300796509,-0.5950927734375,19.0887451171875,-0.18310546875
6.2299999,-9.928754806518555,0.9313444495201111,0.33039984107017517,10.284423828125,2.3956298828125,-2.0294189453125
6.249999900000001,-10.105925559997559,0.6512228846549988,-0.0071826050989329815,7.01904296875,-3.7841796875,-2.0751953125
6.2699999,-10.120290756225586,0.5123591423034668,-0.090979665517807,0.79345703125,-1.617431640625,1.6021728515625
6.289999900000001,-10.158597946166992,0.35434186458587646,0.05746084079146385,3.4637451171875,-4.791259765625,0.3509521484375
6.3099999,-10.04846477508545,0.3495534360408783,0.2753331959247589,0.457763671875,-0.579833984375,-1.0528564453125
6.329999900000001,-10.04846477508545,0.44532153010368347,0.4596867263317108,-2.0904541015625,8.4075927734375,4.7454833984375
6.3499999,-9.892841339111328,0.7637503147125244,0.7254431247711182,4.302978515625,1.5106201171875,7.5225830078125
6.369999900000001,-9.770736694335938,1.1827356815338135,0.9385270476341248,-6.2103271484375,-1.1444091796875,3.35693359375
6.3899999,-9.718064308166504,1.525106430053711,1.072602391242981,-27.2369384765625,10.07080078125,-0.06103515625
6.409999900000001,-9.785101890563965,1.601720929145813,1.0558429956436157,-27.008056640625,12.3443603515625,-4.3792724609375
6.4299999,-9.907206535339355,1.4413094520568848,0.8140285611152649,-11.1236572265625,2.5482177734375,-8.48388671875
6.449999900000001,-9.962273597717285,1.0414776802062988,0.3711012601852417,-1.0986328125,1.0833740234375,-4.4403076171875
6.4699999,-10.072406768798828,0.6847416758537292,-0.05985504388809204,9.70458984375,-1.7547607421875,-0.518798828125
6.489999900000001,-10.065223693847656,0.4572925269603729,-0.24660277366638184,27.374267578125,-12.1612548828125,3.082275390625
6.5099999,-10.08198356628418,0.4596867263317108,-0.2537853717803955,31.43310546875,-19.5770263671875,3.173828125
6.529999900000001,-9.983820915222168,0.5961562395095825,-0.05985504388809204,26.885986328125,-21.270751953125,-1.4801025390625
6.5499999,-9.96945571899414,0.9097966551780701,0.4213795065879822,21.759033203125,-16.2811279296875,-7.62939453125
6.569999900000001,-9.75637149810791,1.194706678390503,0.993593692779541,1.800537109375,-5.7373046875,-7.720947265625
6.5899999000000005,-9.651026725769043,1.3551181554794312,1.6160861253738403,-23.9715576171875,9.2315673828125,-4.791259765625
6.609999900000001,-9.694122314453125,1.4101848602294922,1.9991583824157715,-35.9344482421875,17.2576904296875,1.64794921875
6.6299999000000005,-9.622296333312988,1.1444283723831177,2.049436569213867,-30.6854248046875,16.6168212890625,5.1116943359375
6.649999900000001,-9.849745750427246,0.8619126081466675,1.6136919260025024,-12.0391845703125,10.101318359375,0.8392333984375
6.6699999000000005,-9.976638793945312,0.5650315880775452,0.9313444495201111,11.566162109375,-2.960205078125,-3.082275390625
6.6899999,-10.08437728881836,0.3998316824436188,0.3280056416988373,23.6968994140625,-7.2479248046875,-3.7384033203125
6.709999900000001,-10.110713958740234,0.47884035110473633,-0.004788403399288654,14.34326171875,-0.4425048828125,-6.805419921875
6.7299999,-10.02691650390625,0.6129156351089478,-0.14365209639072418,0.0457763671875,3.7689208984375,-4.57763671875
6.749999900000001,-9.952696800231934,0.768538773059845,0.004788403399288654,-1.953125,-1.6021728515625,3.8604736328125
6.7699999,-9.873687744140625,0.849941611289978,0.06224924325942993,1.3885498046875,-8.270263671875,4.913330078125
6.789999900000001,-9.952696800231934,0.8667010068893433,0.14844051003456116,5.340576171875,-14.801025390625,-0.0457763671875
6.8099999,-10.029311180114746,0.8212111592292786,0.2585737705230713,14.8468017578125,-16.8609619140625,-3.875732421875
6.829999900000001,-9.962273597717285,0.8667010068893433,0.5410895943641663,16.90673828125,-16.265869140625,-2.716064453125
6.8499999,-9.95748519897461,0.8427590131759644,0.8954314589500427,5.462646484375,-7.415771484375,-2.0294189453125
6.869999900000001,-9.864110946655273,0.9457096457481384,1.2545616626739502,-6.134033203125,3.7078857421875,0.579833984375
6.8899999,-9.749189376831055,0.9433154463768005,1.5107412338256836,-7.4462890625,2.685546875,4.425048828125
6.909999900000001,-9.823410034179688,1.0079588890075684,1.6543933153152466,-5.4931640625,-0.8544921875,2.7313232421875
6.9299999,-9.739612579345703,0.993593692779541,1.5418659448623657,-2.3040771484375,-2.8533935546875,-3.3416748046875
6.949999900000001,-9.854534149169922,0.9361328482627869,1.4245500564575195,3.204345703125,3.692626953125,-7.080078125
6.9699999,-9.81143856048584,0.8619126081466675,1.237802267074585,5.2490234375,5.3253173828125,-7.87353515625
6.989999900000001,-9.859322547912598,0.7565677165985107,1.0558429956436157,3.3416748046875,6.9122314453125,-2.899169921875
7.0099999,-9.938331604003906,0.727837324142456,0.9696516990661621,0.1983642578125,8.5296630859375,2.9754638671875
7.029999900000001,-9.9000244140625,0.7996633648872375,0.9145850539207458,-7.26318359375,8.2244873046875,2.5787353515625
7.0499999,-10.014945983886719,0.8906430602073669,0.8451532125473022,-13.3056640625,7.26318359375,-1.3580322265625
7.069999900000001,-9.962273597717285,0.9289502501487732,0.6224924325942993,-4.5013427734375,1.2359619140625,-6.4697265625
7.0899999000000005,-9.981427192687988,0.8188169598579407,0.40701428055763245,12.9241943359375,-2.2125244140625,-7.476806640625
7.109999900000001,-9.962273597717285,0.6320692300796509,0.1412578970193863,20.1568603515625,-3.9520263671875,-5.7830810546875
7.1299999000000005,-9.967061996459961,0.5003881454467773,0.1412578970193863,17.6544189453125,-4.8370361328125,-0.1068115234375
7.149999900000001,-9.96945571899414,0.47165772318840027,0.37828385829925537,6.103515625,-6.3323974609375,6.317138671875
7.1699999000000005,-9.99100399017334,0.5913678407669067,0.667982280254364,-7.75146484375,-3.0670166015625,7.2174072265625
7.1899999,-9.955090522766113,0.6536170840263367,0.9097966551780701,-9.6893310546875,-3.7841796875,2.349853515625
7.209999900000001,-9.959878921508789,0.768538773059845,0.9864110946655273,-0.823974609375,-6.5155029296875,-2.349853515625
7.2299999,-9.876082420349121,0.7924807667732239,0.9840168952941895,4.9285888671875,-9.979248046875,-1.03759765625
7.249999900000001,-9.8784761428833,0.8834604024887085,1.070208191871643,-0.030517578125,-0.4730224609375,-1.1749267578125
7.2699999,-9.775525093078613,0.9696516990661621,1.278503656387329,-10.223388671875,8.636474609375,1.5716552734375
7.289999900000001,-9.80904483795166,0.9600749015808105,1.3503297567367554,-21.1639404296875,9.4451904296875,4.45556640625
7.3099999,-9.813833236694336,0.933738648891449,1.357512354850769,-11.688232421875,2.99072265625,3.204345703125
7.329999900000001,-9.897629737854004,0.8188169598579407,1.2473790645599365,3.997802734375,0.1983642578125,-0.1983642578125
7.3499999,-9.995792388916016,0.7637503147125244,1.0127472877502441,3.60107421875,5.31005859375,-5.4779052734375
7.369999900000001,-9.897629737854004,0.7206547260284424,0.8451532125473022,2.960205078125,4.974365234375,-5.4931640625
7.3899999,-9.911994934082031,0.7541735172271729,0.6392518281936646,9.796142578125,4.8065185546875,-2.6397705078125
7.409999900000001,-9.847352027893066,0.7757213711738586,0.49799394607543945,8.6822509765625,1.7852783203125,2.471923828125
7.4299999,-9.8784761428833,0.7852981686592102,0.40701428055763245,1.2054443359375,-2.655029296875,3.47900390625
7.449999900000001,-9.93354320526123,0.7829039692878723,0.45250412821769714,0.3662109375,-4.8065185546875,0.1678466796875
7.4699999,-10.007762908935547,0.8259995579719543,0.6823474764823914,2.0294189453125,-5.5084228515625,-0.518798828125
7.489999900000001,-9.890447616577148,0.8236053586006165,0.9217676520347595,-7.843017578125,-0.48828125,-1.64794921875
7.5099999,-9.84256362915039,0.8834604024887085,1.2114660739898682,-19.8822021484375,10.5743408203125,-2.0599365234375
7.529999900000001,-9.773131370544434,0.8403648138046265,1.3239935636520386,-20.0958251953125,15.5487060546875,2.7008056640625
7.5499999,-9.75637149810791,0.7709329724311829,1.2832920551300049,-14.404296875,6.6070556640625,10.5743408203125
7.569999900000001,-9.849745750427246,0.7254431247711182,1.0821791887283325,-10.4522705078125,1.5869140625,6.6375732421875
7.5899999000000005,-9.84256362915039,0.6153098344802856,0.7038952708244324,-4.0740966796875,0.1220703125,1.007080078125
7.609999900000001,-9.928754806518555,0.7230489253997803,0.5506663918495178,6.77490234375,-3.1585693359375,0.54931640625
7.6299999000000005,-9.78989028930664,1.0558429956436157,0.9552865028381348,-39.276123046875,16.11328125,-1.6021728515625
7.649999900000001,-9.730035781860352,1.3096283674240112,1.4053963422775269,-53.6651611328125,27.7862548828125,1.46484375
7.6699999000000005,-9.641449928283691,1.4197616577148438,1.6663644313812256,-49.1485595703125,25.1617431640625,5.340576171875
7.6899999,-9.80904483795166,1.2737152576446533,1.4437036514282227,-47.5311279296875,21.1181640625,3.1280517578125
7.709999900000001,-9.952696800231934,0.9002198576927185,0.8164227604866028,-30.792236328125,16.54052734375,-0.8544921875
7.7299999,-10.182539939880371,0.49320554733276367,0.10534487664699554,10.284423828125,1.190185546875,-2.6397705078125
7.749999900000001,-10.412383079528809,0.1867477297782898,-0.8236053586006165,31.5704345703125,-8.97216796875,-2.7923583984375
7.7699999,-10.44350814819336,0.08140286058187485,-1.460463047027588,45.3948974609375,-22.0794677734375,-5.3558349609375
7.789999900000001,-10.433931350708008,0.3208230137825012,-1.6759412288665771,66.680908203125,-35.6292724609375,-6.4544677734375
7.8099999,-10.266336441040039,0.5817909836769104,-1.3742717504501343,70.6787109375,-42.236328125,-2.1820068359375
7.829999900000001,-10.089165687561035,0.8259995579719543,-0.5339069962501526,49.1180419921875,-36.80419921875,-2.9144287109375
7.8499999,-9.81143856048584,1.1085153818130493,0.6871358752250671,23.9715576171875,-26.7791748046875,-3.41796875
7.869999900000001,-9.567230224609375,1.2880805730819702,2.0446481704711914,-2.4261474609375,-12.4053955078125,-2.838134765625
7.8899999,-9.26795482635498,1.4532804489135742,3.1459810733795166,-35.3851318359375,12.14599609375,-0.8697509765625
7.909999900000001,-9.208099365234375,1.3479355573654175,3.6320040225982666,-55.3436279296875,33.0810546875,0.8087158203125
7.9299999,-9.277531623840332,1.2282254695892334,3.4093432426452637,-47.66845703125,31.73828125,6.6375732421875
7.949999900000001,-9.603142738342285,0.9097966551780701,2.341529369354248,-23.468017578125,14.862060546875,10.223388671875
7.9699999,-9.806650161743164,0.5722141861915588,0.9313444495201111,1.3275146484375,0.3509521484375,1.2359619140625
7.989999900000001,-10.127472877502441,0.4165911078453064,-0.17477671802043915,20.32470703125,-9.307861328125,-1.6326904296875
8.0099999,-10.196905136108398,0.3256114423274994,-0.6751648783683777,18.6004638671875,-15.2740478515625,0.18310546875
8.0299999,-10.08198356628418,0.5602431893348694,-0.26575639843940735,-5.9051513671875,-5.2032470703125,1.708984375
8.049999900000001,-9.947908401489258,0.7996633648872375,0.45010992884635925,-33.355712890625,13.214111328125,1.495361328125
8.069999900000001,-9.835380554199219,1.0342950820922852,1.3503297567367554,-35.919189453125,18.951416015625,8.30078125
8.0899999,-9.610325813293457,1.1875240802764893,1.9321208000183105,-34.9884033203125,14.9383544921875,6.6070556640625
8.1099999,-9.821015357971191,1.0319008827209473,1.824381709098816,-40.1153564453125,21.05712890625,4.6539306640625
8.129999900000001,-9.974244117736816,0.8523358106613159,1.3766659498214722,-15.2435302734375,14.22119140625,1.373291015625
8.149999900000001,-10.02452278137207,0.7038952708244324,0.6560112833976746,16.6168212890625,-2.5634765625,-1.6632080078125
8.1699999,-10.194510459899902,0.6392518281936646,-0.07900865375995636,24.0631103515625,-5.55419921875,-1.953125
8.1899999,-10.070012092590332,0.7541735172271729,-0.4405331015586853,17.9443359375,-6.04248046875,0.06103515625
8.2099999,-10.000580787658691,1.0654197931289673,-0.15322890877723694,17.63916015625,-10.7879638671875,-3.35693359375
8.229999900000001,-9.871294021606445,1.2473790645599365,0.5003881454467773,-9.0484619140625,-0.152587890625,-1.1444091796875
8.2499999,-9.80904483795166,1.2713210582733154,1.1037269830703735,-47.5921630859375,18.6004638671875,2.74658203125
8.2699999,-9.806650161743164,1.01753568649292,1.4293384552001953,-35.736083984375,12.786865234375,2.5634765625
8.2899999,-9.84495735168457,0.6512228846549988,1.1851298809051514,2.8076171875,0.732421875,-0.2593994140625
8.309999900000001,-9.988609313964844,0.3064578175544739,0.5123591423034668,23.6358642578125,-4.5928955078125,2.8533935546875
8.3299999,-10.012551307678223,0.2537853717803955,0.031124621629714966,34.3780517578125,-12.7105712890625,7.5836181640625
8.3499999,-10.034099578857422,0.5554547905921936,-0.0071826050989329815,31.6009521484375,-16.17431640625,3.6163330078125
8.3699999,-10.005369186401367,0.950498104095459,0.36152446269989014,4.3182373046875,-3.7994384765625,0.518798828125
8.389999900000001,-9.986215591430664,1.292868971824646,0.8667010068893433,-19.8516845703125,4.791259765625,1.6021728515625
8.4099999,-9.921571731567383,1.3886369466781616,1.1851298809051514,-11.9476318359375,0.762939453125,-1.5869140625
8.4299999,-9.847352027893066,1.3551181554794312,1.3239935636520386,7.6751708984375,-0.213623046875,-5.06591796875
8.4499999,-9.739612579345703,1.1779472827911377,1.3096283674240112,8.514404296875,7.3699951171875,-4.3792724609375
8.469999900000001,-9.62947940826416,1.115697979927063,1.3886369466781616,-3.448486328125,13.671875,-1.7852783203125
8.4899999,-9.62947940826416,1.0869675874710083,1.455674648284912,-12.4359130859375,17.9443359375,-1.3427734375
8.5099999,-9.701305389404297,0.9816226959228516,1.3431471586227417,-14.16015625,16.7083740234375,1.220703125
8.5299999,-9.892841339111328,0.8379706144332886,0.9864110946655273,-8.697509765625,13.1378173828125,-0.030517578125
8.549999900000001,-10.08198356628418,0.6919242739677429,0.40462008118629456,2.593994140625,3.84521484375,-1.617431640625
8.569999900000001,-10.187328338623047,0.5770025849342346,-0.21547815203666687,9.4451904296875,-2.0294189453125,-2.532958984375
8.5899999,-10.247182846069336,0.5171475410461426,-0.6488286852836609,15.899658203125,-8.3160400390625,-2.899169921875
8.6099999,-10.160991668701172,0.5626373887062073,-0.6584054827690125,25.87890625,-15.8843994140625,-1.8463134765625
8.629999900000001,-10.105925559997559,0.646434485912323,-0.23702596127986908,20.660400390625,-13.427734375,2.8076171875
8.649999900000001,-9.938331604003906,0.7182605266571045,0.40462008118629456,3.8909912109375,-6.622314453125,8.1024169921875
8.6699999,-9.847352027893066,0.8810662031173706,1.0869675874710083,-2.25830078125,-1.9378662109375,3.265380859375
8.6899999,-9.72285270690918,1.0462661981582642,1.455674648284912,1.0223388671875,1.251220703125,-3.1280517578125
8.709999900000001,-9.674968719482422,1.2090718746185303,1.6759412288665771,-7.0343017578125,10.284423828125,-2.593994140625
8.729999900000001,-9.725247383117676,1.3431471586227417,1.5969325304031372,-18.707275390625,15.3350830078125,0.7476806640625
8.7499999,-9.746794700622559,1.259350061416626,1.3096283674240112,-14.190673828125,12.1307373046875,-0.2899169921875
8.7699999,-9.897629737854004,1.1468225717544556,0.8643068075180054,0.54931640625,4.7149658203125,-0.6103515625
8.7899999,-10.022128105163574,0.8164227604866028,0.2585737705230713,11.5966796875,-4.638671875,-1.129150390625
8.809999900000001,-10.105925559997559,0.6129156351089478,-0.2106897532939911,21.331787109375,-12.2833251953125,-3.0975341796875
8.8299999,-10.091560363769531,0.5961562395095825,-0.36152446269989014,28.7933349609375,-14.0228271484375,-2.899169921875
8.8499999,-9.952696800231934,0.7086837291717529,-0.07661445438861847,20.0653076171875,-7.8582763671875,-3.021240234375
8.8699999,-9.763554573059082,1.0295066833496094,0.6368576288223267,-3.7384033203125,1.434326171875,-2.532958984375
8.889999900000001,-9.696516990661621,1.194706678390503,1.278503656387329,-28.6407470703125,15.0299072265625,0.6256103515625
8.9099999,-9.715670585632324,1.1635819673538208,1.6136919260025024,-32.6690673828125,16.357421875,7.354736328125
8.9299999,-9.854534149169922,0.9648633003234863,1.4269442558288574,-14.46533203125,7.6141357421875,3.265380859375
8.9499999,-9.995792388916016,0.6655880808830261,0.7589619159698486,9.6893310546875,-3.0059814453125,-2.3651123046875
8.969999900000001,-10.074800491333008,0.5434837937355042,0.1843535304069519,20.44677734375,-6.7901611328125,-0.1983642578125
8.9899999,-10.08437728881836,0.6344634294509888,-0.17477671802043915,14.1143798828125,-7.7667236328125,3.997802734375
9.0099999,-10.02691650390625,0.8212111592292786,-0.13168109953403473,8.1939697265625,-8.056640625,0.213623046875
9.0299999,-9.938331604003906,1.0055646896362305,0.1843535304069519,5.2032470703125,-4.7607421875,-1.007080078125
9.049999900000001,-9.931148529052734,1.0606313943862915,0.6105214357376099,0.762939453125,-3.2501220703125,5.2337646484375
9.069999900000001,-9.921571731567383,1.0031704902648926,0.8403648138046265,0.3509521484375,-4.180908203125,2.8839111328125
9.0899999,-9.895236015319824,1.0031704902648926,0.993593692779541,8.575439453125,-7.3699951171875,-1.40380859375
9.1099999,-9.801861763000488,1.1516109704971313,1.1540051698684692,2.9449462890625,0.457763671875,-3.60107421875
9.129999900000001,-9.782708168029785,1.3431471586227417,1.2761094570159912,-19.47021484375,10.650634765625,-1.6937255859375
9.149999900000001,-9.713275909423828,1.3527239561080933,1.290474772453308,-31.4178466796875,14.434814453125,-0.1068115234375
9.1699999,-9.816226959228516,1.2018892765045166,1.0606313943862915,-15.7012939453125,8.3465576171875,2.7008056640625
9.1899999,-9.9000244140625,0.8379706144332886,0.47165772318840027,11.8408203125,-6.8511962890625,1.40380859375
9.209999900000001,-10.089165687561035,0.4596867263317108,-0.16519992053508759,34.6832275390625,-19.317626953125,-3.4942626953125
9.229999900000001,-10.103530883789062,0.42856210470199585,-0.4405331015586853,44.0216064453125,-24.8870849609375,-1.953125
9.2499999,-10.06043529510498,0.730231523513794,-0.05985504388809204,29.3426513671875,-16.4794921875,-0.67138671875
9.2699999,-9.847352027893066,1.2976573705673218,0.8906430602073669,-9.21630859375,0.9918212890625,-2.6397705078125
9.2899999,-9.622296333312988,1.6974890232086182,1.8291701078414917,-49.407958984375,23.0255126953125,-4.39453125
9.309999900000001,-9.548076629638672,1.7693150043487549,2.3104045391082764,-51.81884765625,28.594970703125,0.579833984375
9.3299999,-9.648633003234863,1.3120225667953491,1.8602946996688843,-20.69091796875,11.5203857421875,2.38037109375
9.3499999,-9.895236015319824,0.6607996821403503,0.8307880163192749,15.289306640625,-6.7291259765625,-1.7852783203125
9.3699999,-10.0580415725708,0.26336219906806946,-0.1867477297782898,37.65869140625,-16.2200927734375,-0.42724609375
9.389999900000001,-10.223240852355957,0.2298433631658554,-0.6751648783683777,36.041259765625,-18.4326171875,2.38037109375
9.4099999,-10.129867553710938,0.6536170840263367,-0.3423708379268646,14.6331787109375,-15.4266357421875,1.5106201171875
9.4299999,-9.931148529052734,1.1659762859344482,0.35913026332855225,-15.2587890625,-2.3345947265625,-3.60107421875
9.4499999,-9.8784761428833,1.4700398445129395,1.036689281463623,-26.7333984375,7.110595703125,-3.753662109375
9.469999900000001,-9.75637149810791,1.403002142906189,1.316810965538025,-13.824462890625,-1.251220703125,-1.2664794921875
9.4899999,-9.828198432922363,0.9720458984375,1.0773907899856567,8.6822509765625,-13.031005859375,-0.579833984375
9.5099999,-9.823410034179688,0.6488286852836609,0.9026140570640564,24.688720703125,-14.434814453125,-0.091552734375
9.5299999,-9.823410034179688,0.545877993106842,1.0247182846069336,12.0391845703125,-4.486083984375,3.1585693359375
9.549999900000001,-9.744400978088379,0.7541735172271729,1.4508862495422363,-26.8402099609375,12.3443603515625,5.8135986328125
9.569999900000001,-9.701305389404297,1.0821791887283325,1.7860745191574097,-49.0264892578125,22.430419921875,3.7689208984375
9.5899999,-9.734824180603027,1.192312479019165,1.778891921043396,-31.3262939453125,16.815185546875,2.5787353515625
9.6099999,-9.883264541625977,1.0965443849563599,1.1755530834197998,0.7476806640625,2.044677734375,-1.3275146484375
9.629999900000001,-10.000580787658691,0.8667010068893433,0.31842881441116333,26.611328125,-13.702392578125,-3.5247802734375
9.649999900000001,-10.077195167541504,0.8355764150619507,-0.1388636976480484,37.3077392578125,-18.24951171875,-1.9989013671875
9.6699999,-10.029311180114746,0.950498104095459,-0.035913024097681046,18.5394287109375,-10.92529296875,-1.1749267578125
9.6899999,-9.873687744140625,1.1827356815338135,0.6727706789970398,-21.7132568359375,6.40869140625,-1.4495849609375
9.709999900000001,-9.763554573059082,1.278503656387329,1.3551181554794312,-43.3807373046875,18.524169921875,-0.54931640625
9.729999900000001,-9.737217903137207,1.1204863786697388,1.6903064250946045,-25.299072265625,12.7716064453125,2.8533935546875
9.7499999,-9.813833236694336,0.8212111592292786,1.45806884765625,4.7149658203125,-0.3814697265625,0.2288818359375
9.7699999,-9.9000244140625,0.5099649429321289,0.7493851184844971,24.261474609375,-9.7503662109375,-2.3956298828125
9.7899999,-9.967061996459961,0.49559974670410156,0.3758896589279175,32.7301025390625,-11.1846923828125,-0.0152587890625
9.809999900000001,-9.928754806518555,0.7637503147125244,0.45489832758903503,15.80810546875,-7.415771484375,2.960205078125
9.8299999,-9.825803756713867,1.1204863786697388,0.8403648138046265,-25.482177734375,8.1939697265625,2.197265625
9.8499999,-9.816226959228516,1.3838485479354858,1.2234370708465576,-45.9747314453125,17.39501953125,0.5340576171875
9.8699999,-9.773131370544434,1.3335703611373901,1.2665326595306396,-24.47509765625,5.615234375,2.227783203125
9.889999900000001,-9.981427192687988,0.9720458984375,0.9169792532920837,5.1116943359375,-8.30078125,0.5035400390625
9.9099999,-10.050858497619629,0.6655880808830261,0.40701428055763245,21.5911865234375,-15.7470703125,-0.2899169921875
9.9299999,-10.010157585144043,0.6775590777397156,0.3974374830722809,21.8658447265625,-10.31494140625,1.3885498046875
9.9499999,-9.852140426635742,0.9600749015808105,0.9289502501487732,-3.2196044921875,1.40380859375,0.457763671875
9.969999900000001,-9.639056205749512,1.292868971824646,1.4867992401123047,-40.0238037109375,19.6533203125,1.434326171875
9.9899999,-9.658209800720215,1.5155296325683594,1.821987509727478,-46.966552734375,22.9034423828125,2.7618408203125
10.0099999,-9.62947940826416,1.3455413579940796,1.6615760326385498,-19.744873046875,7.476806640625,1.89208984375
10.0299999,-9.904812812805176,0.9888052940368652,1.0869675874710083,7.1258544921875,-3.90625,-6.5765380859375
10.049999900000001,-9.955090522766113,0.6607996821403503,0.48602294921875,16.5252685546875,-4.7760009765625,-2.105712890625
10.069999900000001,-9.983820915222168,0.5770025849342346,0.3256114423274994,11.23046875,-2.105712890625,4.7760009765625
10.0899999,-9.871294021606445,0.7996633648872375,0.6871358752250671,-9.46044921875,1.4190673828125,2.410888671875
10.1099999,-9.787496566772461,1.0654197931289673,1.2306196689605713,-38.6810302734375,19.775390625,-1.6021728515625
10.129999900000001,-9.703699111938477,1.3934253454208374,1.7166426181793213,-53.497314453125,28.6407470703125,3.1890869140625
10.149999900000001,-9.825803756713867,1.434126853942871,1.623268723487854,-43.3807373046875,26.336669921875,8.6212158203125
10.1699999,-9.892841339111328,1.1683704853057861,1.0630255937576294,-10.68115234375,0.8697509765625,-5.340576171875
10.1899999,-10.11789608001709,0.8643068075180054,0.16759411990642548,13.5498046875,-3.23486328125,-10.31494140625
10.209999900000001,-10.11789608001709,0.5291185975074768,-0.4357447028160095,31.158447265625,-4.364013671875,-1.6326904296875
10.229999900000001,-10.223240852355957,0.3902548849582672,-0.7158663272857666,35.0189208984375,-12.9241943359375,0.762939453125
10.2499999,-10.11789608001709,0.4429273009300232,-0.3064578175544739,32.8216552734375,-15.869140625,-1.8768310546875
10.2699999,-9.955090522766113,0.7613561153411865,0.2753331959247589,9.6282958984375,-3.7994384765625,-1.4190673828125
10.2899999,-9.883264541625977,1.0534487962722778,0.8571242094039917,-10.772705078125,6.77490234375,2.960205078125
10.309999900000001,-9.68933391571045,1.2042834758758545,1.292868971824646,-1.2664794921875,-1.4495849609375,0.885009765625
10.3299999,-9.780313491821289,1.1827356815338135,1.2737152576446533,12.4053955078125,-7.2021484375,-8.087158203125
10.3499999,-9.830592155456543,1.0534487962722778,1.0103530883789062,12.176513671875,-0.9613037109375,-4.6539306640625
10.3699999,-9.923966407775879,0.9433154463768005,0.8786720037460327,8.1939697265625,-2.44140625,3.143310546875
10.389999900000001,-9.9000244140625,0.950498104095459,1.0438719987869263,0.8697509765625,-3.0059814453125,2.8533935546875
10.4099999,-9.856928825378418,1.0342950820922852,1.2306196689605713,-21.6827392578125,11.871337890625,0.5645751953125
10.4299999,-9.825803756713867,1.0534487962722778,1.2952631711959839,-28.6712646484375,18.61572265625,6.3629150390625
10.4499999,-9.86889934539795,1.0271124839782715,1.0654197931289673,-2.8533935546875,2.3040771484375,2.1820068359375
10.469999900000001,-9.940725326538086,0.8978256583213806,0.45010992884635925,22.15576171875,-11.2152099609375,-9.979248046875
10.4899999,-10.070012092590332,0.8690952062606812,-0.11252748221158981,28.472900390625,-10.25390625,-7.9803466796875
10.5099999,-10.029311180114746,0.8834604024887085,-0.1843535304069519,24.1546630859375,-13.7939453125,-0.06103515625
10.5299999,-9.923966407775879,1.015141487121582,0.42377370595932007,7.7362060546875,-10.833740234375,2.197265625
10.549999900000001,-9.763554573059082,1.1037269830703735,1.1204863786697388,-24.9481201171875,9.307861328125,1.190185546875
10.569999900000001,-9.672574996948242,1.0773907899856567,1.6304513216018677,-32.8216552734375,19.6380615234375,4.1656494140625
10.5899999,-9.75637149810791,0.9481038451194763,1.7621324062347412,-7.14111328125,4.94384765625,2.1514892578125
10.6099999,-9.955090522766113,0.8643068075180054,0.8188169598579407,5.645751953125,5.859375,-4.0435791015625
10.629999900000001,-9.93593692779541,1.0007762908935547,0.5746083855628967,8.4381103515625,0.9307861328125,-4.5013427734375
10.649999900000001,-9.90241813659668,1.1420341730117798,0.6009446382522583,7.2174072265625,-1.9683837890625,-4.7454833984375
10.6699999,-9.950302124023438,1.0893617868423462,0.5817909836769104,-7.171630859375,6.3018798828125,-1.800537109375
10.6899999,-9.964667320251465,0.912190854549408,0.5961562395095825,-5.1116943359375,3.96728515625,1.89208984375
10.709999900000001,-10.065223693847656,0.7398083209991455,0.43095630407333374,15.3045654296875,-11.7645263671875,-1.7547607421875
10.729999900000001,-10.065223693847656,0.5482721924781799,0.18914192914962769,23.345947265625,-16.693115234375,-4.4403076171875
10.7499999,-10.079588890075684,0.6009446382522583,0.12449848651885986,16.571044921875,-9.7503662109375,-0.8544921875
10.7699999,-9.86889934539795,0.8020575642585754,0.6967126727104187,6.317138671875,-6.3934326171875,5.279541015625
10.7899999,-9.6989107131958,0.9672574996948242,1.4221558570861816,-23.8494873046875,7.3699951171875,7.0037841796875
10.809999900000001,-9.617507934570312,1.1635819673538208,1.9057846069335938,-52.8564453125,26.611328125,5.4168701171875
10.8299999,-9.6989107131958,1.173158884048462,1.845929503440857,-35.9039306640625,18.1427001953125,8.056640625
10.8499999,-9.876082420349121,1.0654197931289673,1.1851298809051514,4.7454833984375,-5.3253173828125,1.739501953125
10.8699999,-9.99339771270752,0.9289502501487732,0.29209262132644653,30.303955078125,-15.3045654296875,-8.7127685546875
10.889999900000001,-10.120290756225586,0.8690952062606812,-0.23702596127986908,33.26416015625,-11.871337890625,-8.5906982421875
10.9099999,-9.979032516479492,0.9074024558067322,-0.033518824726343155,22.857666015625,-10.772705078125,0.335693359375
10.9299999,-9.84256362915039,1.0342950820922852,0.5674257874488831,-2.0294189453125,-2.0599365234375,4.302978515625
10.9499999,-9.734824180603027,1.1635819673538208,1.357512354850769,-26.123046875,12.054443359375,-0.1678466796875
10.969999900000001,-9.746794700622559,1.1276689767837524,1.721431016921997,-28.228759765625,17.6849365234375,1.3885498046875
10.9899999,-9.794678688049316,1.0295066833496094,1.6879122257232666,-9.6588134765625,7.659912109375,1.556396484375
11.0099999,-9.854534149169922,0.8619126081466675,1.1013327836990356,5.18798828125,-1.03759765625,-2.38037109375
11.0299999,-9.90241813659668,0.7398083209991455,0.507570743560791,11.932373046875,0.0152587890625,-4.57763671875
11.049999900000001,-9.876082420349121,0.7589619159698486,0.19393034279346466,13.48876953125,-3.8299560546875,1.251220703125
11.069999900000001,-9.923966407775879,0.8690952062606812,0.2082955539226532,3.1280517578125,-5.2642822265625,5.6915283203125
11.0899999,-9.864110946655273,1.091755986213684,0.6775590777397156,-16.11328125,-0.885009765625,4.69970703125
11.1099999,-9.876082420349121,1.1540051698684692,0.9169792532920837,-36.224365234375,12.3443603515625,1.77001953125
11.129999900000001,-9.86889934539795,1.2306196689605713,1.3024457693099976,-26.519775390625,7.354736328125,-3.570556640625
11.149999900000001,-9.86650562286377,1.0534487962722778,1.2689268589019775,-9.063720703125,2.288818359375,-2.1820068359375
11.1699999,-9.926360130310059,0.9313444495201111,1.1204863786697388,-5.55419921875,9.429931640625,0.3662109375
11.1899999,-9.95748519897461,0.790086567401886,0.8427590131759644,-0.0762939453125,7.0343017578125,2.38037109375
11.209999900000001,-9.883264541625977,0.7996633648872375,0.6488286852836609,14.007568359375,-1.40380859375,-1.89208984375
11.229999900000001,-9.888052940368652,0.7805097699165344,0.5961562395095825,11.749267578125,-1.129150390625,-0.946044921875
11.2499999,-9.964667320251465,0.8403648138046265,0.31603461503982544,-4.1351318359375,4.5013427734375,5.706787109375
11.2699999,-10.053253173828125,0.9097966551780701,0.28730419278144836,4.2572021484375,-7.5836181640625,4.5318603515625
11.2899999,-10.050858497619629,1.1109095811843872,0.3447650372982025,18.6920166015625,-20.233154296875,-9.8724365234375
11.309999900000001,-9.919178009033203,1.2210428714752197,0.5961562395095825,2.9144287109375,-2.13623046875,-13.214111328125
11.3299999,-9.84495735168457,1.1875240802764893,0.9457096457481384,-17.7154541015625,16.0675048828125,-2.99072265625
11.3499999,-9.730035781860352,1.0247182846069336,1.3670891523361206,-8.8348388671875,6.8206787109375,7.904052734375
11.3699999,-9.763554573059082,0.7948749661445618,1.403002142906189,-2.7923583984375,3.1585693359375,4.425048828125
11.389999900000001,-9.938331604003906,0.6823474764823914,1.05105459690094,-15.167236328125,9.3536376953125,3.0975341796875
11.4099999,-10.046070098876953,0.7398083209991455,0.5195417404174805,-11.9476318359375,0.8392333984375,7.2021484375
11.4299999,-10.125079154968262,0.871489405632019,0.05027823522686958,11.5203857421875,-23.4832763671875,1.2664794921875
11.4499999,-10.029311180114746,1.0630255937576294,-0.004788403399288654,18.24951171875,-23.0255126953125,-8.453369140625
11.469999900000001,-9.892841339111328,1.1659762859344482,0.3447650372982025,-5.340576171875,0.946044921875,-8.7890625
11.4899999,-9.742006301879883,1.1420341730117798,1.0989385843276978,-22.186279296875,16.082763671875,0.06103515625
11.5099999,-9.586383819580078,1.094150185585022,1.824381709098816,-20.44677734375,11.2457275390625,7.0037841796875
11.5299999,-9.636661529541016,0.933738648891449,1.9153614044189453,-24.6734619140625,19.317626953125,5.3558349609375
11.549999900000001,-9.828198432922363,0.9002198576927185,1.3982137441635132,-16.021728515625,15.7470703125,5.0048828125
11.569999900000001,-9.988609313964844,0.8834604024887085,0.5530605912208557,12.3291015625,-10.406494140625,-0.640869140625
11.5899999,-10.165780067443848,0.9696516990661621,-0.2585737705230713,40.496826171875,-30.517578125,-13.24462890625
11.6099999,-10.079588890075684,1.039083480834961,-0.4118026793003082,40.34423828125,-22.0489501953125,-14.404296875
11.629999900000001,-9.950302124023438,1.0462661981582642,0.1149216815829277,10.80322265625,-1.678466796875,-6.3323974609375
11.649999900000001,-9.713275909423828,1.0582371950149536,1.1228805780410767,-17.76123046875,9.979248046875,4.94384765625
11.6699999,-9.622296333312988,0.9768342971801758,1.9273324012756348,-33.9813232421875,17.0440673828125,5.9051513671875
11.6899999,-9.727641105651855,0.9313444495201111,1.9800047874450684,-34.1033935546875,20.6298828125,3.35693359375
11.709999900000001,-9.885659217834473,0.8068459630012512,1.3503297567367554,-10.162353515625,6.011962890625,0.9307861328125
11.729999900000001,-10.055646896362305,0.7709329724311829,0.4213795065879822,23.0255126953125,-21.6217041015625,-4.1351318359375
11.7499999,-10.072406768798828,0.7876923680305481,-0.0933738648891449,35.70556640625,-26.0009765625,-9.552001953125
11.7699999,-9.99100399017334,0.7709329724311829,0.019153613597154617,12.6190185546875,-7.781982421875,-7.8277587890625
11.7899999,-9.854534149169922,0.9145850539207458,0.9026140570640564,-17.730712890625,13.3056640625,3.11279296875
11.809999900000001,-9.59835433959961,0.9911994934082031,1.7501614093780518,-34.3017578125,18.06640625,8.9569091796875
11.8299999,-9.639056205749512,1.015141487121582,2.0853497982025146,-39.0472412109375,23.13232421875,3.5552978515625
11.8499999,-9.785101890563965,0.9648633003234863,1.5682021379470825,-21.9879150390625,18.6309814453125,0.8087158203125
11.8699999,-9.86889934539795,0.9672574996948242,0.8092401623725891,12.5579833984375,-10.3912353515625,-0.396728515625
11.889999900000001,-9.849745750427246,1.1420341730117798,0.586579442024231,22.918701171875,-20.6451416015625,-6.866455078125
11.9099999,-9.53849983215332,1.3742717504501343,1.1109095811843872,-34.3475341796875,22.1710205078125,-11.5814208984375
11.9299999,-9.35893440246582,1.6615760326385498,1.6711528301239014,-105.3924560546875,69.39697265625,4.21142578125
11.9499999,-8.995016098022461,1.5322890281677246,1.7070658206939697,-104.4158935546875,56.7169189453125,17.608642578125
11.969999900000001,-8.93037223815918,1.0199298858642578,0.5578489899635315,-43.02978515625,7.14111328125,3.814697265625
11.9899999,-8.669404029846191,0.20350714027881622,-1.0079588890075684,18.6767578125,-21.8048095703125,-4.4097900390625
12.0099999,-8.307879447937012,-0.6991068720817566,-1.7908629179000854,62.19482421875,-32.6690673828125,10.009765625
12.0299999,-8.324639320373535,-1.0845733880996704,-1.292868971824646,70.6634521484375,-25.4058837890625,22.5067138671875
12.049999900000001,-9.169792175292969,-0.608127236366272,-0.26336219906806946,40.34423828125,2.7008056640625,26.153564453125
12.069999900000001,-9.895236015319824,0.6584054827690125,1.3934253454208374,6.500244140625,17.0440673828125,15.869140625
12.0899999,-11.228805541992188,2.367865562438965,2.0925323963165283,-24.35302734375,32.1807861328125,-2.105712890625
12.1099999,-12.02846908569336,3.31118106842041,1.8698714971542358,-41.7022705078125,35.5377197265625,-16.693115234375
12.129999900000001,-12.050017356872559,3.2130186557769775,0.6655880808830261,-19.2413330078125,9.46044921875,-14.2364501953125
12.149999900000001,-12.203246116638184,1.9919757843017578,-0.8331822156906128,25.604248046875,-34.5458984375,1.1444091796875
12.1699999,-11.604695320129395,0.31364041566848755,-1.9752163887023926,62.3626708984375,-66.83349609375,-2.9144287109375
12.1899999,-10.886435508728027,-0.2992752194404602,-1.656787633895874,74.310302734375,-50.079345703125,10.7269287109375
12.209999900000001,-10.055646896362305,-0.22505496442317963,-0.0071826050989329815,36.1785888671875,-16.693115234375,21.087646484375
12.229999900000001,-9.478644371032715,0.7805097699165344,1.7046716213226318,-31.92138671875,25.360107421875,-1.953125
12.2499999,-8.846575736999512,2.1045033931732178,3.090914487838745,-57.7545166015625,43.64013671875,-5.1727294921875
12.2699999,-9.588777542114258,2.647987127304077,3.0334534645080566,-48.3245849609375,35.3240966796875,-2.197265625
12.289999900000002,-9.701305389404297,2.650381326675415,1.8100165128707886,-22.674560546875,8.4075927734375,-26.8402099609375
12.309999900000001,-11.14500904083252,2.0015525817871094,0.35673606395721436,20.050048828125,-12.1002197265625,-1.5106201171875
12.3299999,-11.532869338989258,1.2689268589019775,-0.9097966551780701,54.50439453125,-30.8837890625,-23.13232421875
12.3499999,-11.944672584533691,0.6129156351089478,-1.259350061416626,66.7572021484375,-35.430908203125,-9.1552734375
12.3699999,-11.085153579711914,0.5099649429321289,-0.7948749661445618,47.8515625,-24.932861328125,-14.434814453125
12.389999900000001,-10.223240852355957,0.6799532771110535,0.3758896589279175,15.655517578125,0.6866455078125,-4.2877197265625
12.4099999,-8.746018409729004,0.871489405632019,1.647210717201233,-18.829345703125,13.9007568359375,-7.6141357421875
12.4299999,-7.994239330291748,1.0295066833496094,2.4851813316345215,-46.4630126953125,32.2723388671875,-4.57763671875
12.4499999,-7.754819393157959,0.849941611289978,2.631227731704712,-54.0771484375,32.40966796875,1.251220703125
12.469999900000001,-8.097189903259277,0.5267243981361389,1.8387469053268433,-40.740966796875,24.261474609375,9.70458984375
12.4899999,-8.760383605957031,0.24899697303771973,0.6344634294509888,-10.80322265625,5.9814453125,12.8021240234375
12.5099999,-9.828198432922363,0.2849099934101105,-0.5051765441894531,20.538330078125,-13.031005859375,7.62939453125
12.5299999,-11.022904396057129,0.5506663918495178,-1.0845733880996704,35.9954833984375,-27.8167724609375,-11.77978515625
12.549999900000001,-12.289437294006348,1.094150185585022,-0.9026140570640564,36.0107421875,-15.7012939453125,-16.0064697265625
12.569999900000001,-13.026851654052734,1.5322890281677246,-0.2106897532939911,23.162841796875,-8.941650390625,-12.6953125
12.5899999,-13.208810806274414,1.8195933103561401,0.6153098344802856,8.544921875,-2.9449462890625,-18.4326171875
12.6099999,-12.401965141296387,1.8555063009262085,1.1516109704971313,0.823974609375,-9.0179443359375,-21.3470458984375
12.629999900000001,-10.90798282623291,1.678335428237915,1.3096283674240112,1.7242431640625,-4.2572021484375,-34.8663330078125
12.649999900000001,-9.277531623840332,1.3407529592514038,1.1300631761550903,8.1787109375,14.9078369140625,-25.1617431640625
12.6699999,-7.994239330291748,0.9720458984375,0.8403648138046265,11.016845703125,12.9241943359375,-0.9002685546875
12.6899999,-7.321468830108643,0.6248866319656372,0.586579442024231,5.5084228515625,-1.40380859375,5.6610107421875
12.709999900000001,-7.390900611877441,0.304063618183136,0.45250412821769714,1.6632080078125,6.6375732421875,-10.0250244140625
12.729999900000001,-7.841010570526123,0.11252748221158981,0.4213795065879822,2.7618408203125,15.7470703125,-15.44189453125
12.7499999,-8.458714485168457,-0.033518824726343155,0.4141969084739685,6.866455078125,6.103515625,-3.2196044921875
12.7699999,-9.035717010498047,-0.09576806426048279,0.4141969084739685,10.7879638671875,-7.5531005859375,2.1820068359375
12.789999900000002,-9.581595420837402,-0.07900865375995636,0.4213795065879822,17.51708984375,-11.4288330078125,-5.767822265625
12.809999900000001,-9.99339771270752,0.038307227194309235,0.5219359993934631,20.721435546875,-6.5460205078125,-12.4053955078125
12.8299999,-10.383652687072754,0.08140286058187485,0.49799394607543945,18.890380859375,-4.730224609375,-15.68603515625
12.8499999,-10.498574256896973,0.1628057211637497,0.5793967843055725,26.8096923828125,-12.6190185546875,-20.8282470703125
12.8699999,-10.47942066192627,0.2298433631658554,0.6344634294509888,30.2886962890625,-10.894775390625,-22.1710205078125
12.889999900000001,-10.26394271850586,0.3232172429561615,0.7805097699165344,16.326904296875,-1.28173828125,-14.70947265625
12.9099999,-9.947908401489258,0.49320554733276367,1.039083480834961,-1.8768310546875,6.89697265625,-5.157470703125
12.9299999,-9.679757118225098,0.6655880808830261,1.2210428714752197,-16.326904296875,16.510009765625,-2.6702880859375
12.9499999,-9.533711433410645,0.7541735172271729,1.2330138683319092,-23.0865478515625,19.5770263671875,-4.0283203125
12.969999900000001,-9.543288230895996,0.7206547260284424,1.0319008827209473,-21.6827392578125,14.6331787109375,-3.0364990234375
12.9899999,-9.66299819946289,0.5530605912208557,0.6751648783683777,-14.739990234375,7.8887939453125,-1.0986328125
13.0099999,-9.823410034179688,0.3064578175544739,0.29209262132644653,-4.8065185546875,-0.54931640625,0.5950927734375
13.0299999,-9.971850395202637,0.05506663769483566,-0.016759412363171577,5.2337646484375,-4.69970703125,1.8463134765625
13.049999900000001,-10.098742485046387,-0.12449848651885986,-0.19632454216480255,13.519287109375,-0.946044921875,1.2969970703125
13.069999900000001,-10.194510459899902,-0.20111294090747833,-0.22266076505184174,18.341064453125,2.4261474609375,-0.9307861328125
13.0899999,-10.271124839782715,-0.17717093229293823,-0.1149216815829277,19.0582275390625,-0.6103515625,-3.2196044921875
13.1099999,-10.309432983398438,-0.09576806426048279,0.07900865375995636,17.8375244140625,-3.23486328125,-4.8675537109375
13.129999900000001,-10.261548042297363,-0.009576806798577309,0.30885201692581177,17.08984375,0.2899169921875,-5.9661865234375
13.149999900000001,-10.122684478759766,0.043095629662275314,0.5219359993934631,16.7083740234375,3.9520263671875,-5.92041015625
13.1699999,-9.950302124023438,0.07661445438861847,0.6799532771110535,15.5792236328125,3.4027099609375,-3.84521484375
13.1899999,-9.801861763000488,0.09816227108240128,0.7733271718025208,13.85498046875,0.9765625,-2.2125244140625
13.209999900000001,-9.720458984375,0.12689268589019775,0.8236053586006165,11.962890625,0.0152587890625,-2.105712890625
13.229999900000001,-9.674968719482422,0.15562310814857483,0.8427590131759644,10.19287109375,2.044677734375,-4.2724609375
13.2499999,-9.658209800720215,0.1628057211637497,0.8451532125473022,8.9111328125,5.2642822265625,-6.1798095703125
13.2699999,-9.660603523254395,0.15083470940589905,0.8403648138046265,7.415771484375,5.2337646484375,-4.608154296875
13.289999900000002,-9.68694019317627,0.1173158809542656,0.828393816947937,5.43212890625,2.6397705078125,-1.800537109375
13.309999900000001,-9.725247383117676,0.07900865375995636,0.811634361743927,3.8299560546875,0.640869140625,-1.3427734375
13.3299999,-9.746794700622559,0.040701430290937424,0.7948749661445618,3.47900390625,0.5645751953125,-1.7242431640625
13.3499999,-9.765948295593262,0.019153613597154617,0.790086567401886,3.0517578125,1.4190673828125,0.091552734375
13.3699999,-9.758766174316406,0.0071826050989329815,0.7829039692878723,0.91552734375,0.6866455078125,1.251220703125
13.389999900000001,-9.734824180603027,0.004788403399288654,0.7781155705451965,-1.6632080078125,-0.3204345703125,0.335693359375
13.4099999,-9.696516990661621,-0.004788403399288654,0.7565677165985107,-2.8228759765625,1.0223388671875,0.8544921875
13.4299999,-9.636661529541016,-0.023942016065120697,0.7158663272857666,-3.1585693359375,2.50244140625,3.692626953125
13.4499999,-9.560047149658203,-0.06464344263076782,0.6584054827690125,-3.5552978515625,2.3651123046875,5.1422119140625
13.469999900000001,-9.516951560974121,-0.09576806426048279,0.5961562395095825,-3.509521484375,2.5482177734375,5.035400390625
13.4899999,-9.50737476348877,-0.12449848651885986,0.5363011956214905,-2.7923583984375,1.2664794921875,5.157470703125
13.5099999,-9.536105155944824,-0.13407529890537262,0.49559974670410156,-1.9683837890625,-2.3193359375,6.7138671875
13.5299999,-9.586383819580078,-0.13407529890537262,0.47165772318840027,-1.861572265625,-4.7607421875,8.392333984375
13.549999900000001,-9.648633003234863,-0.12449848651885986,0.47405192255973816,-2.2125244140625,-4.3792724609375,7.5836181640625
13.569999900000001,-9.696516990661621,-0.11252748221158981,0.5003881454467773,-2.593994140625,-1.2969970703125,4.4708251953125
13.5899999,-9.75637149810791,-0.09816227108240128,0.5339069962501526,-2.777099609375,0.6866455078125,3.3416748046875
13.6099999,-9.823410034179688,-0.08619125932455063,0.5650315880775452,-3.509521484375,-3.4332275390625,5.0506591796875
13.629999900000001,-9.892841339111328,-0.07422025501728058,0.5913678407669067,-4.5928955078125,-7.8125,5.0506591796875
13.649999900000001,-9.955090522766113,-0.06224924325942993,0.608127236366272,-4.5928955078125,-5.4473876953125,2.5787353515625
13.6699999,-10.010157585144043,-0.0454898327589035,0.6248866319656372,-4.1351318359375,-1.0986328125,1.739501953125
13.6899999,-10.0580415725708,-0.023942016065120697,0.6272808313369751,-4.7760009765625,-2.349853515625,2.716064453125
13.709999900000001,-10.072406768798828,0,0.6344634294509888,-4.913330078125,-7.2021484375,1.6937255859375
13.729999900000001,-10.08437728881836,0.021547814831137657,0.6607996821403503,-3.8604736328125,-5.8746337890625,0.2899169921875
13.7499999,-10.137049674987793,0.06464344263076782,0.6967126727104187,-4.7149658203125,-0.6103515625,1.312255859375
13.7699999,-10.199298858642578,0.1149216815829277,0.7422025203704834,-7.6446533203125,-0.152587890625,-1.2664794921875
13.789999900000002,-10.268731117248535,0.1604115068912506,0.7565677165985107,-9.82666015625,-2.86865234375,-6.8511962890625
13.809999900000001,-10.280701637268066,0.20111294090747833,0.7374141216278076,-10.040283203125,-5.9967041015625,-7.5225830078125
13.8299999,-10.189722061157227,0.2082955539226532,0.6847416758537292,-9.0484619140625,-3.9520263671875,-2.8076171875
13.8499999,-10.053253173828125,0.2082955539226532,0.608127236366272,-7.232666015625,-0.9765625,2.7313232421875
13.8699999,-9.911994934082031,0.21308395266532898,0.5410895943641663,-4.2724609375,-3.8909912109375,3.90625
13.889999900000001,-9.84256362915039,0.23702596127986908,0.49799394607543945,-0.91552734375,-5.8746337890625,2.3193359375
13.9099999,-9.847352027893066,0.2849099934101105,0.4884171485900879,0.4425048828125,-4.82177734375,1.678466796875
13.9299999,-9.892841339111328,0.33518823981285095,0.5291185975074768,-0.5340576171875,-1.617431640625,0.091552734375
13.9499999,-9.967061996459961,0.38307225704193115,0.5889736413955688,-1.28173828125,3.2806396484375,-2.716064453125
13.969999900000001,-10.034099578857422,0.4165911078453064,0.667982280254364,-0.8087158203125,3.84521484375,-2.44140625
13.9899999,-10.103530883789062,0.43095630407333374,0.7398083209991455,0.0762939453125,3.0364990234375,1.1138916015625
14.0099999,-10.146626472473145,0.44771572947502136,0.8092401623725891,0.42724609375,0.152587890625,3.204345703125
14.0299999,-10.160991668701172,0.47884035110473633,0.8667010068893433,-0.0457763671875,-2.166748046875,2.5482177734375
14.049999900000001,-10.11789608001709,0.5267243981361389,0.9026140570640564,-1.3275146484375,-1.4190673828125,3.662109375
14.069999900000001,-9.95748519897461,0.5770025849342346,0.9097966551780701,-2.62451171875,-0.18310546875,9.552001953125
14.0899999,-9.744400978088379,0.6392518281936646,0.8858546018600464,-3.4332275390625,4.669189453125,17.5018310546875
14.1099999,-9.732429504394531,0.7158663272857666,0.828393816947937,-4.5166015625,14.2822265625,19.9127197265625
14.129999900000001,-9.931148529052734,0.6823474764823914,0.790086567401886,-6.8359375,11.962890625,5.9814453125
14.149999900000001,-10.108319282531738,0.667982280254364,0.7206547260284424,-9.5672607421875,-2.7618408203125,-10.5743408203125
14.1699999,-10.503362655639648,0.5147533416748047,0.6919242739677429,-6.927490234375,0.0762939453125,2.9144287109375
14.1899999,-10.486603736877441,0.43095630407333374,0.629675030708313,-4.0283203125,-2.5482177734375,2.288818359375
14.209999900000001,-10.414777755737305,0.38067805767059326,0.5793967843055725,-0.9613037109375,-2.471923828125,2.471923828125
14.229999900000001,-10.254365921020508,0.40462008118629456,0.4812345504760742,1.251220703125,-4.7149658203125,0.0152587890625
14.2499999,-10.093954086303711,0.4572925269603729,0.3974374830722809,3.509521484375,-8.1787109375,-1.9683837890625
14.2699999,-9.967061996459961,0.4692635238170624,0.395043283700943,4.9591064453125,-10.1318359375,-1.15966796875
14.289999900000002,-9.9000244140625,0.45489832758903503,0.4429273009300232,2.899169921875,-10.1470947265625,0
14.309999900000001,-9.888052940368652,0.38307225704193115,0.5602431893348694,1.52587890625,-9.8724365234375,-0.091552734375
14.3299999,-9.86650562286377,0.272938996553421,0.7158663272857666,3.753662109375,-9.9945068359375,2.471923828125
14.3499999,-9.856928825378418,0.13407529890537262,1.036689281463623,6.04248046875,-7.2479248046875,4.94384765625
14.3699999,-9.885659217834473,0.12210428714752197,1.0845733880996704,8.97216796875,-6.8817138671875,4.791259765625
14.389999900000001,-9.871294021606445,0.23942017555236816,1.2880805730819702,12.2222900390625,-9.246826171875,7.232666015625
14.4099999,-9.84495735168457,0.4357447028160095,1.5059528350830078,-5.06591796875,-3.5858154296875,11.6119384765625
14.4299999,-9.75397777557373,0.8140285611152649,1.647210717201233,-28.7017822265625,5.889892578125,9.82666015625
14.4499999,-9.806650161743164,0.9481038451194763,1.601720929145813,-35.4461669921875,4.8370361328125,5.2490234375
14.469999900000001,-9.813833236694336,0.9768342971801758,1.2425906658172607,-27.03857421875,-4.5623779296875,6.6070556640625
14.4899999,-10.029311180114746,0.6871358752250671,0.6416460275650024,-14.923095703125,-13.5498046875,9.6588134765625
14.5099999,-10.139444351196289,0.35913026332855225,0.10773907601833344,0.5645751953125,-21.7437744140625,2.0294189453125
14.5299999,-10.153809547424316,0.0933738648891449,-0.24660277366638184,22.64404296875,-25.970458984375,-0.67138671875
14.549999900000001,-10.223240852355957,0.11252748221158981,-0.22744916379451752,41.473388671875,-27.801513671875,11.0015869140625
14.569999900000001,-10.031704902648926,0.43095630407333374,0.31603461503982544,32.9437255859375,-36.3922119140625,10.0250244140625
14.5899999,-9.871294021606445,0.7637503147125244,1.0534487962722778,3.662109375,-26.6571044921875,6.4849853515625
14.6099999,-9.674968719482422,1.3072341680526733,2.248155355453491,-12.8631591796875,-8.1329345703125,2.5634765625
14.629999900000001,-9.32302188873291,1.5083470344543457,3.181894063949585,-24.383544921875,3.082275390625,-4.0130615234375
14.649999900000001,-9.255983352661133,1.6903064250946045,3.8331170082092285,-37.9486083984375,31.9671630859375,4.4403076171875
14.6699999,-9.121908187866211,1.6759412288665771,4.067748546600342,-41.351318359375,36.6973876953125,5.523681640625
14.6899999,-9.205705642700195,1.5658079385757446,3.7828385829925537,-49.6978759765625,37.0941162109375,0.3204345703125
14.709999900000001,-9.550470352172852,1.2617442607879639,3.0789434909820557,-47.2259521484375,40.9088134765625,-2.593994140625
14.729999900000001,-9.57201862335205,1.036689281463623,2.1475989818573,-25.5279541015625,35.919189453125,-10.345458984375
14.7499999,-9.93354320526123,0.49559974670410156,1.01753568649292,-8.6669921875,37.750244140625,-5.859375
14.7699999,-10.029311180114746,0.1388636976480484,0.047884032130241394,8.4228515625,25.177001953125,3.387451171875
14.789999900000002,-10.223240852355957,-0.0694318488240242,-0.6607996821403503,14.617919921875,5.2032470703125,6.7138671875
14.809999900000001,-10.366893768310547,-0.24181437492370605,-1.091755986213684,18.24951171875,-1.2969970703125,6.3629150390625
14.8299999,-10.33098030090332,0.05506663769483566,-1.1037269830703735,31.005859375,-10.9100341796875,0.732421875
14.8499999,-10.216058731079102,0.304063618183136,-0.8690952062606812,33.9508056640625,-11.5509033203125,-2.13623046875
14.8699999,-10.120290756225586,0.9050082564353943,-0.31124621629714966,24.8260498046875,-4.180908203125,3.448486328125
14.889999900000001,-9.907206535339355,1.3120225667953491,0.6033388376235962,0.762939453125,-4.2877197265625,1.2359619140625
14.9099999,-9.751583099365234,1.6424223184585571,1.3048399686813354,-31.79931640625,6.16455078125,-4.45556640625
14.9299999,-9.545681953430176,1.6136919260025024,2.070984363555908,-43.6553955078125,14.4500732421875,-2.44140625
14.9499999,-9.368511199951172,1.3503297567367554,2.343923568725586,-41.1834716796875,22.4609375,-4.7760009765625
14.969999900000001,-9.435548782348633,0.8092401623725891,2.185906171798706,-46.3104248046875,31.9366455078125,1.7242431640625
14.9899999,-9.785101890563965,0.33039984107017517,1.889025092124939,-34.3475341796875,28.7322998046875,10.284423828125
15.0099999,-9.897629737854004,0.07422025501728058,1.2617442607879639,-18.9056396484375,23.5595703125,11.474609375
15.0299999,-10.20887565612793,0.004788403399288654,0.33758243918418884,-11.8865966796875,13.1683349609375,7.3699951171875
15.049999900000001,-10.273519515991211,0.272938996553421,-0.44532153010368347,12.6495361328125,-4.8675537109375,-2.899169921875
15.069999900000001,-10.345345497131348,0.5650315880775452,-1.1659762859344482,29.6783447265625,-7.354736328125,-6.7596435546875
15.0899999,-10.462661743164062,0.8212111592292786,-1.6496049165725708,39.55078125,-15.4266357421875,-5.79833984375
15.1099999,-10.366893768310547,1.1037269830703735,-1.5275006294250488,54.7332763671875,-33.8287353515625,-6.744384765625
15.129999900000001,-10.307038307189941,1.0678139925003052,-1.1348515748977661,49.5758056640625,-38.63525390625,-8.2855224609375
15.149999900000001,-10.019734382629395,1.0989385843276978,-0.304063618183136,38.7115478515625,-35.0189208984375,-13.5498046875
15.1699999,-9.90241813659668,0.8188169598579407,0.8403648138046265,24.444580078125,-21.97265625,-9.5672607421875
15.1899999,-9.670180320739746,0.6943184733390808,1.86508309841156,4.913330078125,-2.166748046875,1.5716552734375
15.209999900000001,-9.59596061706543,0.5386953949928284,2.786850690841675,-10.4522705078125,5.4168701171875,8.453369140625
15.229999900000001,-9.576807022094727,0.5770025849342346,3.064578056335449,-23.1781005859375,11.1236572265625,11.04736328125
15.2499999,-9.658209800720215,0.5674257874488831,2.8993782997131348,-23.284912109375,14.495849609375,5.43212890625
15.2699999,-9.734824180603027,0.7637503147125244,2.322375535964966,-17.547607421875,11.8865966796875,-0.0152587890625
15.289999900000002,-9.81143856048584,0.790086567401886,1.5107412338256836,-14.892578125,17.4560546875,3.2806396484375
15.309999900000001,-9.950302124023438,0.9002198576927185,0.7709329724311829,-4.974365234375,15.777587890625,3.936767578125
15.3299999,-10.012551307678223,0.8451532125473022,-0.08858546614646912,15.44189453125,0.06103515625,0.8697509765625
15.3499999,-10.132261276245117,0.8212111592292786,-0.6607996821403503,49.896240234375,-20.01953125,-4.608154296875
15.3699999,-10.144232749938965,0.7398083209991455,-0.9002198576927185,69.061279296875,-27.1148681640625,-10.223388671875
15.389999900000001,-10.062829971313477,0.8379706144332886,-0.5626373887062073,57.0831298828125,-22.4761962890625,-11.41357421875
15.4099999,-9.885659217834473,0.9840168952941895,0.363918662071228,29.1748046875,-10.345458984375,-10.07080078125
15.4299999,-9.696516990661621,1.1180921792984009,1.4915876388549805,0.1373291015625,4.608154296875,-7.8277587890625
15.4499999,-9.548076629638672,1.1635819673538208,2.408566951751709,-19.8974609375,17.3797607421875,-5.523681640625
15.469999900000001,-9.500192642211914,1.0845733880996704,2.8107926845550537,-27.2064208984375,25.5126953125,-4.5928955078125
15.4899999,-9.5624418258667,0.9217676520347595,2.6360161304473877,-24.47509765625,27.099609375,-4.4403076171875
15.5099999,-9.710882186889648,0.6967126727104187,1.9943699836730957,-16.0980224609375,23.25439453125,-4.08935546875
15.5299999,-9.909601211547852,0.47644615173339844,1.1516109704971313,-6.072998046875,17.3187255859375,-3.173828125
15.549999900000001,-10.091560363769531,0.2968810200691223,0.3208230137825012,1.52587890625,10.498046875,-1.8463134765625
15.569999900000001,-10.299856185913086,0.21787235140800476,-0.2561795711517334,5.9967041015625,2.6397705078125,0.457763671875
15.5899999,-10.450690269470215,0.22744916379451752,-0.5363011956214905,8.1329345703125,-1.251220703125,2.8076171875
15.6099999,-10.78587818145752,0.33039984107017517,-0.5219359993934631,10.0860595703125,1.77001953125,2.593994140625
15.629999900000001,-11.006145477294922,0.4572925269603729,-0.3471592366695404,13.1988525390625,-1.6326904296875,-7.5225830078125
15.649999900000001,-11.195286750793457,0.5674257874488831,-0.09576806426048279,17.5018310546875,-4.0740966796875,-14.6484375
15.6699999,-11.17852783203125,0.6248866319656372,0.14365209639072418,21.17919921875,-1.678466796875,-15.4876708984375
15.6899999,-10.903194427490234,0.6009446382522583,0.3711012601852417,22.1405029296875,1.617431640625,-15.0146484375
15.709999900000001,-10.445901870727539,0.5003881454467773,0.5913678407669067,18.035888671875,3.3111572265625,-12.1917724609375
15.729999900000001,-9.916783332824707,0.3495534360408783,0.8092401623725891,10.68115234375,4.0130615234375,-7.5225830078125
15.7499999,-9.437943458557129,0.20111294090747833,1.0199298858642578,3.4027099609375,0.8544921875,-1.6632080078125
15.7699999,-9.074024200439453,0.0933738648891449,1.1971008777618408,-3.0670166015625,-3.41796875,1.03759765625
15.789999900000002,-8.865729331970215,0.040701430290937424,1.3048399686813354,-8.392333984375,-2.7313232421875,-1.5869140625
15.809999900000001,-8.793902397155762,0.0454898327589035,1.3287819623947144,-11.77978515625,-0.3509521484375,-3.7994384765625
15.8299999,-8.796297073364258,0.090979665517807,1.2545616626739502,-13.671875,-1.28173828125,-1.15966796875
15.8499999,-8.863334655761719,0.15562310814857483,1.1013327836990356,-14.3585205078125,-2.6397705078125,3.8909912109375
15.869999900000002,-9.014169692993164,0.2346317619085312,0.9145850539207458,-13.7481689453125,-1.434326171875,6.744384765625
15.889999900000001,-9.263166427612305,0.31842881441116333,0.7445967197418213,-13.031005859375,-3.8604736328125,5.767822265625
15.9099999,-9.560047149658203,0.38307225704193115,0.6320692300796509,-12.6953125,-8.8958740234375,2.685546875
15.9299999,-9.864110946655273,0.4213795065879822,0.5746083855628967,-12.3291015625,-7.75146484375,-0.2593994140625
15.9499999,-10.08198356628418,0.4189853072166443,0.5530605912208557,-10.80322265625,-1.5106201171875,-1.7242431640625
15.969999900000001,-10.182539939880371,0.37828385829925537,0.545877993106842,-8.48388671875,-0.1373291015625,-0.7781982421875
15.9899999,-10.170568466186523,0.3256114423274994,0.5434837937355042,-6.9427490234375,-4.974365234375,1.983642578125
16.0099999,-10.120290756225586,0.28969839215278625,0.5530605912208557,-6.011962890625,-5.0048828125,2.410888671875
16.0299999,-10.038887977600098,0.27054479718208313,0.5793967843055725,-5.2032470703125,-0.4119873046875,-0.457763671875
16.0499999,-9.967061996459961,0.2825157940387726,0.6248866319656372,-5.2032470703125,-1.7242431640625,-1.556396484375
16.0699999,-9.911994934082031,0.31364041566848755,0.6847416758537292,-6.4849853515625,-5.5389404296875,0.54931640625
16.089999900000002,-9.86889934539795,0.3663128614425659,0.7374141216278076,-8.392333984375,-4.6539306640625,1.8463134765625
16.109999900000002,-9.84495735168457,0.4141969084739685,0.7781155705451965,-9.613037109375,-2.5482177734375,1.739501953125
16.1299999,-9.8784761428833,0.4596867263317108,0.8020575642585754,-10.19287109375,-3.692626953125,2.2430419921875
16.1499999,-9.95748519897461,0.48602294921875,0.8092401623725891,-10.80322265625,-4.730224609375,0.7476806640625
16.1699999,-10.043676376342773,0.4812345504760742,0.8092401623725891,-10.986328125,-1.64794921875,-2.960205078125
16.1899999,-10.103530883789062,0.44771572947502136,0.7972691655158997,-10.1165771484375,2.3651123046875,-3.326416015625
16.2099999,-10.129867553710938,0.3998316824436188,0.7757213711738586,-8.23974609375,0.8087158203125,0.0457763671875
16.2299999,-10.108319282531738,0.3495534360408783,0.7541735172271729,-5.645751953125,-4.2724609375,0.1983642578125
16.249999900000002,-10.050858497619629,0.31842881441116333,0.7469909191131592,-3.0670166015625,-4.974365234375,-2.62451171875
16.269999900000002,-9.974244117736816,0.31603461503982544,0.768538773059845,-2.0751953125,-3.60107421875,-1.251220703125
16.2899999,-9.86889934539795,0.35434186458587646,0.828393816947937,-2.86865234375,-4.8370361328125,3.3721923828125
16.3099999,-9.746794700622559,0.4213795065879822,0.9145850539207458,-4.486083984375,-2.8839111328125,6.5155029296875
16.3299999,-9.646238327026367,0.5171475410461426,1.0031704902648926,-6.7138671875,2.38037109375,8.7890625
16.3499999,-9.794678688049316,0.646434485912323,1.0654197931289673,-9.5367431640625,3.90625,10.6353759765625
16.3699999,-9.931148529052734,0.790086567401886,1.0247182846069336,-11.3372802734375,10.1318359375,5.7525634765625
16.3899999,-10.137049674987793,0.912190854549408,0.8930372595787048,-11.71875,7.0037841796875,13.2598876953125
16.4099999,-10.254365921020508,1.0271124839782715,0.706289529800415,-10.284423828125,2.349853515625,9.94873046875
16.429999900000002,-10.213664054870605,1.0319008827209473,0.5099649429321289,-6.6375732421875,0.1678466796875,3.082275390625
16.4499999,-9.955090522766113,0.9169792532920837,0.3878606855869293,-1.4190673828125,-2.532958984375,2.532958984375
16.4699999,-10.012551307678223,0.7876923680305481,0.3926490843296051,2.4261474609375,-5.37109375,5.1422119140625
16.4899999,-9.909601211547852,0.569819986820221,0.44771572947502136,2.6092529296875,-6.6986083984375,2.9144287109375
16.5099999,-9.983820915222168,0.47644615173339844,0.6177040338516235,1.9378662109375,-6.3018798828125,7.7362060546875
16.5299999,-10.038887977600098,0.4429273009300232,0.7948749661445618,2.5482177734375,-6.16455078125,6.866455078125
16.5499999,-9.986215591430664,0.4812345504760742,0.9672574996948242,4.5928955078125,-5.9967041015625,5.096435546875
16.5699999,-9.909601211547852,0.608127236366272,1.1492167711257935,6.7138671875,-4.3487548828125,5.5389404296875
16.589999900000002,-9.84256362915039,0.7876923680305481,1.3646949529647827,4.8370361328125,-1.4801025390625,3.5247802734375
16.609999900000002,-9.775525093078613,0.9648633003234863,1.558625340461731,-2.62451171875,3.90625,0.5645751953125
16.6299999,-9.732429504394531,1.0989385843276978,1.6519991159439087,-9.6588134765625,8.7127685546875,-1.007080078125
16.6499999,-9.734824180603027,1.139639973640442,1.6041151285171509,-11.3677978515625,9.368896484375,-1.129150390625
16.6699999,-9.77791976928711,1.115697979927063,1.3934253454208374,-10.55908203125,8.056640625,-0.9307861328125
16.6899999,-9.864110946655273,1.0342950820922852,1.0869675874710083,-9.27734375,6.89697265625,-2.4871826171875
16.7099999,-9.962273597717285,0.9097966551780701,0.7781155705451965,-5.3558349609375,4.058837890625,-4.2724609375
16.7299999,-10.02452278137207,0.7422025203704834,0.524330198764801,0.5645751953125,-0.213623046875,-3.3721923828125
16.749999900000002,-10.06043529510498,0.5674257874488831,0.36152446269989014,5.1116943359375,-3.753662109375,-1.5716552734375
16.769999900000002,-10.065223693847656,0.40462008118629456,0.2801215946674347,7.0343017578125,-5.859375,-0.4425048828125
16.7899999,-10.055646896362305,0.31842881441116333,0.2944868206977844,9.765625,-8.5296630859375,0.4425048828125
16.8099999,-10.036493301391602,0.3208230137825012,0.4141969084739685,13.8397216796875,-11.77978515625,1.5106201171875
16.8299999,-9.995792388916016,0.3878606855869293,0.5841852426528931,14.251708984375,-12.4969482421875,2.2430419921875
16.8499999,-9.943120002746582,0.5123591423034668,0.8068459630012512,11.04736328125,-10.68115234375,2.3040771484375
16.8699999,-9.885659217834473,0.6512228846549988,1.039083480834961,8.1787109375,-9.33837890625,2.4871826171875
16.8899999,-9.804255485534668,0.7996633648872375,1.3048399686813354,5.37109375,-8.4228515625,2.838134765625
16.9099999,-9.768342971801758,0.9385270476341248,1.501164436340332,-2.8076171875,-4.8370361328125,2.8076171875
16.929999900000002,-9.734824180603027,1.05105459690094,1.6352397203445435,-11.932373046875,-0.0152587890625,0.48828125
16.9499999,-9.751583099365234,1.1013327836990356,1.6424223184585571,-12.054443359375,0.48828125,-1.129150390625
16.9699999,-9.801861763000488,1.0271124839782715,1.5179238319396973,-4.08935546875,-1.1138916015625,-1.2969970703125
16.9899999,-9.873687744140625,0.8643068075180054,1.316810965538025,5.3863525390625,-3.7994384765625,-0.8392333984375
17.0099999,-9.919178009033203,0.629675030708313,1.1085153818130493,12.5274658203125,-5.5389404296875,-0.640869140625
17.0299999,-9.95748519897461,0.48602294921875,1.0295066833496094,16.143798828125,-7.0343017578125,0.4119873046875
17.0499999,-9.928754806518555,0.45250412821769714,1.070208191871643,13.824462890625,-6.4544677734375,1.5716552734375
17.0699999,-9.888052940368652,0.5386953949928284,1.2210428714752197,5.8441162109375,-3.0670166015625,1.3580322265625
17.089999900000002,-9.823410034179688,0.7230489253997803,1.4748282432556152,-1.312255859375,0.4730224609375,0.9002685546875
17.109999900000002,-9.763554573059082,0.9241618514060974,1.6639702320098877,-6.0272216796875,4.1656494140625,0.3814697265625
17.1299999,-9.737217903137207,1.1109095811843872,1.7932571172714233,-10.3912353515625,7.7667236328125,-0.823974609375
17.1499999,-9.732429504394531,1.2066776752471924,1.7549498081207275,-12.3443603515625,9.5977783203125,-3.0975341796875
17.1699999,-9.751583099365234,1.161187767982483,1.6136919260025024,-9.6893310546875,9.796142578125,-4.2572021484375
17.1899999,-9.804255485534668,1.0103530883789062,1.4053963422775269,-4.669189453125,8.0108642578125,-3.7689208984375
17.2099999,-9.856928825378418,0.8092401623725891,1.1827356815338135,0.579833984375,6.5155029296875,-3.35693359375
17.2299999,-9.921571731567383,0.646434485912323,0.9911994934082031,4.57763671875,4.57763671875,-4.058837890625
17.249999900000002,-9.95748519897461,0.524330198764801,0.8858546018600464,7.0648193359375,3.1280517578125,-3.7384033203125
17.269999900000002,-9.964667320251465,0.48602294921875,0.8379706144332886,7.0648193359375,2.7313232421875,-2.410888671875
17.2899999,-9.947908401489258,0.4836287498474121,0.8571242094039917,5.18798828125,2.13623046875,-1.708984375
17.3099999,-9.93354320526123,0.507570743560791,0.9361328482627869,1.5716552734375,2.7313232421875,-1.3885498046875
17.3299999,-9.895236015319824,0.5722141861915588,0.9840168952941895,-3.326416015625,3.5247802734375,-0.2899169921875
17.3499999,-9.885659217834473,0.6440402865409851,1.0031704902648926,-6.011962890625,2.99072265625,0.9765625
17.3699999,-9.885659217834473,0.6823474764823914,0.9457096457481384,-3.8909912109375,1.4801025390625,1.0833740234375
17.3899999,-9.8784761428833,0.7015010714530945,0.871489405632019,-0.3509521484375,-0.030517578125,1.3885498046875
17.409999900000003,-9.907206535339355,0.7038952708244324,0.7996633648872375,1.7547607421875,-2.105712890625,1.953125
17.429999900000002,-9.93593692779541,0.6943184733390808,0.8044517636299133,3.204345703125,-4.0283203125,2.166748046875
17.4499999,-9.93593692779541,0.6967126727104187,0.8667010068893433,3.753662109375,-4.5318603515625,2.3040771484375
17.4699999,-9.904812812805176,0.727837324142456,1.0630255937576294,-0.762939453125,-3.60107421875,2.8076171875
17.4899999,-9.856928825378418,0.7972691655158997,1.3335703611373901,-10.986328125,1.556396484375,3.2806396484375
17.5099999,-9.768342971801758,0.8906430602073669,1.6400281190872192,-21.4691162109375,7.8887939453125,3.936767578125
17.5299999,-9.72285270690918,0.9959878921508789,1.8411411046981812,-27.9693603515625,11.199951171875,3.9215087890625
17.5499999,-9.720458984375,1.0127472877502441,1.886630892753601,-26.6265869140625,14.70947265625,1.739501953125
17.5699999,-9.763554573059082,0.9624691009521484,1.721431016921997,-19.6990966796875,14.5721435546875,1.28173828125
17.589999900000002,-9.852140426635742,0.8882488012313843,1.3910311460494995,-11.29150390625,12.542724609375,-0.0152587890625
17.609999900000002,-9.911994934082031,0.730231523513794,0.9792284965515137,-1.8463134765625,8.5601806640625,-1.5869140625
17.6299999,-9.988609313964844,0.6727706789970398,0.5770025849342346,7.476806640625,3.9215087890625,-2.62451171875
17.6499999,-9.998186111450195,0.6177040338516235,0.28969839215278625,12.3748779296875,-0.8544921875,-3.84521484375
17.6699999,-10.02691650390625,0.6177040338516235,0.19153612852096558,11.4898681640625,-4.3182373046875,-4.5928955078125
17.6899999,-10.031704902648926,0.6703764796257019,0.3423708379268646,6.8359375,-4.8675537109375,-3.997802734375
17.7099999,-9.981427192687988,0.6847416758537292,0.6560112833976746,-3.8604736328125,-1.03759765625,-2.86865234375
17.7299999,-9.943120002746582,0.730231523513794,1.0223240852355957,-13.336181640625,6.6070556640625,-2.01416015625
17.749999900000002,-9.871294021606445,0.6703764796257019,1.2737152576446533,-11.9781494140625,6.7901611328125,-0.823974609375
17.769999900000002,-9.797073364257812,0.6033388376235962,1.37906014919281,-9.1400146484375,5.8135986328125,0.030517578125
17.7899999,-9.823410034179688,0.5195417404174805,1.237802267074585,-7.4310302734375,8.7890625,2.5177001953125
17.8099999,-9.830592155456543,0.47405192255973816,0.9385270476341248,-1.251220703125,5.6304931640625,4.33349609375
17.8299999,-9.940725326538086,0.45250412821769714,0.4596867263317108,10.4827880859375,-2.105712890625,3.72314453125
17.8499999,-10.038887977600098,0.5027823448181152,0.0454898327589035,24.627685546875,-12.3443603515625,3.5247802734375
17.8699999,-10.091560363769531,0.6129156351089478,-0.08858546614646912,31.768798828125,-20.32470703125,1.739501953125
17.8899999,-10.046070098876953,0.8475474119186401,0.13168109953403473,17.059326171875,-17.6849365234375,1.6326904296875
17.909999900000003,-9.928754806518555,1.0534487962722778,0.7589619159698486,-11.474609375,-3.9520263671875,1.6326904296875
17.929999900000002,-9.763554573059082,1.2545616626739502,1.5179238319396973,-31.6619873046875,4.547119140625,1.9683837890625
17.9499999,-9.624691009521484,1.290474772453308,2.205059766769409,-42.694091796875,12.725830078125,4.1656494140625
17.9699999,-9.569623947143555,1.1516109704971313,2.4875755310058594,-47.0123291015625,19.5770263671875,5.0048828125
17.9899999,-9.579200744628906,0.8858546018600464,2.408566951751709,-41.0614013671875,22.674560546875,5.340576171875
18.0099999,-9.727641105651855,0.5937620401382446,1.9033904075622559,-24.3988037109375,19.4244384765625,6.4239501953125
18.0299999,-9.830592155456543,0.35913026332855225,1.1971008777618408,-2.74658203125,11.2762451171875,5.5389404296875
18.0499999,-10.02691650390625,0.2322375625371933,0.4668693244457245,11.8560791015625,4.08935546875,5.3863525390625
18.0699999,-10.096348762512207,0.24660277366638184,-0.08619125932455063,21.6522216796875,-2.349853515625,5.5694580078125
18.089999900000002,-10.125079154968262,0.7924807667732239,-0.17956513166427612,19.622802734375,-7.99560546875,-0.7781982421875
18.109999900000002,-9.964667320251465,1.1899182796478271,0.26815059781074524,3.5400390625,-3.4332275390625,-0.6866455078125
18.1299999,-9.859322547912598,1.4772224426269531,0.8571242094039917,-16.4337158203125,8.6517333984375,-1.4190673828125
18.1499999,-9.6989107131958,1.599326729774475,1.3192051649093628,-28.6407470703125,15.31982421875,-2.105712890625
18.1699999,-9.701305389404297,1.5083470344543457,1.4460978507995605,-25.6500244140625,17.0745849609375,-1.6021728515625
18.1899999,-9.775525093078613,1.2234370708465576,1.213860273361206,-7.8887939453125,9.246826171875,-2.960205078125
18.2099999,-9.923966407775879,0.7876923680305481,0.5841852426528931,14.5721435546875,-1.434326171875,-3.9825439453125
18.2299999,-10.08198356628418,0.4118026793003082,-0.033518824726343155,36.8499755859375,-12.9241943359375,-3.0364990234375
18.249999900000002,-10.14902114868164,0.19632454216480255,-0.43095630407333374,47.8973388671875,-23.1781005859375,-1.2664794921875
18.269999900000002,-10.170568466186523,0.19871874153614044,-0.3423708379268646,38.2232666015625,-22.308349609375,1.861572265625
18.2899999,-10.02452278137207,0.5195417404174805,0.24660277366638184,13.48876953125,-15.3656005859375,0.5340576171875
18.3099999,-9.880870819091797,0.9145850539207458,1.0797849893569946,-13.397216796875,-4.82177734375,4.82177734375
18.3299999,-9.658209800720215,1.2641384601593018,2.0254945755004883,-33.8592529296875,7.1563720703125,5.9356689453125
18.3499999,-9.526528358459473,1.50355863571167,2.63362193107605,-49.2706298828125,17.88330078125,4.82177734375
18.3699999,-9.497797966003418,1.5059528350830078,2.832340717315674,-56.9305419921875,28.50341796875,4.9896240234375
18.3899999,-9.569623947143555,1.3287819623947144,2.43011474609375,-46.2799072265625,29.1595458984375,4.82177734375
18.409999900000003,-9.725247383117676,1.0462661981582642,1.5825673341751099,-22.125244140625,20.263671875,3.35693359375
18.429999900000002,-9.995792388916016,0.6991068720817566,0.47165772318840027,4.6844482421875,7.6446533203125,2.227783203125
18.4499999,-10.113107681274414,0.4357447028160095,-0.5099649429321289,28.961181640625,-8.087158203125,-0.5035400390625
18.4699999,-10.299856185913086,0.3495534360408783,-1.0079588890075684,41.7633056640625,-15.869140625,-4.7454833984375
18.4899999,-10.251971244812012,0.42856210470199585,-0.993593692779541,31.9366455078125,-14.8773193359375,-3.082275390625
18.5099999,-10.132261276245117,0.730231523513794,-0.35434186458587646,10.92529296875,-11.9171142578125,0.6103515625
18.5299999,-9.93593692779541,1.0893617868423462,0.5506663918495178,-10.1318359375,-2.7618408203125,1.251220703125
18.5499999,-9.72285270690918,1.3431471586227417,1.3742717504501343,-27.2216796875,9.2315673828125,0.67138671875
18.5699999,-9.627084732055664,1.41257905960083,1.7381904125213623,-27.923583984375,14.678955078125,0.7171630859375
18.589999900000002,-9.677363395690918,1.3551181554794312,1.6903064250946045,-8.941650390625,10.0555419921875,0.9765625
18.609999900000002,-9.78989028930664,1.137245774269104,1.1180921792984009,8.5906982421875,0.6103515625,-0.6256103515625
18.6299999,-10.007762908935547,0.8738836050033569,0.5051765441894531,17.913818359375,-7.2479248046875,-3.4942626953125
18.6499999,-10.103530883789062,0.7398083209991455,0.08379705995321274,25.9246826171875,-11.65771484375,-5.157470703125
18.6699999,-10.139444351196289,0.6536170840263367,-0.031124621629714966,20.4925537109375,-13.73291015625,-1.6632080078125
18.6899999,-10.065223693847656,0.6823474764823914,0.2537853717803955,6.16455078125,-12.7105712890625,2.3345947265625
18.7099999,-9.945513725280762,0.7469909191131592,0.7230489253997803,-10.1165771484375,-6.3018798828125,2.899169921875
18.7299999,-9.799467086791992,0.7757213711738586,1.1252747774124146,-16.9525146484375,-0.274658203125,3.8299560546875
18.749999900000002,-9.787496566772461,0.7661445140838623,1.3431471586227417,-6.5155029296875,0.91552734375,6.6680908203125
18.769999900000002,-9.792284965515137,0.7493851184844971,1.2952631711959839,8.9569091796875,-4.425048828125,4.6844482421875
18.7899999,-9.837775230407715,0.8690952062606812,1.115697979927063,15.289306640625,-7.6141357421875,-2.227783203125
18.8099999,-9.861717224121094,1.0438719987869263,1.0869675874710083,11.2152099609375,-4.08935546875,-1.922607421875
18.8299999,-9.799467086791992,1.2545616626739502,1.0773907899856567,-3.265380859375,3.814697265625,-1.190185546875
18.8499999,-9.758766174316406,1.359906554222107,1.256955862045288,-18.524169921875,9.124755859375,-1.1749267578125
18.8699999,-9.732429504394531,1.3215993642807007,1.235408067703247,-20.8892822265625,11.016845703125,-0.091552734375
18.8899999,-9.818621635437012,1.1540051698684692,1.113303780555725,-8.5296630859375,6.2103271484375,0.518798828125
18.909999900000003,-9.95748519897461,0.9600749015808105,0.8427590131759644,6.8817138671875,-0.152587890625,1.6937255859375
18.929999900000002,-10.019734382629395,0.849941611289978,0.5363011956214905,17.547607421875,-7.5836181640625,0.457763671875
18.9499999,-10.070012092590332,0.8307880163192749,0.5051765441894531,18.585205078125,-8.514404296875,-0.8697509765625
18.9699999,-10.000580787658691,0.9409212470054626,0.5626373887062073,7.01904296875,-2.9754638671875,-0.4425048828125
18.9899999,-9.921571731567383,1.05105459690094,0.8667010068893433,-4.0130615234375,-0.30517578125,-1.9683837890625
19.0099999,-9.825803756713867,1.1348515748977661,1.1109095811843872,-6.9427490234375,0.1373291015625,-4.5928955078125
19.0299999,-9.78989028930664,1.0989385843276978,1.2689268589019775,-3.9825439453125,1.7547607421875,-4.486083984375
19.0499999,-9.749189376831055,0.9744400978088379,1.278503656387329,1.64794921875,0.0152587890625,-1.8157958984375
19.0699999,-9.801861763000488,0.8259995579719543,1.1755530834197998,5.462646484375,-1.0986328125,-0.8544921875
19.089999900000002,-9.828198432922363,0.727837324142456,1.015141487121582,6.622314453125,0.54931640625,-0.3509521484375
19.109999900000002,-9.873687744140625,0.7661445140838623,0.950498104095459,1.2054443359375,4.180908203125,-0.06103515625
19.1299999,-9.86650562286377,0.912190854549408,0.8834604024887085,-7.01904296875,7.62939453125,-0.6103515625
19.1499999,-9.8784761428833,1.0031704902648926,0.8619126081466675,-8.3770751953125,5.9356689453125,-0.9002685546875
19.1699999,-9.911994934082031,1.113303780555725,0.8595184087753296,-2.593994140625,3.0517578125,-0.396728515625
19.1899999,-9.967061996459961,1.0582371950149536,0.6967126727104187,2.1209716796875,-1.15966796875,-0.9002685546875
19.2099999,-10.029311180114746,1.0055646896362305,0.6512228846549988,10.43701171875,-6.9122314453125,-1.373291015625
19.2299999,-10.002974510192871,0.9361328482627869,0.6153098344802856,13.671875,-9.124755859375,0.701904296875
19.249999900000002,-9.96945571899414,0.912190854549408,0.7589619159698486,3.936767578125,-3.90625,0.5950927734375
19.269999900000002,-9.938331604003906,0.8643068075180054,0.9193734526634216,-4.791259765625,-0.0457763671875,-1.2969970703125
19.2899999,-9.890447616577148,0.8786720037460327,1.1516109704971313,-4.119873046875,-0.5645751953125,-1.6326904296875
19.3099999,-9.859322547912598,0.8212111592292786,1.2473790645599365,-1.4190673828125,-1.52587890625,0.213623046875
19.3299999,-9.892841339111328,0.8212111592292786,1.3766659498214722,-4.0283203125,-0.0152587890625,-1.2054443359375
19.3499999,-9.852140426635742,0.8355764150619507,1.403002142906189,-6.1187744140625,4.1046142578125,-0.701904296875
19.3699999,-9.825803756713867,0.9074024558067322,1.4173674583435059,-6.4697265625,5.79833984375,0.3204345703125
19.3899999,-9.797073364257812,0.9888052940368652,1.335964560508728,-9.429931640625,10.1470947265625,-1.007080078125
19.409999900000003,-9.770736694335938,1.0630255937576294,1.158793568611145,-12.4664306640625,13.885498046875,-0.6561279296875
19.429999900000002,-9.797073364257812,1.139639973640442,0.9648633003234863,-10.650634765625,11.962890625,-1.28173828125
19.4499999,-9.825803756713867,1.139639973640442,0.7254431247711182,-8.48388671875,7.0953369140625,-1.5106201171875
19.4699999,-9.955090522766113,1.1540051698684692,0.4357447028160095,-3.0670166015625,1.4495849609375,-4.8370361328125
19.4899999,-9.995792388916016,1.1085153818130493,0.272938996553421,11.3525390625,-5.9661865234375,-6.0272216796875
19.5099999,-10.046070098876953,1.0271124839782715,0.23942017555236816,17.578125,-8.544921875,-7.2174072265625
19.5299999,-10.04846477508545,0.8978256583213806,0.3447650372982025,13.519287109375,-6.1798095703125,-8.392333984375
19.5499999,-9.962273597717285,0.7134721279144287,0.5961562395095825,11.810302734375,-5.7220458984375,-7.781982421875
19.5699999,-9.921571731567383,0.569819986820221,0.9481038451194763,10.101318359375,-4.1351318359375,-2.86865234375
19.589999900000002,-9.864110946655273,0.43335050344467163,1.216254472732544,-0.30517578125,-0.3509521484375,-0.4119873046875
19.609999900000002,-9.84495735168457,0.40940847992897034,1.3958195447921753,-9.9334716796875,3.1585693359375,0.4730224609375
19.6299999,-9.794678688049316,0.5506663918495178,1.5107412338256836,-11.0321044921875,5.8135986328125,2.2430419921875
19.6499999,-9.80904483795166,0.6727706789970398,1.3551181554794312,-11.810302734375,7.3699951171875,1.312255859375
19.6699999,-9.732429504394531,0.8595184087753296,1.1252747774124146,-12.51220703125,10.345458984375,0.5035400390625
19.6899999,-9.859322547912598,0.9576807022094727,0.8044517636299133,-9.3841552734375,7.6446533203125,2.349853515625
19.7099999,-9.919178009033203,1.0079588890075684,0.608127236366272,-7.26318359375,1.1444091796875,1.46484375
19.7299999,-9.99339771270752,0.9959878921508789,0.3519476354122162,-7.904052734375,-2.410888671875,-0.0152587890625
19.749999900000002,-10.105925559997559,0.9026140570640564,0.31603461503982544,-2.899169921875,-6.4849853515625,1.52587890625
19.769999900000002,-10.062829971313477,0.7829039692878723,0.3471592366695404,3.7384033203125,-10.1318359375,3.1585693359375
19.7899999,-10.007762908935547,0.5626373887062073,0.3758896589279175,11.3525390625,-10.772705078125,1.2664794921875
19.8099999,-9.99339771270752,0.49559974670410156,0.5817909836769104,22.0794677734375,-12.237548828125,1.068115234375
19.8299999,-9.837775230407715,0.5267243981361389,0.8068459630012512,20.99609375,-11.1236572265625,1.495361328125
19.8499999,-9.825803756713867,0.7015010714530945,1.1420341730117798,8.1787109375,-7.9498291015625,-1.007080078125
19.8699999,-9.770736694335938,0.9720458984375,1.4963760375976562,-5.401611328125,-0.152587890625,-1.6021728515625
19.8899999,-9.706093788146973,1.1563993692398071,1.7549498081207275,-15.7470703125,6.866455078125,-0.9002685546875
19.909999900000003,-9.66539192199707,1.314416766166687,1.8267759084701538,-19.8974609375,13.7481689453125,-2.4261474609375
19.929999900000002,-9.701305389404297,1.3096283674240112,1.7525556087493896,-18.890380859375,16.357421875,-0.4119873046875
19.9499999,-9.713275909423828,1.259350061416626,1.6112977266311646,-22.613525390625,16.448974609375,0.30517578125
19.9699999,-9.8784761428833,1.070208191871643,1.2856862545013428,-26.6876220703125,16.4031982421875,-0.5645751953125
19.9899999,-9.976638793945312,0.8379706144332886,0.9433154463768005,-15.6097412109375,10.3302001953125,0.30517578125
20.0099999,-10.010157585144043,0.5506663918495178,0.5099649429321289,3.5858154296875,-0.2288818359375,0.8544921875
20.0299999,-10.062829971313477,0.33518823981285095,0.07422025501728058,16.1895751953125,-5.1116943359375,-0.1373291015625
20.0499999,-10.074800491333008,0.29209262132644653,0.002394201699644327,23.651123046875,-7.8125,2.6092529296875
20.0699999,-9.979032516479492,0.5123591423034668,0.30885201692581177,11.4898681640625,-8.1787109375,2.9754638671875
20.089999900000002,-9.864110946655273,0.9026140570640564,0.9840168952941895,-29.022216796875,6.77490234375,0.7171630859375
20.109999900000002,-9.6989107131958,1.3215993642807007,1.7046716213226318,-64.4378662109375,23.529052734375,1.5869140625
20.1299999,-9.473855972290039,1.778891921043396,2.4660277366638184,-86.181640625,37.353515625,3.1280517578125
