# Time (seconds),Accel_X,Accel_Y,Accel_Z,Gyro_X,Gyro_Y,Gyro_Z
0.0099999,-9.9000244140625,0.21787235140800476,1.1348515748977661,14.5721435546875,-16.265869140625,0.18310546875
0.029999900000000003,-9.852140426635742,0.17717093229293823,1.3335703611373901,13.18359375,-14.5721435546875,0.1678466796875
0.0499999,-9.830592155456543,0.2298433631658554,1.534683346748352,10.6353759765625,-13.8397216796875,1.007080078125
0.0699999,-9.799467086791992,0.4213795065879822,1.7932571172714233,2.2430419921875,-10.0555419921875,2.6702880859375
0.08999990000000001,-9.751583099365234,0.6847416758537292,2.075772762298584,-13.7176513671875,-0.48828125,2.0751953125
0.10999990000000001,-9.670180320739746,0.9528923034667969,2.3247697353363037,-28.5491943359375,9.9945068359375,-1.0833740234375
0.1299999,-9.600749015808105,1.113303780555725,2.4133553504943848,-35.797119140625,15.289306640625,-3.4027099609375
0.14999990000000002,-9.619902610778809,1.0749965906143188,2.233790159225464,-35.2020263671875,15.1519775390625,-4.0130615234375
0.1699999,-9.742006301879883,0.8044517636299133,1.7525556087493896,-27.435302734375,11.138916015625,-3.47900390625
0.1899999,-9.931148529052734,0.395043283700943,1.094150185585022,-12.63427734375,1.8463134765625,-2.044677734375
0.20999990000000002,-10.120290756225586,-0.014365210197865963,0.47884035110473633,6.40869140625,-11.41357421875,0.3509521484375
0.2299999,-10.249577522277832,-0.33039984107017517,0.07182604819536209,21.1181640625,-21.7742919921875,2.960205078125
0.2499999,-10.278307914733887,-0.4812345504760742,-0.033518824726343155,27.2979736328125,-26.2603759765625,5.6610107421875
0.2699999,-10.211270332336426,-0.43095630407333374,0.20350714027881622,28.1829833984375,-28.411865234375,8.1634521484375
0.28999990000000003,-10.065223693847656,-0.21547815203666687,0.6512228846549988,24.7802734375,-29.23583984375,10.345458984375
0.3099999,-9.897629737854004,0.0933738648891449,1.1659762859344482,18.2647705078125,-27.1759033203125,11.04736328125
0.3299999,-9.751583099365234,0.42616790533065796,1.6903064250946045,12.9241943359375,-23.834228515625,10.7574462890625
0.34999990000000003,-9.627084732055664,0.7493851184844971,2.2170307636260986,7.4615478515625,-19.195556640625,10.498046875
0.3699999,-9.512163162231445,1.0630255937576294,2.7006595134735107,-2.6092529296875,-10.5133056640625,9.33837890625
0.3899999,-9.430760383605957,1.292868971824646,3.050212860107422,-12.0086669921875,-0.2288818359375,5.5694580078125
0.40999990000000003,-9.378087997436523,1.4532804489135742,3.2393548488616943,-14.4195556640625,7.1258544921875,-0.06103515625
0.4299999,-9.394847869873047,1.460463047027588,3.222595453262329,-12.8173828125,11.1083984375,-2.6702880859375
0.4499999,-9.476250648498535,1.292868971824646,3.00711727142334,-12.0391845703125,13.9923095703125,-1.861572265625
0.4699999,-9.588777542114258,0.993593692779541,2.6815059185028076,-10.92529296875,15.777587890625,-0.0457763671875
0.4899999,-9.708487510681152,0.6224924325942993,2.27209734916687,-6.9732666015625,15.2435302734375,1.922607421875
0.5099999,-9.787496566772461,0.37828385829925537,1.9057846069335938,-0.54931640625,12.63427734375,3.387451171875
0.5299999,-9.84495735168457,0.2801215946674347,1.6065093278884888,4.6844482421875,10.25390625,2.8533935546875
0.5499999,-9.871294021606445,0.3447650372982025,1.4772224426269531,6.89697265625,9.2926025390625,0.701904296875
0.5699999,-9.854534149169922,0.5171475410461426,1.4628572463989258,1.89208984375,11.077880859375,0.518798828125
0.5899998999999999,-9.799467086791992,0.7422025203704834,1.5897499322891235,-6.195068359375,14.8162841796875,1.03759765625
0.6099998999999999,-9.734824180603027,0.9385270476341248,1.623268723487854,-12.725830078125,17.1966552734375,1.0223388671875
0.6299999,-9.66299819946289,0.9672574996948242,1.6496049165725708,-17.333984375,17.5018310546875,-0.5950927734375
0.6499999,-9.734824180603027,0.8906430602073669,1.4101848602294922,-9.27734375,13.9007568359375,2.4261474609375
0.6699999,-9.78989028930664,0.7134721279144287,1.2401964664459229,4.57763671875,-1.3885498046875,4.3487548828125
0.6899999,-9.8784761428833,0.4596867263317108,1.0558429956436157,12.2222900390625,-3.7841796875,-0.946044921875
0.7099999,-9.931148529052734,0.33279404044151306,0.9241618514060974,16.448974609375,0.0152587890625,-2.13623046875
0.7299998999999999,-9.892841339111328,0.38067805767059326,1.0031704902648926,18.1884765625,-1.190185546875,0.030517578125
0.7499998999999999,-9.873687744140625,0.6607996821403503,1.3479355573654175,7.598876953125,3.875732421875,4.150390625
0.7699999,-9.787496566772461,1.0127472877502441,1.6855180263519287,-13.61083984375,11.5966796875,0.9918212890625
0.7899999,-9.75637149810791,1.4197616577148438,2.0159177780151367,-25.1922607421875,19.5465087890625,-3.1585693359375
0.8099999,-9.749189376831055,1.5705963373184204,1.9823989868164062,-22.4456787109375,11.810302734375,-6.195068359375
0.8299999,-9.701305389404297,1.4437036514282227,1.644816517829895,-9.918212890625,4.425048828125,-18.768310546875
0.8499998999999999,-9.835380554199219,1.1180921792984009,1.1659762859344482,4.7149658203125,5.523681640625,-19.6075439453125
0.8699998999999999,-9.938331604003906,0.6631938815116882,0.7254431247711182,13.458251953125,-1.068115234375,-10.3607177734375
0.8899999,-10.089165687561035,0.2968810200691223,0.507570743560791,15.960693359375,-9.552001953125,-6.89697265625
0.9099999,-10.230423927307129,0.06464344263076782,0.4668693244457245,16.2353515625,-10.711669921875,-3.662109375
0.9299999,-10.204087257385254,-0.07422025501728058,0.6775590777397156,14.129638671875,-26.5960693359375,-1.0986328125
0.9499999,-9.959878921508789,0.06224924325942993,0.9983820915222168,13.48876953125,-23.37646484375,-5.2337646484375
0.9699998999999999,-9.797073364257812,0.304063618183136,1.4197616577148438,5.0201416015625,-13.1072998046875,-2.3651123046875
0.9899998999999999,-9.655815124511719,0.5746083855628967,1.8483237028121948,-11.1846923828125,-6.011962890625,0.640869140625
1.0099999,-9.607931137084961,0.9074024558067322,2.1332337856292725,-20.965576171875,-3.9520263671875,0.9307861328125
1.0299999,-9.696516990661621,1.0247182846069336,2.346317768096924,-19.34814453125,-4.7760009765625,2.655029296875
1.0499999,-9.732429504394531,1.0127472877502441,2.31758713722229,-16.7083740234375,-6.5765380859375,-1.5411376953125
1.0699999,-9.653421401977539,0.8595184087753296,2.1978771686553955,-14.83154296875,-3.662109375,-9.307861328125
1.0899999,-9.653421401977539,0.6105214357376099,2.078166961669922,-10.4522705078125,1.1138916015625,-7.8277587890625
1.1099999,-9.655815124511719,0.38307225704193115,1.920149803161621,-7.965087890625,1.5411376953125,-4.0435791015625
1.1299999,-9.737217903137207,0.2082955539226532,1.7381904125213623,-7.1258544921875,3.173828125,-2.5634765625
1.1499999,-9.856928825378418,0.16998831927776337,1.5634137392044067,-1.5411376953125,-3.204345703125,-1.7242431640625
1.1699998999999999,-9.95748519897461,0.15322890877723694,1.4221558570861816,8.941650390625,-13.031005859375,-1.220703125
1.1899998999999999,-9.988609313964844,0.19393034279346466,1.3503297567367554,16.90673828125,-18.12744140625,-4.730224609375
1.2099999,-9.847352027893066,0.24420857429504395,1.5059528350830078,14.984130859375,-13.4124755859375,-11.1846923828125
1.2299999,-9.813833236694336,0.31124621629714966,1.8483237028121948,4.058837890625,-2.838134765625,-5.4473876953125
1.2499999,-9.658209800720215,0.395043283700943,2.2433669567108154,-9.674072265625,7.62939453125,-1.129150390625
1.2699999,-9.646238327026367,0.4812345504760742,2.537853717803955,-17.2882080078125,12.939453125,1.4801025390625
1.2899999,-9.691728591918945,0.5674257874488831,2.52109432220459,-15.869140625,8.1939697265625,0.213623046875
1.3099999,-9.782708168029785,0.5482721924781799,2.2194249629974365,-4.9591064453125,-0.30517578125,-1.739501953125
1.3299999,-9.799467086791992,0.42856210470199585,1.8626888990402222,5.401611328125,-4.913330078125,-7.8277587890625
1.3499999,-9.749189376831055,0.26096799969673157,1.5705963373184204,9.21630859375,-2.0599365234375,-11.077880859375
1.3699999,-9.780313491821289,0.07661445438861847,1.4245500564575195,6.8817138671875,-1.5106201171875,-4.302978515625
1.3899999,-9.792284965515137,-0.026336219161748886,1.482010841369629,0.9307861328125,1.5106201171875,-0.518798828125
1.4099999,-9.8784761428833,-0.0071826050989329815,1.482010841369629,1.861572265625,-3.0975341796875,3.60107421875
1.4299998999999999,-9.952696800231934,0.09816227108240128,1.5394717454910278,8.4381103515625,-11.77978515625,3.9215087890625
1.4499999,-9.909601211547852,0.16519992053508759,1.5394717454910278,14.8162841796875,-19.256591796875,0.091552734375
1.4699999,-9.794678688049316,0.27054479718208313,1.7812861204147339,15.1519775390625,-13.763427734375,-9.002685546875
1.4899999,-9.658209800720215,0.3663128614425659,2.231395959854126,3.96728515625,-0.8392333984375,-5.8441162109375
1.5099999,-9.521739959716797,0.5267243981361389,2.7222073078155518,-17.4102783203125,13.6260986328125,-0.2288818359375
1.5299999,-9.531316757202148,0.6344634294509888,3.0573954582214355,-32.0892333984375,25.9857177734375,1.0528564453125
1.5499999,-9.557653427124023,0.5961562395095825,3.0334534645080566,-28.472900390625,21.8353271484375,2.9449462890625
1.5699999,-9.713275909423828,0.4405331015586853,2.580949544906616,-13.885498046875,10.7574462890625,5.18798828125
1.5899999,-9.828198432922363,0.09816227108240128,1.941697597503662,4.3182373046875,0.1220703125,1.129150390625
1.6099999,-9.883264541625977,-0.1628057211637497,1.290474772453308,18.035888671875,-0.9613037109375,-5.7525634765625
1.6299999,-9.99100399017334,-0.19153612852096558,0.9433154463768005,21.6827392578125,-4.913330078125,-1.28173828125
1.6499999,-9.986215591430664,-0.08619125932455063,0.8140285611152649,15.9759521484375,-7.110595703125,1.9989013671875
1.6699999,-10.050858497619629,0.12689268589019775,0.9313444495201111,10.7879638671875,-6.7596435546875,1.617431640625
1.6899998999999999,-10.000580787658691,0.43095630407333374,1.2832920551300049,10.1318359375,-11.627197265625,1.03759765625
1.7099999,-9.883264541625977,0.5339069962501526,1.644816517829895,8.209228515625,-17.7001953125,0.2899169921875
1.7299999,-9.727641105651855,0.5434837937355042,2.1475989818573,2.166748046875,-8.5906982421875,-6.683349609375
1.7499999,-9.57201862335205,0.40462008118629456,2.564189910888672,-8.7890625,5.7525634765625,-4.7454833984375
1.7699999,-9.524134635925293,0.27054479718208313,2.87064790725708,-20.99609375,12.786865234375,4.852294921875
1.7899999,-9.545681953430176,0.07182604819536209,2.829946517944336,-26.519775390625,16.29638671875,9.368896484375
1.8099999,-9.720458984375,0.05027823522686958,2.4875755310058594,-18.463134765625,9.7198486328125,11.077880859375
1.8299999,-9.909601211547852,0.038307227194309235,2.0231003761291504,-4.3792724609375,-3.265380859375,10.6048583984375
1.8499999,-9.921571731567383,0.07900865375995636,1.53707754611969,6.77490234375,-13.671875,4.1656494140625
1.8699999,-9.914389610290527,0.21787235140800476,1.280897855758667,12.3138427734375,-8.0413818359375,-4.21142578125
1.8899999,-9.782708168029785,0.3232172429561615,1.316810965538025,10.3759765625,-3.0364990234375,-2.3651123046875
1.9099999,-9.701305389404297,0.4429273009300232,1.599326729774475,2.6092529296875,-2.8533935546875,3.4637451171875
1.9299998999999999,-9.703699111938477,0.5482721924781799,1.8411411046981812,-3.1280517578125,1.4190673828125,5.279541015625
1.9499999,-9.761159896850586,0.6105214357376099,2.0590133666992188,0.396728515625,-1.3580322265625,4.7149658203125
1.9699999,-9.792284965515137,0.6057330369949341,2.1380221843719482,10.101318359375,-11.627197265625,1.678466796875
1.9899999,-9.734824180603027,0.6560112833976746,2.2194249629974365,13.12255859375,-10.650634765625,-8.1787109375
2.0099999,-9.617507934570312,0.6248866319656372,2.4468741416931152,2.8533935546875,6.9732666015625,-10.7269287109375
2.0299999,-9.495404243469238,0.6727706789970398,2.7317841053009033,-14.0838623046875,19.775390625,-6.4697265625
2.0499999,-9.423578262329102,0.6177040338516235,2.889801502227783,-26.6265869140625,24.23095703125,-0.54931640625
2.0699999,-9.509769439697266,0.5099649429321289,2.7676970958709717,-29.11376953125,24.932861328125,3.47900390625
2.0899999,-9.710882186889648,0.40940847992897034,2.2864625453948975,-18.8140869140625,15.80810546875,5.1116943359375
2.1099999,-9.856928825378418,0.19871874153614044,1.7070658206939697,-4.2877197265625,0.7781982421875,1.434326171875
2.1299999,-9.909601211547852,0.090979665517807,1.2449848651885986,4.6539306640625,-2.1514892578125,-6.927490234375
2.1499999,-9.77791976928711,0.1628057211637497,1.2018892765045166,-0.640869140625,2.0599365234375,-4.7760009765625
2.1699999,-9.746794700622559,0.2992752194404602,1.3838485479354858,-28.80859375,16.6168212890625,-0.8544921875
2.1899999,-9.80904483795166,0.35434186458587646,1.534683346748352,-44.5098876953125,18.3258056640625,3.4942626953125
2.2099999,-9.955090522766113,0.3447650372982025,1.4053963422775269,-24.2156982421875,2.38037109375,0.9613037109375
2.2299999,-10.220847129821777,0.026336219161748886,0.9169792532920837,9.307861328125,-16.326904296875,2.25830078125
2.2499999,-10.287884712219238,-0.22266076505184174,0.5554547905921936,34.820556640625,-30.181884765625,0.2593994140625
2.2699999,-10.228029251098633,-0.26815059781074524,0.8403648138046265,32.501220703125,-30.3955078125,3.60107421875
2.2899999,-9.962273597717285,-0.05506663769483566,1.4963760375976562,-10.589599609375,-7.5836181640625,5.2032470703125
2.3099999,-9.701305389404297,0.38307225704193115,2.5306711196899414,-38.4368896484375,9.918212890625,5.3253173828125
2.3299999,-9.481039047241211,0.6440402865409851,3.090914487838745,-37.6129150390625,15.5487060546875,6.16455078125
2.3499999,-9.435548782348633,0.7398083209991455,2.983175277709961,-18.8751220703125,8.9569091796875,-0.030517578125
2.3699999,-9.591172218322754,0.5650315880775452,2.4229321479797363,14.70947265625,-5.279541015625,-0.91552734375
2.3899999,-9.732429504394531,0.3495534360408783,1.6950948238372803,38.177490234375,-14.9993896484375,-5.645751953125
2.4099999,-9.897629737854004,0.15083470940589905,1.3934253454208374,43.3502197265625,-19.04296875,-2.6092529296875
2.4299999,-9.825803756713867,0.22744916379451752,1.580173134803772,20.69091796875,-9.2010498046875,-3.41796875
2.4499999,-9.737217903137207,0.42616790533065796,2.188300371170044,-10.1318359375,8.148193359375,-0.1678466796875
2.4699999,-9.586383819580078,0.6488286852836609,2.691082715988159,-30.517578125,22.0184326171875,-0.9002685546875
2.4899999,-9.569623947143555,0.8020575642585754,2.7916390895843506,-24.505615234375,21.1639404296875,-5.462646484375
2.5099999,-9.646238327026367,0.6799532771110535,2.410961151123047,-1.3580322265625,8.575439453125,-5.8135986328125
2.5299999,-9.792284965515137,0.4118026793003082,1.7166426181793213,19.4091796875,-4.6234130859375,-6.7901611328125
2.5499999,-9.888052940368652,0.08858546614646912,1.2521674633026123,28.961181640625,-12.8936767578125,-3.1280517578125
2.5699999,-9.897629737854004,-0.10055647045373917,1.0893617868423462,18.2342529296875,-8.4991455078125,-3.570556640625
2.5899999,-9.84256362915039,-0.11971008777618408,1.4077905416488647,-0.2899169921875,0.8544921875,2.0599365234375
2.6099999,-9.81143856048584,0.05027823522686958,1.7693150043487549,-14.4500732421875,7.5531005859375,3.143310546875
2.6299999,-9.806650161743164,0.24899697303771973,2.0805611610412598,-10.894775390625,7.50732421875,0.0762939453125
2.6499999,-9.823410034179688,0.4165911078453064,2.126051187515259,-2.01416015625,3.9825439453125,-3.9215087890625
2.6699999,-9.86889934539795,0.5267243981361389,2.0685901641845703,4.7149658203125,-0.091552734375,-5.126953125
2.6899999,-9.84256362915039,0.5171475410461426,2.0015525817871094,4.8370361328125,-1.7547607421875,-4.08935546875
2.7099999,-9.80904483795166,0.4596867263317108,2.0374655723571777,-0.579833984375,2.44140625,-4.9285888671875
2.7299999,-9.744400978088379,0.2992752194404602,2.169146776199341,-6.2408447265625,10.4522705078125,-0.9765625
2.7499999,-9.6989107131958,0.11013327538967133,2.1092917919158936,-7.7056884765625,11.9781494140625,0.79345703125
2.7699999,-9.773131370544434,-0.033518824726343155,1.8986018896102905,6.7138671875,5.2947998046875,1.007080078125
2.7899999,-9.81143856048584,-0.031124621629714966,1.5658079385757446,23.6968994140625,-4.94384765625,-3.41796875
2.8099999,-9.888052940368652,0.038307227194309235,1.37906014919281,26.611328125,-8.5601806640625,-4.7454833984375
2.8299999,-9.861717224121094,0.2825157940387726,1.4389152526855469,10.9405517578125,-2.0599365234375,-4.852294921875
2.8499999,-9.895236015319824,0.44771572947502136,1.7908629179000854,-4.9896240234375,5.645751953125,-2.838134765625
2.8699999,-9.931148529052734,0.5985504388809204,2.10210919380188,-15.68603515625,11.7950439453125,-0.7171630859375
2.8899999,-9.93354320526123,0.6200982332229614,2.229001760482788,-15.80810546875,10.8489990234375,-3.0517578125
2.9099999,-10.046070098876953,0.5961562395095825,2.03507137298584,-3.4637451171875,6.28662109375,-6.011962890625
2.9299999,-10.036493301391602,0.45010992884635925,1.7525556087493896,8.6822509765625,-0.5340576171875,-9.368896484375
2.9499999,-10.043676376342773,0.3016694188117981,1.4939818382263184,14.58740234375,-5.31005859375,-9.5062255859375
2.9699999,-9.981427192687988,0.2082955539226532,1.4700398445129395,11.53564453125,-4.0435791015625,-10.009765625
2.9899999,-9.897629737854004,0.11252748221158981,1.139639973640442,8.7127685546875,-1.129150390625,-9.8114013671875
3.0099999,-9.847352027893066,-0.0071826050989329815,1.1516109704971313,27.4505615234375,-13.0767822265625,-11.71875
3.0299999,-9.732429504394531,0.011971008032560349,1.0534487962722778,42.724609375,-18.98193359375,-17.2271728515625
3.0499999,-9.832986831665039,-0.05506663769483566,1.3910311460494995,35.3240966796875,-10.80322265625,-14.404296875
3.0699999,-9.916783332824707,-0.040701430290937424,2.0638017654418945,15.9149169921875,2.8228759765625,-10.772705078125
3.0899999,-10.125079154968262,-0.05985504388809204,2.801215887069702,-5.37109375,15.228271484375,-7.2784423828125
3.1099999,-10.304644584655762,-0.13168109953403473,3.2178070545196533,-21.42333984375,23.37646484375,-2.99072265625
3.1299999,-10.369287490844727,-0.2346317619085312,3.2178070545196533,-27.252197265625,26.6571044921875,1.922607421875
3.1499999,-10.20887565612793,-0.3423708379268646,2.8155810832977295,-23.3306884765625,24.0020751953125,2.1820068359375
3.1699999,-9.871294021606445,-0.42377370595932007,2.169146776199341,-14.9078369140625,20.477294921875,2.899169921875
3.1899999,-9.497797966003418,-0.49559974670410156,1.5083470344543457,-6.04248046875,17.242431640625,4.425048828125
3.2099999,-9.244012832641602,-0.5363011956214905,0.9816226959228516,0.18310546875,12.1002197265625,5.7373046875
3.2299999,-9.167398452758789,-0.5530605912208557,0.706289529800415,2.532958984375,7.568359375,7.32421875
3.2499999,-9.255983352661133,-0.4812345504760742,0.7015010714530945,1.739501953125,6.6986083984375,8.636474609375
3.2699999,-9.47146224975586,-0.29209262132644653,0.912190854549408,-2.3345947265625,8.880615234375,9.3536376953125
3.2899999,-9.751583099365234,-0.0454898327589035,1.2473790645599365,-7.75146484375,12.02392578125,7.6904296875
3.3099999,-10.038887977600098,0.22505496442317963,1.5418659448623657,-11.6729736328125,14.7705078125,4.425048828125
3.3299999000000002,-10.235212326049805,0.42616790533065796,1.6663644313812256,-12.420654296875,15.716552734375,2.655029296875
3.3499999,-10.194510459899902,0.48602294921875,1.580173134803772,-9.21630859375,13.763427734375,0.6561279296875
3.3699999,-9.926360130310059,0.4429273009300232,1.3120225667953491,-3.143310546875,9.94873046875,-1.0833740234375
3.3899999,-9.66299819946289,0.3256114423274994,0.9983820915222168,4.669189453125,6.2103271484375,-1.7242431640625
3.4099999,-9.478644371032715,0.05506663769483566,0.768538773059845,12.725830078125,2.8839111328125,-2.5177001953125
3.4299999,-9.600749015808105,-0.2298433631658554,0.7230489253997803,15.68603515625,0,2.74658203125
3.4499999,-9.86889934539795,-0.5003881454467773,0.8379706144332886,10.6201171875,0.579833984375,10.345458984375
3.4699999,-10.139444351196289,-0.5434837937355042,1.0223240852355957,2.3956298828125,4.5166015625,13.6260986328125
3.4899999,-10.350133895874023,-0.2753331959247589,1.2425906658172607,-2.8533935546875,5.6915283203125,10.8184814453125
3.5099999,-10.326191902160645,0.16519992053508759,1.359906554222107,-6.195068359375,6.195068359375,3.0517578125
3.5299999,-10.26394271850586,0.5746083855628967,1.4173674583435059,-9.1705322265625,8.5601806640625,-0.518798828125
3.5499999,-10.11789608001709,0.7541735172271729,1.3766659498214722,-11.16943359375,10.07080078125,-0.06103515625
3.5699999,-10.050858497619629,0.6655880808830261,1.278503656387329,-9.0789794921875,8.819580078125,1.4190673828125
3.5899999,-9.976638793945312,0.40462008118629456,1.1492167711257935,-2.4566650390625,6.2408447265625,1.9989013671875
3.6099999,-9.885659217834473,0.1388636976480484,0.9911994934082031,3.387451171875,5.31005859375,2.8076171875
3.6299999,-9.667786598205566,-0.004788403399288654,0.8379706144332886,3.7689208984375,5.31005859375,4.0130615234375
3.6499999,-9.351752281188965,0.023942016065120697,0.7158663272857666,2.2125244140625,3.6468505859375,3.326416015625
3.6699999,-9.105149269104004,0.20111294090747833,0.629675030708313,2.86865234375,2.5177001953125,1.0833740234375
3.6899999,-8.923190116882324,0.3998316824436188,0.6105214357376099,2.74658203125,3.2501220703125,-2.3193359375
3.7099999,-8.918401718139648,0.5195417404174805,0.6584054827690125,-1.2054443359375,4.0130615234375,-3.0364990234375
3.7299999,-9.030928611755371,0.507570743560791,0.7230489253997803,-2.7008056640625,3.936767578125,-2.1820068359375
3.7499999,-9.186552047729492,0.3423708379268646,0.7589619159698486,3.1890869140625,3.326416015625,-1.800537109375
3.7699999,-9.399636268615723,0.15801730751991272,0.7469909191131592,5.1116943359375,1.3427734375,1.03759765625
3.7899999,-9.617507934570312,-0.023942016065120697,0.7445967197418213,3.4332275390625,-2.0751953125,4.2877197265625
3.8099999,-9.813833236694336,-0.15322890877723694,0.7924807667732239,3.41796875,-2.01416015625,6.4544677734375
3.8299999000000002,-10.043676376342773,-0.22026655077934265,0.9145850539207458,4.5318603515625,0.67138671875,8.9111328125
3.8499999,-10.177751541137695,-0.11013327538967133,1.0007762908935547,-0.4119873046875,2.716064453125,9.521484375
3.8699999,-10.268731117248535,0.181959331035614,1.1109095811843872,-7.4005126953125,3.5552978515625,5.889892578125
3.8899999,-10.292673110961914,0.5841852426528931,1.137245774269104,-1.129150390625,4.241943359375,-1.434326171875
3.9099999,-10.24239444732666,0.9361328482627869,1.1276689767837524,0.42724609375,3.4027099609375,-7.8582763671875
3.9299999,-10.218452453613281,1.0965443849563599,1.0558429956436157,-4.82177734375,1.983642578125,-7.476806640625
3.9499999,-10.290278434753418,0.9552865028381348,0.9816226959228516,-12.1002197265625,1.9073486328125,-5.31005859375
3.9699999,-10.414777755737305,0.6440402865409851,0.8978256583213806,-12.420654296875,1.2664794921875,-4.2724609375
3.9899999,-10.644620895385742,0.3687070608139038,0.8475474119186401,-4.9896240234375,-1.007080078125,-4.5166015625
4.0099999,-10.845733642578125,0.15322890877723694,0.8259995579719543,-5.462646484375,-2.4566650390625,-5.157470703125
4.029999900000001,-10.958261489868164,0.05506663769483566,0.8403648138046265,-6.5155029296875,-2.7618408203125,-5.1116943359375
4.0499999,-10.943896293640137,0.0454898327589035,0.790086567401886,-4.1046142578125,-3.6468505859375,-4.8370361328125
4.069999900000001,-10.74996566772461,0.043095629662275314,0.8188169598579407,2.7923583984375,-6.8817138671875,-4.6844482421875
4.0899999000000005,-10.407594680786133,0.0071826050989329815,0.8858546018600464,8.2550048828125,-6.7596435546875,-5.7830810546875
4.1099999,-9.95748519897461,0.002394201699644327,1.0271124839782715,10.1776123046875,-2.7923583984375,-4.730224609375
4.1299999000000005,-9.490615844726562,0.014365210197865963,1.2210428714752197,9.8724365234375,1.46484375,-3.662109375
4.1499999,-9.02135181427002,-0.0454898327589035,1.3958195447921753,4.33349609375,6.6680908203125,-2.197265625
4.1699999000000005,-8.7484130859375,-0.033518824726343155,1.5059528350830078,-6.8359375,13.36669921875,3.84521484375
4.1899999,-8.695740699768066,-0.05267243832349777,1.4317326545715332,-15.56396484375,17.730712890625,8.4991455078125
4.209999900000001,-9.057265281677246,-0.011971008032560349,1.2689268589019775,-11.932373046875,14.434814453125,6.28662109375
4.2299999,-10.14902114868164,0.13407529890537262,1.0103530883789062,-0.6103515625,13.458251953125,-3.8909912109375
4.249999900000001,-11.35809326171875,0.3519476354122162,0.8451532125473022,1.7852783203125,-15.0909423828125,-14.6026611328125
4.2699999,-12.586318016052246,0.5339069962501526,0.790086567401886,1.5411376953125,-33.9508056640625,-12.14599609375
4.289999900000001,-13.148955345153809,0.727837324142456,0.8331822156906128,8.0413818359375,-15.1214599609375,-13.1378173828125
4.3099999,-12.902353286743164,0.8427590131759644,0.8930372595787048,13.5650634765625,4.8828125,-15.838623046875
4.329999900000001,-12.011710166931152,0.8451532125473022,0.8882488012313843,13.36669921875,3.8604736328125,-11.993408203125
4.3499999,-10.83855152130127,0.7709329724311829,0.9145850539207458,7.9345703125,-10.0860595703125,-2.532958984375
4.369999900000001,-9.627084732055664,0.5482721924781799,0.8475474119186401,-3.41796875,-6.77490234375,6.8359375
4.3899999,-8.710105895996094,0.2561795711517334,0.8020575642585754,-11.8255615234375,9.0789794921875,7.9345703125
4.409999900000001,-8.044517517089844,-0.09576806426048279,0.6009446382522583,-8.5296630859375,11.993408203125,0.946044921875
4.4299999,-7.620744228363037,-0.4644751250743866,0.33758243918418884,-1.861572265625,-3.3721923828125,-2.6702880859375
4.449999900000001,-7.3669586181640625,-0.8068459630012512,0.047884032130241394,6.4849853515625,-5.859375,4.7149658203125
4.4699999,-7.230489253997803,-1.0055646896362305,-0.09576806426048279,12.3748779296875,0.457763671875,15.625
4.489999900000001,-7.271190643310547,-1.0462661981582642,-0.05506663769483566,11.8255615234375,1.15966796875,20.9808349609375
4.5099999,-7.568071365356445,-0.8882488012313843,0.19871874153614044,6.622314453125,-3.60107421875,19.95849609375
4.529999900000001,-8.128314971923828,-0.5961562395095825,0.5410895943641663,1.28173828125,5.9356689453125,12.3748779296875
4.5499999,-8.78193187713623,-0.31842881441116333,0.871489405632019,-0.1983642578125,18.218994140625,0.9613037109375
4.569999900000001,-9.435548782348633,-0.08379705995321274,1.137245774269104,-5.3558349609375,13.3209228515625,-2.0904541015625
4.5899999000000005,-9.940725326538086,0.06224924325942993,1.259350061416626,-11.1846923828125,1.0833740234375,1.983642578125
4.609999900000001,-10.1753568649292,0.17477671802043915,1.338358759880066,-13.7939453125,-6.9580078125,6.1798095703125
4.6299999000000005,-10.18493366241455,0.19871874153614044,1.194706678390503,-5.31005859375,30.487060546875,10.4217529296875
4.6499999,-10.232817649841309,0.19393034279346466,1.0055646896362305,-1.129150390625,30.1513671875,0.640869140625
4.6699999000000005,-10.350133895874023,0.21547815203666687,0.8188169598579407,-0.640869140625,11.505126953125,-13.7176513671875
4.6899999,-10.503362655639648,0.2298433631658554,0.6703764796257019,0.8697509765625,-3.0975341796875,-15.9759521484375
4.709999900000001,-10.527304649353027,0.18914192914962769,0.6033388376235962,1.3885498046875,-13.0615234375,-4.1046142578125
4.7299999,-10.402806282043457,0.11013327538967133,0.646434485912323,0.152587890625,-12.20703125,5.7830810546875
4.749999900000001,-10.228029251098633,0.06703764945268631,0.7709329724311829,0.7476806640625,1.3427734375,7.9345703125
4.7699999,-10.129867553710938,0.09576806426048279,0.9050082564353943,2.8076171875,12.969970703125,6.1187744140625
4.789999900000001,-10.170568466186523,0.17477671802043915,0.9528923034667969,4.058837890625,7.720947265625,0.640869140625
4.8099999,-10.266336441040039,0.26336219906806946,0.9313444495201111,4.852294921875,-14.3280029296875,-9.6588134765625
4.829999900000001,-10.29746150970459,0.31364041566848755,0.8762778043746948,6.8359375,-23.8037109375,-17.8375244140625
4.8499999,-10.165780067443848,0.28969839215278625,0.849941611289978,9.4757080078125,-9.82666015625,-15.625
4.869999900000001,-9.950302124023438,0.22744916379451752,0.8595184087753296,8.6822509765625,1.0833740234375,-3.8299560546875
4.8899999,-9.730035781860352,0.22026655077934265,0.9145850539207458,3.3721923828125,-13.458251953125,7.7972412109375
4.909999900000001,-9.552865028381348,0.2537853717803955,0.9911994934082031,-1.8463134765625,-25.1312255859375,13.8702392578125
4.9299999,-9.435548782348633,0.37828385829925537,1.0582371950149536,-3.631591796875,-14.739990234375,21.087646484375
4.949999900000001,-9.974244117736816,0.6153098344802856,1.192312479019165,-4.69970703125,-5.79833984375,30.9906005859375
4.9699999,-10.220847129821777,0.7757213711738586,1.2641384601593018,-8.2550048828125,-3.6468505859375,12.1002197265625
4.989999900000001,-10.948684692382812,0.9457096457481384,1.3335703611373901,-11.2457275390625,-1.953125,0.4730224609375
5.0099999,-11.010933876037598,0.9672574996948242,1.292868971824646,-10.894775390625,-1.617431640625,16.2811279296875
5.029999900000001,-10.864887237548828,0.9217676520347595,1.2234370708465576,-8.5601806640625,-1.617431640625,15.838623046875
5.0499999,-10.29746150970459,0.7350199222564697,1.094150185585022,-5.4931640625,-3.7994384765625,8.880615234375
5.069999900000001,-9.890447616577148,0.6368576288223267,1.0127472877502441,-4.2877197265625,-7.2784423828125,3.84521484375
5.0899999000000005,-9.66299819946289,0.44532153010368347,0.9097966551780701,-2.8533935546875,-8.48388671875,7.4920654296875
5.109999900000001,-9.648633003234863,0.43335050344467163,0.9433154463768005,-1.3580322265625,-9.735107421875,9.857177734375
5.1299999000000005,-9.765948295593262,0.5195417404174805,1.0438719987869263,-5.2490234375,-8.758544921875,11.4593505859375
5.1499999,-9.86650562286377,0.7469909191131592,1.2186486721038818,-12.9852294921875,-4.8980712890625,10.2081298828125
5.1699999000000005,-9.86650562286377,0.9959878921508789,1.3934253454208374,-18.280029296875,-2.471923828125,4.180908203125
5.1899999,-9.813833236694336,1.2401964664459229,1.599326729774475,-20.965576171875,0.1068115234375,0.5035400390625
5.209999900000001,-9.746794700622559,1.3503297567367554,1.6903064250946045,-23.345947265625,3.84521484375,-1.89208984375
5.2299999,-9.739612579345703,1.3479355573654175,1.7094600200653076,-23.8800048828125,5.3863525390625,-4.8828125
5.249999900000001,-9.775525093078613,1.2473790645599365,1.6328455209732056,-26.2298583984375,4.5623779296875,-7.2479248046875
5.2699999,-9.847352027893066,1.0678139925003052,1.4508862495422363,-27.4200439453125,3.143310546875,-8.4228515625
5.289999900000001,-9.861717224121094,0.8810662031173706,1.3335703611373901,-23.25439453125,1.9073486328125,-11.3372802734375
5.3099999,-9.998186111450195,0.5722141861915588,0.9528923034667969,-12.725830078125,-0.8544921875,-12.9241943359375
5.329999900000001,-10.043676376342773,0.2322375625371933,0.6943184733390808,1.3275146484375,-9.09423828125,-8.087158203125
5.3499999,-10.144232749938965,0.033518824726343155,0.31842881441116333,13.48876953125,-19.073486328125,-1.953125
5.369999900000001,-10.168174743652344,-0.040701430290937424,0.10295066982507706,23.4527587890625,-28.350830078125,-1.46484375
5.3899999,-10.137049674987793,0.08140286058187485,0.2322375625371933,31.5704345703125,-35.675048828125,-3.9215087890625
5.409999900000001,-9.988609313964844,0.4357447028160095,0.7757213711738586,29.4189453125,-36.7431640625,-7.781982421875
5.4299999,-9.785101890563965,0.7589619159698486,1.6041151285171509,14.2822265625,-25.4364013671875,-12.1002197265625
5.449999900000001,-9.516951560974121,0.993593692779541,2.4444799423217773,-2.3040771484375,-7.8887939453125,-19.4091796875
5.4699999,-9.346963882446289,1.015141487121582,3.2178070545196533,-10.7269287109375,10.3607177734375,-19.134521484375
5.489999900000001,-9.23443603515625,0.9528923034667969,3.6990416049957275,-19.989013671875,21.97265625,-10.1470947265625
5.5099999,-9.272743225097656,0.7230489253997803,3.840299606323242,-36.3616943359375,33.172607421875,-2.593994140625
5.529999900000001,-9.459490776062012,0.4596867263317108,3.6391866207122803,-46.2493896484375,40.4815673828125,1.2969970703125
5.5499999,-9.615114212036133,0.12928688526153564,3.0310592651367188,-40.3900146484375,36.3311767578125,0.640869140625
5.569999900000001,-9.801861763000488,-0.1867477297782898,2.1045033931732178,-22.5830078125,25.7415771484375,-3.9520263671875
5.5899999000000005,-9.93593692779541,-0.44771572947502136,1.091755986213684,-2.899169921875,19.7906494140625,-6.4544677734375
5.609999900000001,-10.105925559997559,-0.5363011956214905,0.14365209639072418,10.4522705078125,13.8397216796875,-2.7618408203125
5.6299999000000005,-10.213664054870605,-0.4118026793003082,-0.5315127968788147,18.00537109375,1.2054443359375,-1.1138916015625
5.6499999,-10.345345497131348,-0.090979665517807,-0.7182605266571045,21.3775634765625,-11.1541748046875,-0.0152587890625
5.6699999000000005,-10.338163375854492,0.16759411990642548,-0.5578489899635315,17.9290771484375,-19.5159912109375,-0.7476806640625
5.6899999,-10.292673110961914,0.42377370595932007,0.0071826050989329815,11.5814208984375,-20.8282470703125,-7.9193115234375
5.709999900000001,-10.041281700134277,0.4381389021873474,0.7230489253997803,8.544921875,-16.66259765625,-13.3209228515625
5.7299999,-9.86650562286377,0.3447650372982025,1.400607943534851,4.8675537109375,-6.6680908203125,-8.758544921875
5.749999900000001,-9.75397777557373,0.17238251864910126,1.8411411046981812,-2.3193359375,-0.9307861328125,-0.06103515625
5.7699999,-9.694122314453125,0.05746084079146385,2.0015525817871094,-6.683349609375,-0.4119873046875,3.9520263671875
5.789999900000001,-9.821015357971191,-0.021547814831137657,2.0183119773864746,-4.2724609375,-5.37109375,7.38525390625
5.8099999,-9.890447616577148,-0.05027823522686958,1.8195933103561401,-0.701904296875,-10.5438232421875,3.692626953125
5.829999900000001,-9.909601211547852,-0.038307227194309235,1.644816517829895,2.9296875,-9.9945068359375,-4.0435791015625
5.8499999,-9.871294021606445,-0.031124621629714966,1.50355863571167,8.2244873046875,-8.4075927734375,-7.3089599609375
5.869999900000001,-9.806650161743164,0.07661445438861847,1.460463047027588,9.3994140625,-4.7454833984375,-3.2958984375
5.8899999,-9.77791976928711,0.181959331035614,1.522712230682373,-1.4801025390625,-3.3111572265625,0.152587890625
5.909999900000001,-9.773131370544434,0.21787235140800476,1.6328455209732056,-13.031005859375,0.5950927734375,1.678466796875
5.9299999,-9.799467086791992,0.20350714027881622,1.6663644313812256,-13.36669921875,2.2430419921875,4.39453125
5.949999900000001,-9.86650562286377,0.12449848651885986,1.7094600200653076,-5.6915283203125,-3.997802734375,5.9661865234375
5.9699999,-9.888052940368652,0.0933738648891449,1.6089035272598267,1.5106201171875,-11.4288330078125,3.2958984375
5.989999900000001,-9.926360130310059,0.06464344263076782,1.5634137392044067,6.9122314453125,-11.932373046875,-6.2103271484375
6.0099999,-9.8784761428833,0.019153613597154617,1.5418659448623657,12.0391845703125,-9.1094970703125,-8.026123046875
6.029999900000001,-9.849745750427246,0.023942016065120697,1.6496049165725708,11.5203857421875,-5.126953125,-2.716064453125
6.0499999,-9.715670585632324,0.047884032130241394,1.8363527059555054,0.9613037109375,0.3204345703125,-0.274658203125
6.069999900000001,-9.66299819946289,0.181959331035614,2.1092917919158936,-13.12255859375,10.498046875,1.800537109375
6.0899999000000005,-9.708487510681152,0.3519476354122162,2.231395959854126,-20.416259765625,14.6942138671875,1.1444091796875
6.109999900000001,-9.737217903137207,0.47884035110473633,2.183511972427368,-17.8070068359375,9.063720703125,0.4425048828125
6.1299999000000005,-9.883264541625977,0.40701428055763245,1.8579005002975464,-8.3465576171875,-0.30517578125,0.9613037109375
6.149999900000001,-9.979032516479492,0.22026655077934265,1.4460978507995605,3.84521484375,-9.0789794921875,-3.5858154296875
6.1699999000000005,-9.983820915222168,-0.05746084079146385,1.0893617868423462,15.7470703125,-12.481689453125,-8.087158203125
6.1899999,-10.02452278137207,-0.3447650372982025,0.8906430602073669,21.66748046875,-13.3056640625,-2.4871826171875
6.209999900000001,-9.988609313964844,-0.43335050344467163,0.9744400978088379,17.2576904296875,-15.777587890625,1.28173828125
6.2299999,-9.86650562286377,-0.35913026332855225,1.2713210582733154,7.0648193359375,-9.46044921875,2.1820068359375
6.249999900000001,-9.818621635437012,-0.13168109953403473,1.721431016921997,-3.41796875,-1.4801025390625,6.3018798828125
6.2699999,-9.658209800720215,0.2585737705230713,2.1787235736846924,-13.153076171875,0.5340576171875,6.256103515625
6.289999900000001,-9.617507934570312,0.5291185975074768,2.535459518432617,-19.9127197265625,1.312255859375,3.7994384765625
6.3099999,-9.615114212036133,0.7038952708244324,2.650381326675415,-20.3399658203125,2.105712890625,-1.251220703125
6.329999900000001,-9.612719535827637,0.5961562395095825,2.5330653190612793,-13.6871337890625,5.3558349609375,-7.8887939453125
6.3499999,-9.674968719482422,0.4620809257030487,2.2673089504241943,-4.5928955078125,1.861572265625,-6.9732666015625
6.369999900000001,-9.658209800720215,0.0454898327589035,1.9584569931030273,-0.2899169921875,0.5035400390625,-6.8359375
6.3899999,-9.799467086791992,-0.17477671802043915,1.6974890232086182,1.1138916015625,6.2255859375,-2.3193359375
6.409999900000001,-9.854534149169922,-0.3447650372982025,1.5490485429763794,0.5950927734375,2.9296875,6.77490234375
6.4299999,-9.909601211547852,-0.35434186458587646,1.4867992401123047,0.885009765625,-3.0670166015625,3.41796875
6.449999900000001,-9.940725326538086,-0.24181437492370605,1.5753847360610962,0.762939453125,-3.5552978515625,2.2125244140625
6.4699999,-9.928754806518555,-0.040701430290937424,1.6136919260025024,-2.349853515625,1.89208984375,2.1820068359375
6.489999900000001,-9.885659217834473,0.15083470940589905,1.8267759084701538,-1.617431640625,-3.387451171875,2.7313232421875
6.5099999,-9.86889934539795,0.272938996553421,2.0614075660705566,-3.387451171875,-6.378173828125,0.152587890625
6.529999900000001,-9.732429504394531,0.2968810200691223,2.1787235736846924,-8.3160400390625,2.8228759765625,-4.5623779296875
6.5499999,-9.672574996948242,0.22744916379451752,2.255337953567505,-8.4075927734375,10.07080078125,-5.8441162109375
6.569999900000001,-9.655815124511719,0.06464344263076782,2.1547815799713135,-2.8533935546875,5.767822265625,-0.885009765625
6.5899999000000005,-9.751583099365234,-0.06224924325942993,1.9297266006469727,-1.0223388671875,2.7313232421875,4.33349609375
6.609999900000001,-9.931148529052734,-0.1843535304069519,1.778891921043396,-4.39453125,0.8392333984375,6.9580078125
6.6299999000000005,-9.86650562286377,-0.14365209639072418,1.623268723487854,-6.4697265625,5.126953125,1.708984375
6.649999900000001,-9.825803756713867,-0.05746084079146385,1.6280571222305298,-5.7525634765625,4.1961669921875,4.8065185546875
6.6699999000000005,-9.830592155456543,0.10055647045373917,1.5897499322891235,-6.2408447265625,3.5552978515625,5.218505859375
6.6899999,-9.775525093078613,0.2849099934101105,1.623268723487854,-5.096435546875,-0.91552734375,-0.5035400390625
6.709999900000001,-9.861717224121094,0.3734954595565796,1.656787633895874,0.8087158203125,-4.0740966796875,-2.3651123046875
6.7299999,-9.871294021606445,0.38546648621559143,1.821987509727478,7.7056884765625,-5.5999755859375,-4.4708251953125
6.749999900000001,-9.734824180603027,0.22266076505184174,2.0254945755004883,8.0413818359375,-3.265380859375,-6.8359375
6.7699999,-9.682151794433594,0.05746084079146385,2.343923568725586,2.2430419921875,9.033203125,-7.9803466796875
6.789999900000001,-9.63187313079834,-0.15562310814857483,2.5306711196899414,-6.53076171875,17.9595947265625,-1.0223388671875
6.8099999,-9.674968719482422,-0.2082955539226532,2.4636335372924805,-11.5966796875,18.6004638671875,5.4168701171875
6.829999900000001,-9.816226959228516,-0.22744916379451752,2.1068975925445557,-7.9193115234375,14.8773193359375,3.8604736328125
6.8499999,-9.940725326538086,-0.19632454216480255,1.4939818382263184,1.6937255859375,4.5623779296875,1.4801025390625
6.869999900000001,-10.055646896362305,-0.06703764945268631,0.9385270476341248,12.481689453125,-6.591796875,2.44140625
6.8899999,-10.067618370056152,0.05267243832349777,0.608127236366272,16.0369873046875,-9.307861328125,0.30517578125
6.909999900000001,-10.000580787658691,0.17477671802043915,0.5770025849342346,12.1307373046875,-10.1470947265625,0.1373291015625
6.9299999,-9.914389610290527,0.31124621629714966,0.8643068075180054,9.3536376953125,-12.9547119140625,-3.3721923828125
6.949999900000001,-9.854534149169922,0.27054479718208313,1.3551181554794312,9.58251953125,-15.0146484375,-1.8463134765625
6.9699999,-9.720458984375,0.2298433631658554,1.8626888990402222,7.110595703125,-10.3607177734375,-3.387451171875
6.989999900000001,-9.782708168029785,0.090979665517807,2.3558945655822754,1.678466796875,1.52587890625,-1.068115234375
7.0099999,-9.653421401977539,0.05506663769483566,2.6144683361053467,-3.6773681640625,4.7454833984375,-0.2593994140625
7.029999900000001,-9.62947940826416,-0.026336219161748886,2.695871114730835,-7.9498291015625,6.3323974609375,0.3662109375
7.0499999,-9.670180320739746,-0.07182604819536209,2.5115175247192383,-12.5274658203125,9.0179443359375,-0.6103515625
7.069999900000001,-9.653421401977539,-0.06464344263076782,2.183511972427368,-15.9912109375,9.46044921875,2.6397705078125
7.0899999000000005,-9.799467086791992,-0.10773907601833344,1.723825216293335,-10.5438232421875,4.638671875,3.0364990234375
7.109999900000001,-9.959878921508789,-0.07422025501728058,1.3742717504501343,2.1514892578125,-5.1727294921875,1.89208984375
7.1299999000000005,-9.974244117736816,-0.002394201699644327,1.2042834758758545,8.1787109375,-7.6904296875,3.692626953125
7.149999900000001,-9.923966407775879,0.033518824726343155,1.216254472732544,3.631591796875,-3.2196044921875,2.6397705078125
7.1699999000000005,-9.854534149169922,0.21547815203666687,1.460463047027588,-2.62451171875,-0.6103515625,1.678466796875
7.1899999,-9.710882186889648,0.3208230137825012,1.8076223134994507,-9.002685546875,1.6021728515625,2.62451171875
7.209999900000001,-9.758766174316406,0.42377370595932007,2.0901381969451904,-15.7623291015625,6.9427490234375,3.387451171875
7.2299999,-9.821015357971191,0.4405331015586853,2.3271639347076416,-16.54052734375,6.1798095703125,1.953125
7.249999900000001,-9.80904483795166,0.3734954595565796,2.279279947280884,-8.5601806640625,4.2572021484375,-2.38037109375
7.2699999,-9.967061996459961,0.19153612852096558,2.0638017654418945,2.4871826171875,2.838134765625,-2.2735595703125
7.289999900000001,-9.81143856048584,0.040701430290937424,1.8148049116134644,8.5296630859375,-3.6163330078125,-3.7994384765625
7.3099999,-9.849745750427246,-0.07661445438861847,1.6496049165725708,7.9498291015625,-0.9918212890625,-5.6915283203125
7.329999900000001,-9.854534149169922,-0.13168109953403473,1.6950948238372803,4.8828125,4.94384765625,-0.7171630859375
7.3499999,-9.840168952941895,-0.05746084079146385,1.7956513166427612,2.166748046875,6.77490234375,-0.823974609375
7.369999900000001,-9.821015357971191,0.05027823522686958,1.8962076902389526,2.2125244140625,7.5531005859375,-1.0833740234375
7.3899999,-9.801861763000488,0.15322890877723694,1.867477297782898,6.0882568359375,8.1634521484375,-3.9520263671875
7.409999900000001,-9.787496566772461,0.272938996553421,1.764526605606079,11.9781494140625,5.8135986328125,-6.591796875
7.4299999,-9.66299819946289,0.3280056416988373,1.6711528301239014,12.481689453125,7.293701171875,-10.9100341796875
7.449999900000001,-9.785101890563965,0.2777273952960968,1.522712230682373,5.8441162109375,6.2255859375,-7.9193115234375
7.4699999,-9.727641105651855,0.15322890877723694,1.4484920501708984,-0.67138671875,5.0506591796875,-7.110595703125
7.489999900000001,-9.794678688049316,-0.035913024097681046,1.2976573705673218,1.28173828125,1.312255859375,-4.5623779296875
7.5099999,-9.976638793945312,-0.2585737705230713,1.1779472827911377,7.293701171875,-5.1116943359375,0.885009765625
7.529999900000001,-10.022128105163574,-0.2561795711517334,1.1803414821624756,6.16455078125,-7.965087890625,1.6937255859375
7.5499999,-10.192116737365723,-0.24899697303771973,1.2018892765045166,-0.4425048828125,-3.5858154296875,7.1258544921875
7.569999900000001,-10.213664054870605,0.021547814831137657,1.4532804489135742,-2.838134765625,-6.6375732421875,3.143310546875
7.5899999000000005,-10.201693534851074,0.2059013396501541,1.6400281190872192,-0.4730224609375,-9.5672607421875,-2.4261474609375
7.609999900000001,-10.113107681274414,0.3758896589279175,1.9105730056762695,2.9144287109375,-10.3759765625,-6.2713623046875
7.6299999000000005,-9.897629737854004,0.36152446269989014,2.097320795059204,5.9356689453125,0.3509521484375,-12.9547119140625
7.649999900000001,-9.713275909423828,0.19632454216480255,2.255337953567505,5.4931640625,6.1798095703125,-6.439208984375
7.6699999000000005,-9.576807022094727,0.043095629662275314,2.3104045391082764,2.716064453125,7.293701171875,-2.6092529296875
7.6899999,-9.617507934570312,-0.19393034279346466,2.1499931812286377,-0.6256103515625,6.622314453125,-0.762939453125
7.709999900000001,-9.734824180603027,-0.27054479718208313,2.0015525817871094,-2.960205078125,6.5155029296875,1.1749267578125
7.7299999,-9.895236015319824,-0.45250412821769714,0.3998316824436188,-0.823974609375,8.087158203125,4.0130615234375
7.749999900000001,-10.137049674987793,-0.5889736413955688,-0.1173158809542656,20.4010009765625,-4.8828125,10.223388671875
7.7699999,-10.251971244812012,-0.6129156351089478,-1.2306196689605713,40.1153564453125,-15.594482421875,4.5013427734375
7.789999900000001,-10.378864288330078,-0.5027823448181152,-0.950498104095459,38.0401611328125,-10.498046875,1.1444091796875
7.8099999,-10.26394271850586,-0.14844051003456116,0.11252748221158981,21.3470458984375,-1.03759765625,3.3416748046875
7.829999900000001,-10.012551307678223,0.26096799969673157,1.3646949529647827,1.2664794921875,10.284423828125,1.1749267578125
7.8499999,-9.75637149810791,0.6584054827690125,2.3918075561523438,-15.0146484375,19.6380615234375,-0.244140625
7.869999900000001,-9.849745750427246,0.849941611289978,2.829946517944336,-22.9949951171875,28.25927734375,-1.8157958984375
7.8899999,-10.228029251098633,0.9074024558067322,2.7461493015289307,-22.430419921875,24.627685546875,-4.9896240234375
7.909999900000001,-10.828974723815918,0.7661445140838623,2.1811177730560303,-17.4560546875,7.568359375,-6.3323974609375
7.9299999,-11.293449401855469,0.5434837937355042,1.4508862495422363,-5.8746337890625,0.640869140625,-8.1634521484375
7.949999900000001,-11.403582572937012,0.3208230137825012,0.7613561153411865,8.4686279296875,3.9520263671875,-11.0321044921875
7.9699999,-11.094730377197266,0.11252748221158981,0.2753331959247589,19.0277099609375,2.899169921875,-16.54052734375
7.989999900000001,-10.47942066192627,-0.06703764945268631,0.0694318488240242,23.101806640625,-8.0108642578125,-16.6778564453125
8.0099999,-9.708487510681152,-0.2298433631658554,0.1412578970193863,21.6827392578125,-13.5955810546875,-7.781982421875
8.0299999,-8.868123054504395,-0.3734954595565796,0.4165911078453064,17.120361328125,-6.7291259765625,2.25830078125
8.049999900000001,-8.08282470703125,-0.4644751250743866,0.8092401623725891,11.016845703125,6.439208984375,6.103515625
8.069999900000001,-7.522581577301025,-0.44532153010368347,1.1803414821624756,4.150390625,21.0113525390625,6.6680908203125
8.0899999,-7.273584842681885,-0.35913026332855225,1.45806884765625,-3.0975341796875,27.3284912109375,7.537841796875
8.1099999,-7.364564418792725,-0.2346317619085312,1.6041151285171509,-8.453369140625,22.5677490234375,7.8277587890625
8.129999900000001,-7.716512203216553,-0.1364694982767105,1.6496049165725708,-9.5062255859375,14.251708984375,8.056640625
8.149999900000001,-8.216899871826172,-0.090979665517807,1.6352397203445435,-7.7667236328125,8.1329345703125,12.7105712890625
8.1699999,-8.798690795898438,-0.026336219161748886,1.6208745241165161,-5.9356689453125,3.9215087890625,18.6004638671875
8.1899999,-9.327810287475586,0.047884032130241394,1.625662922859192,-4.0740966796875,0.3204345703125,16.387939453125
8.2099999,-9.785101890563965,0.17477671802043915,1.6615760326385498,-2.0904541015625,-1.2664794921875,11.9171142578125
8.229999900000001,-10.14902114868164,0.3280056416988373,1.6974890232086182,-1.1138916015625,1.6632080078125,12.939453125
8.2499999,-10.393229484558105,0.4812345504760742,1.7190368175506592,-1.861572265625,-2.5634765625,15.533447265625
8.2699999,-10.517727851867676,0.6033388376235962,1.7094600200653076,-3.143310546875,-12.420654296875,14.7552490234375
8.2899999,-10.529699325561523,0.6631938815116882,1.659181833267212,-2.838134765625,-13.763427734375,13.61083984375
8.309999900000001,-10.359710693359375,0.6248866319656372,1.5083470344543457,0.4730224609375,2.532958984375,12.0697021484375
8.3299999,-10.261548042297363,0.5315127968788147,1.414973258972168,1.556396484375,1.495361328125,7.1868896484375
8.3499999,-10.366893768310547,0.4189853072166443,1.3287819623947144,2.532958984375,-7.843017578125,5.401611328125
8.3699999,-10.484209060668945,0.2561795711517334,1.1994950771331787,3.0059814453125,-5.218505859375,-7.6751708984375
8.389999900000001,-10.587160110473633,0.14604631066322327,1.1252747774124146,4.33349609375,-4.058837890625,-17.974853515625
8.4099999,-10.572794914245605,0.011971008032560349,1.0438719987869263,6.8817138671875,-8.9569091796875,-6.2713623046875
8.4299999,-10.402806282043457,0.011971008032560349,1.0127472877502441,8.6212158203125,-9.21630859375,0.091552734375
8.4499999,-10.050858497619629,0.035913024097681046,1.01753568649292,8.72802734375,-11.9171142578125,-2.471923828125
8.469999900000001,-9.794678688049316,0.1843535304069519,1.0893617868423462,7.8125,-13.2598876953125,-2.0294189453125
8.4899999,-9.581595420837402,0.38067805767059326,1.1875240802764893,5.5999755859375,-13.5345458984375,-3.8604736328125
8.5099999,-9.548076629638672,0.5746083855628967,1.3192051649093628,2.3956298828125,-14.4805908203125,-6.1798095703125
8.5299999,-9.624691009521484,0.7398083209991455,1.4628572463989258,-1.007080078125,-13.4124755859375,-6.5765380859375
8.549999900000001,-9.742006301879883,0.8403648138046265,1.659181833267212,-3.5552978515625,-12.5885009765625,-7.568359375
8.569999900000001,-9.840168952941895,0.849941611289978,1.8770540952682495,-5.889892578125,-9.307861328125,-9.1552734375
8.5899999,-9.897629737854004,0.7374141216278076,2.051830768585205,-8.4075927734375,-5.1116943359375,-10.6964111328125
8.6099999,-9.892841339111328,0.5985504388809204,2.2002713680267334,-9.5977783203125,-3.936767578125,-8.7432861328125
8.629999900000001,-9.847352027893066,0.43095630407333374,2.2816741466522217,-14.4195556640625,-2.838134765625,-7.293701171875
8.649999900000001,-9.799467086791992,0.31603461503982544,2.315192937850952,-24.0325927734375,2.7618408203125,-8.5296630859375
8.6699999,-9.785101890563965,0.24899697303771973,2.1954829692840576,-31.7230224609375,8.331298828125,-10.284423828125
8.6899999,-9.706093788146973,0.18914192914962769,2.166752576828003,-32.65380859375,9.246826171875,-9.82666015625
8.709999900000001,-9.828198432922363,0.10295066982507706,1.86508309841156,-27.374267578125,7.6446533203125,-7.1563720703125
8.729999900000001,-9.77791976928711,-0.040701430290937424,1.7764976024627686,-19.4244384765625,5.06591796875,-4.3487548828125
8.7499999,-9.947908401489258,-0.20350714027881622,1.4484920501708984,-8.2855224609375,-2.197265625,-1.03759765625
8.7699999,-10.02691650390625,-0.3471592366695404,1.2976573705673218,3.9825439453125,-13.7786865234375,-5.0506591796875
8.7899999,-10.093954086303711,-0.4213795065879822,1.1013327836990356,15.655517578125,-18.2342529296875,-11.0321044921875
8.809999900000001,-10.08198356628418,-0.4405331015586853,1.0295066833496094,23.7579345703125,-16.66259765625,-11.7950439453125
8.8299999,-9.892841339111328,-0.2346317619085312,1.1276689767837524,27.4658203125,-16.54052734375,-8.9263916015625
8.8499999,-9.832986831665039,-0.090979665517807,1.5466543436050415,22.7813720703125,-16.9219970703125,-1.9989013671875
8.8699999,-9.653421401977539,0.1364694982767105,2.0877439975738525,5.0506591796875,-14.495849609375,-2.99072265625
8.889999900000001,-9.624691009521484,0.31603461503982544,2.784456491470337,-14.3280029296875,-3.1890869140625,-10.8642578125
8.9099999,-9.524134635925293,0.33279404044151306,3.222595453262329,-22.0184326171875,13.885498046875,-12.51220703125
8.9299999,-9.457097053527832,0.36152446269989014,3.3901896476745605,-20.660400390625,21.392822265625,-8.8348388671875
8.9499999,-9.469067573547363,0.20350714027881622,3.0765492916107178,-19.4244384765625,19.95849609375,-3.265380859375
8.969999900000001,-9.720458984375,-0.05985504388809204,2.494758129119873,-13.9923095703125,10.2691650390625,-0.3204345703125
8.9899999,-9.938331604003906,-0.3208230137825012,1.8531121015548706,-3.4027099609375,-2.7618408203125,-12.4969482421875
9.0099999,-10.120290756225586,-0.48602294921875,1.194706678390503,9.27734375,-5.0048828125,-14.8773193359375
9.0299999,-10.137049674987793,-0.6320692300796509,0.8643068075180054,18.218994140625,-4.730224609375,-9.46044921875
9.049999900000001,-10.005369186401367,-0.5410895943641663,0.6607996821403503,21.6217041015625,-11.7034912109375,-8.6212158203125
9.069999900000001,-10.036493301391602,-0.5099649429321289,0.8547300100326538,22.27783203125,-21.2249755859375,-0.8087158203125
9.0899999,-9.931148529052734,-0.4165911078453064,1.2832920551300049,14.4195556640625,-26.0467529296875,-11.138916015625
9.1099999,-9.837775230407715,-0.3447650372982025,1.886630892753601,0.335693359375,-12.4664306640625,-15.3961181640625
9.129999900000001,-9.670180320739746,-0.3016694188117981,2.43011474609375,-10.31494140625,2.4261474609375,-6.8206787109375
9.149999900000001,-9.440337181091309,-0.2753331959247589,2.8419175148010254,-16.1285400390625,4.1961669921875,-5.2947998046875
9.1699999,-9.38048267364502,-0.29209262132644653,2.8802247047424316,-18.12744140625,5.6610107421875,-1.5869140625
9.1899999,-9.670180320739746,-0.4429273009300232,2.695871114730835,-18.00537109375,-0.640869140625,5.889892578125
9.209999900000001,-9.821015357971191,-0.6272808313369751,2.4181437492370605,-13.8397216796875,-7.2021484375,-1.8157958984375
9.229999900000001,-9.890447616577148,-0.7709329724311829,2.0661959648132324,-5.18798828125,-6.6070556640625,-10.55908203125
9.2499999,-9.859322547912598,-0.9050082564353943,1.9081788063049316,4.791259765625,-2.5177001953125,0.091552734375
9.2699999,-9.660603523254395,-0.811634361743927,1.8602946996688843,5.6915283203125,-1.2359619140625,0.6561279296875
9.2899999,-9.579200744628906,-0.7110779285430908,1.944091796875,0.1678466796875,-5.06591796875,2.6397705078125
9.309999900000001,-9.732429504394531,-0.5578489899635315,2.164358377456665,-4.33349609375,-10.7421875,2.25830078125
9.3299999,-9.708487510681152,-0.4405331015586853,2.360682964324951,-6.5765380859375,-7.4005126953125,-7.8887939453125
9.3499999,-9.706093788146973,-0.40222588181495667,2.4851813316345215,-5.0506591796875,1.40380859375,-8.148193359375
9.3699999,-9.588777542114258,-0.4118026793003082,2.5953147411346436,-0.6103515625,5.9814453125,0.0152587890625
9.389999900000001,-9.564835548400879,-0.48602294921875,2.542642116546631,0.1373291015625,5.9356689453125,-0.274658203125
9.4099999,-9.610325813293457,-0.42856210470199585,2.585737943649292,-3.7689208984375,-0.3814697265625,-0.4730224609375
9.4299999,-9.775525093078613,-0.4620809257030487,2.5043349266052246,-7.4615478515625,-2.105712890625,-1.64794921875
9.4499999,-9.761159896850586,-0.4596867263317108,2.406172752380371,-4.6539306640625,3.6773681640625,-9.2315673828125
9.469999900000001,-9.84256362915039,-0.6009446382522583,2.2146365642547607,4.730224609375,2.9144287109375,-2.9296875
9.4899999,-9.773131370544434,-0.751779317855835,2.0925323963165283,9.8114013671875,-4.058837890625,-7.965087890625
9.5099999,-9.737217903137207,-0.8810662031173706,2.027888774871826,7.5225830078125,-1.3427734375,-9.613037109375
9.5299999,-9.742006301879883,-0.9169792532920837,2.0183119773864746,5.06591796875,-0.18310546875,-0.1678466796875
9.549999900000001,-9.701305389404297,-0.8882488012313843,2.099714994430542,5.584716796875,-1.89208984375,-2.5177001953125
9.569999900000001,-9.677363395690918,-0.8451532125473022,2.1571757793426514,4.1046142578125,-3.2196044921875,-0.335693359375
9.5899999,-9.667786598205566,-0.6991068720817566,2.1523873805999756,-0.30517578125,0.54931640625,1.983642578125
9.6099999,-9.701305389404297,-0.5985504388809204,2.2888567447662354,-3.326416015625,0.30517578125,2.2430419921875
9.629999900000001,-9.742006301879883,-0.49559974670410156,2.2697031497955322,-4.69970703125,-5.55419921875,-1.8310546875
9.649999900000001,-9.679757118225098,-0.5171475410461426,2.2864625453948975,-3.2806396484375,-6.195068359375,-1.708984375
9.6699999,-9.763554573059082,-0.6392518281936646,2.2361843585968018,2.777099609375,-3.204345703125,-2.7313232421875
9.6899999,-9.725247383117676,-0.7422025203704834,2.2673089504241943,5.645751953125,-8.4686279296875,-2.4871826171875
9.709999900000001,-9.624691009521484,-0.8810662031173706,2.319981336593628,1.556396484375,-6.0882568359375,-5.6304931640625
9.729999900000001,-9.701305389404297,-0.9528923034667969,2.4372973442077637,-1.4190673828125,-0.9613037109375,3.936767578125
9.7499999,-9.593565940856934,-0.9026140570640564,2.561795711517334,-3.0670166015625,0.030517578125,1.373291015625
9.7699999,-9.648633003234863,-0.7565677165985107,2.6384103298187256,-5.9051513671875,1.922607421875,3.96728515625
9.7899999,-9.627084732055664,-0.6775590777397156,2.647987127304077,-9.1400146484375,1.9683837890625,3.2806396484375
9.809999900000001,-9.593565940856934,-0.4668693244457245,2.5689783096313477,-10.1318359375,6.6986083984375,0.335693359375
9.8299999,-9.66299819946289,-0.4596867263317108,2.425326347351074,-8.544921875,6.16455078125,5.06591796875
9.8499999,-9.643844604492188,-0.4692635238170624,2.2361843585968018,-5.6304931640625,-1.4190673828125,-1.1444091796875
9.8699999,-9.768342971801758,-0.47884035110473633,2.1475989818573,0.2288818359375,-2.899169921875,-2.25830078125
9.889999900000001,-9.832986831665039,-0.6129156351089478,2.0685901641845703,4.39453125,-10.4522705078125,1.3580322265625
9.9099999,-9.725247383117676,-0.7134721279144287,2.22660756111145,6.134033203125,-6.1187744140625,-6.6070556640625
9.9299999,-9.648633003234863,-0.8379706144332886,2.4229321479797363,5.4779052734375,-0.6103515625,-1.9378662109375
9.9499999,-9.526528358459473,-0.8523358106613159,2.6216509342193604,2.4566650390625,2.8533935546875,0.213623046875
9.969999900000001,-9.5408935546875,-0.871489405632019,2.693476915359497,-1.007080078125,5.1422119140625,1.5106201171875
9.9899999,-9.651026725769043,-0.7924807667732239,2.734178304672241,-3.1280517578125,4.8675537109375,3.0670166015625
10.0099999,-9.564835548400879,-0.6272808313369751,2.6671407222747803,-7.354736328125,10.1318359375,-3.3416748046875
10.0299999,-9.643844604492188,-0.5003881454467773,2.6384103298187256,-14.5721435546875,12.0391845703125,4.058837890625
10.049999900000001,-9.579200744628906,-0.43335050344467163,2.4803929328918457,-17.4407958984375,11.3677978515625,1.7242431640625
10.069999900000001,-9.617507934570312,-0.45489832758903503,2.2888567447662354,-8.8653564453125,6.134033203125,-4.119873046875
10.0899999,-9.780313491821289,-0.5961562395095825,2.013523578643799,2.899169921875,-3.631591796875,1.8157958984375
10.1099999,-9.813833236694336,-0.7781155705451965,1.8842366933822632,8.97216796875,-10.4217529296875,-3.5858154296875
10.129999900000001,-9.830592155456543,-0.8403648138046265,1.8986018896102905,13.092041015625,-5.523681640625,-4.791259765625
10.149999900000001,-9.77791976928711,-0.9959878921508789,1.9536685943603516,14.0838623046875,-4.791259765625,-3.6163330078125
10.1699999,-9.734824180603027,-0.912190854549408,2.161964178085327,11.6729736328125,-5.950927734375,-0.946044921875
10.1899999,-9.651026725769043,-0.8212111592292786,2.3798365592956543,5.767822265625,-1.953125,0.67138671875
10.209999900000001,-9.59596061706543,-0.6344634294509888,2.6168625354766846,-3.6468505859375,3.4332275390625,0.4425048828125
10.229999900000001,-9.531316757202148,-0.44532153010368347,2.8419175148010254,-12.664794921875,11.77978515625,-1.220703125
10.2499999,-9.521739959716797,-0.3878606855869293,2.911349296569824,-18.4173583984375,12.6495361328125,4.9285888671875
10.2699999,-9.591172218322754,-0.4668693244457245,2.717418909072876,-17.88330078125,11.5203857421875,-1.0528564453125
10.2899999,-9.708487510681152,-0.5793967843055725,2.4636335372924805,-9.46044921875,8.4381103515625,-3.3721923828125
10.309999900000001,-9.885659217834473,-0.7134721279144287,2.0470423698425293,1.7852783203125,0.7781982421875,-1.3580322265625
10.3299999,-10.019734382629395,-0.8164227604866028,1.7381904125213623,12.359619140625,-11.8255615234375,-2.5482177734375
10.3499999,-10.110713958740234,-0.8619126081466675,1.5873557329177856,19.256591796875,-16.9830322265625,-6.927490234375
10.3699999,-10.134655952453613,-0.8092401623725891,1.7046716213226318,19.6990966796875,-11.3677978515625,-8.1329345703125
10.389999900000001,-10.089165687561035,-0.646434485912323,2.0398597717285156,14.4195556640625,-6.866455078125,-7.232666015625
10.4099999,-10.079588890075684,-0.545877993106842,2.449268341064453,6.9122314453125,-2.86865234375,-7.7056884765625
10.4299999,-10.014945983886719,-0.33758243918418884,2.8658595085144043,-0.0152587890625,2.1820068359375,-7.598876953125
10.4499999,-9.919178009033203,-0.3280056416988373,3.090914487838745,-3.8604736328125,4.5318603515625,-9.58251953125
10.469999900000001,-9.775525093078613,-0.4429273009300232,3.2178070545196533,-3.997802734375,7.1258544921875,-13.36669921875
10.4899999,-9.502586364746094,-0.6751648783683777,3.1747114658355713,-2.4261474609375,13.092041015625,-11.53564453125
10.5099999,-9.289502143859863,-1.05105459690094,2.980781078338623,-0.640869140625,18.310546875,-7.232666015625
10.5299999,-9.272743225097656,-1.522712230682373,2.0638017654418945,18.341064453125,10.9405517578125,0.1068115234375
10.549999900000001,-9.404424667358398,-1.9033904075622559,1.6280571222305298,43.365478515625,-7.1563720703125,4.058837890625
10.569999900000001,-9.617507934570312,-2.0925323963165283,1.0079588890075684,43.7164306640625,-6.7596435546875,5.2032470703125
10.5899999,-9.816226959228516,-1.9776105880737305,1.2282254695892334,26.641845703125,2.9754638671875,12.0849609375
10.6099999,-9.758766174316406,-1.5729905366897583,1.8794482946395874,4.7760009765625,14.1448974609375,13.9312744140625
10.629999900000001,-9.639056205749512,-1.048660397529602,2.561795711517334,-14.0533447265625,24.35302734375,14.1754150390625
10.649999900000001,-9.512163162231445,-0.5841852426528931,2.978386878967285,-25.848388671875,28.7933349609375,13.73291015625
10.6699999,-9.466673851013184,-0.2992752194404602,3.002328872680664,-30.4718017578125,28.99169921875,14.1143798828125
10.6899999,-9.555258750915527,-0.24181437492370605,2.7293899059295654,-29.72412109375,27.374267578125,14.9688720703125
10.709999900000001,-9.983820915222168,-0.24660277366638184,2.2840683460235596,-25.909423828125,25.3448486328125,15.56396484375
10.729999900000001,-10.539276123046875,-0.3926490843296051,1.7764976024627686,-19.4091796875,23.1475830078125,9.124755859375
10.7499999,-11.226411819458008,-0.45489832758903503,1.3192051649093628,-10.650634765625,9.0789794921875,1.9073486328125
10.7699999,-11.719616889953613,-0.5506663918495178,0.950498104095459,0.518798828125,3.0670166015625,-2.838134765625
10.7899999,-11.81299114227295,-0.6009446382522583,0.7015010714530945,10.7421875,4.058837890625,-3.9215087890625
10.809999900000001,-11.480196952819824,-0.6153098344802856,0.6057330369949341,17.913818359375,1.40380859375,-2.1820068359375
10.8299999,-10.812214851379395,-0.6248866319656372,0.646434485912323,20.721435546875,-5.4473876953125,-0.457763671875
10.8499999,-9.928754806518555,-0.6703764796257019,0.8379706144332886,19.1802978515625,-7.415771484375,2.5787353515625
10.8699999,-9.02135181427002,-0.7541735172271729,1.1468225717544556,13.8092041015625,3.4637451171875,7.7667236328125
10.889999900000001,-8.180987358093262,-0.9050082564353943,1.5298948287963867,4.94384765625,18.2342529296875,12.237548828125
10.9099999,-7.599195957183838,-1.0534487962722778,1.8938134908676147,-5.92041015625,26.3824462890625,14.34326171875
10.9299999,-7.333439826965332,-1.1803414821624756,2.1811177730560303,-16.387939453125,25.7110595703125,12.3138427734375
10.9499999,-7.350199222564697,-1.2713210582733154,2.3295583724975586,-25.3143310546875,21.7742919921875,6.6375732421875
10.969999900000001,-7.558494567871094,-1.3120225667953491,2.3511061668395996,-31.3873291015625,18.4783935546875,1.556396484375
10.9899999,-7.886500358581543,-1.3096283674240112,2.2577321529388428,-33.447265625,18.49365234375,-0.6561279296875
11.0099999,-8.283937454223633,-1.2641384601593018,2.0877439975738525,-32.71484375,18.3258056640625,0.244140625
11.0299999,-8.731653213500977,-1.1827356815338135,1.8794482946395874,-31.768798828125,11.016845703125,5.0048828125
11.049999900000001,-9.239224433898926,-1.0295066833496094,1.6639702320098877,-30.6243896484375,-1.007080078125,11.2762451171875
11.069999900000001,-9.68933391571045,-0.8212111592292786,1.482010841369629,-28.1829833984375,-11.2762451171875,10.6964111328125
11.0899999,-10.02452278137207,-0.5722141861915588,1.3311761617660522,-23.4222412109375,-11.7950439453125,5.157470703125
11.1099999,-10.211270332336426,-0.28730419278144836,1.2282254695892334,-17.8375244140625,-7.8277587890625,3.8909912109375
11.129999900000001,-10.259154319763184,-0.031124621629714966,1.1563993692398071,-13.9007568359375,-5.7830810546875,7.0648193359375
11.149999900000001,-10.230423927307129,0.20111294090747833,1.1228805780410767,-11.932373046875,-7.7972412109375,10.2386474609375
11.1699999,-10.165780067443848,0.3902548849582672,1.1276689767837524,-10.7269287109375,-6.5155029296875,11.16943359375
11.1899999,-10.120290756225586,0.5339069962501526,1.1492167711257935,-9.1552734375,0.6103515625,12.3291015625
11.209999900000001,-10.08198356628418,0.6368576288223267,1.1779472827911377,-8.148193359375,2.716064453125,15.9912109375
11.229999900000001,-10.062829971313477,0.6967126727104187,1.216254472732544,-8.148193359375,0.5340576171875,18.9208984375
11.2499999,-10.074800491333008,0.7206547260284424,1.235408067703247,-8.5601806640625,4.2724609375,19.378662109375
11.2699999,-10.448296546936035,0.7398083209991455,1.2545616626739502,-9.7198486328125,7.01904296875,14.22119140625
11.2899999,-10.706870079040527,0.7637503147125244,1.2258312702178955,-12.02392578125,-1.4801025390625,1.4495849609375
11.309999900000001,-11.061211585998535,0.730231523513794,1.1420341730117798,-11.810302734375,-4.4403076171875,10.6048583984375
11.3299999,-11.097125053405762,0.6751648783683777,1.072602391242981,-9.70458984375,-1.03759765625,12.02392578125
11.3499999,-10.745177268981934,0.5051765441894531,1.0031704902648926,-8.6822509765625,-3.1890869140625,7.0037841796875
11.3699999,-10.33098030090332,0.2825157940387726,1.0055646896362305,-7.87353515625,-4.5318603515625,5.4473876953125
11.389999900000001,-9.907206535339355,0.08619125932455063,1.0630255937576294,-8.30078125,-6.9427490234375,6.3934326171875
11.4099999,-9.718064308166504,-0.004788403399288654,1.2306196689605713,-13.3819580078125,-6.5765380859375,9.6282958984375
11.4299999,-9.648633003234863,0.031124621629714966,1.4532804489135742,-22.4151611328125,-1.3275146484375,10.986328125
11.4499999,-9.646238327026367,0.2298433631658554,1.7334020137786865,-27.3590087890625,4.2724609375,8.4381103515625
11.469999900000001,-9.660603523254395,0.35913026332855225,1.9297266006469727,-25.848388671875,7.415771484375,4.7607421875
11.4899999,-9.646238327026367,0.4812345504760742,2.073378562927246,-23.0712890625,8.72802734375,2.7313232421875
11.5099999,-9.68694019317627,0.47165772318840027,2.0925323963165283,-24.6734619140625,12.2222900390625,3.60107421875
11.5299999,-9.742006301879883,0.38546648621559143,2.030282974243164,-26.611328125,16.1285400390625,2.349853515625
11.549999900000001,-9.828198432922363,0.2298433631658554,1.9536685943603516,-26.0009765625,16.845703125,2.38037109375
11.569999900000001,-9.90241813659668,0.17717093229293823,1.6208745241165161,-27.3895263671875,17.08984375,3.875732421875
11.5899999,-9.99100399017334,0.0933738648891449,1.280897855758667,-26.3519287109375,15.9149169921875,4.3487548828125
11.6099999,-10.077195167541504,0.09816227108240128,0.7182605266571045,-15.625,6.2255859375,4.4097900390625
11.629999900000001,-10.20887565612793,0.09816227108240128,0.29209262132644653,1.007080078125,-6.4239501953125,3.7384033203125
11.649999900000001,-10.24239444732666,0.11252748221158981,0.016759412363171577,13.763427734375,-16.66259765625,2.13623046875
11.6699999,-10.24000072479248,0.12928688526153564,0.019153613597154617,20.7672119140625,-20.8892822265625,-4.94384765625
11.6899999,-10.091560363769531,0.16998831927776337,0.2322375625371933,25.238037109375,-20.4925537109375,-10.4522705078125
11.709999900000001,-9.96945571899414,0.2585737705230713,0.689530074596405,24.2767333984375,-14.09912109375,-7.4462890625
11.729999900000001,-9.825803756713867,0.3447650372982025,1.2186486721038818,15.6707763671875,-10.5438232421875,-2.3345947265625
11.7499999,-9.792284965515137,0.363918662071228,1.6855180263519287,6.591796875,-8.1634521484375,1.5106201171875
11.7699999,-9.734824180603027,0.4381389021873474,2.2146365642547607,1.9378662109375,-3.4637451171875,0.274658203125
11.7899999,-9.682151794433594,0.3447650372982025,2.4899697303771973,-3.9520263671875,1.251220703125,-4.1046142578125
11.809999900000001,-9.533711433410645,0.2968810200691223,2.695871114730835,-11.566162109375,11.8255615234375,-6.53076171875
11.8299999,-9.57441234588623,0.16759411990642548,2.580949544906616,-14.6484375,24.6429443359375,-3.570556640625
11.8499999,-9.605537414550781,0.14365209639072418,2.293645143508911,-13.8397216796875,24.47509765625,1.4190673828125
11.8699999,-9.765948295593262,0.12449848651885986,1.766920804977417,-11.23046875,15.2435302734375,3.570556640625
11.889999900000001,-9.995792388916016,0.1173158809542656,1.2066776752471924,-4.5013427734375,9.33837890625,3.60107421875
11.9099999,-10.06043529510498,0.12689268589019775,0.6967126727104187,4.0130615234375,-0.9002685546875,-4.33349609375
11.9299999,-10.074800491333008,-0.0071826050989329815,0.3758896589279175,11.4898681640625,-6.2255859375,-10.6048583984375
11.9499999,-10.005369186401367,-0.05985504388809204,0.4381389021873474,13.397216796875,-0.1068115234375,-1.6326904296875
11.969999900000001,-9.964667320251465,0.016759412363171577,0.7230489253997803,10.3607177734375,-6.8206787109375,-0.701904296875
11.9899999,-9.998186111450195,0.15083470940589905,1.0965443849563599,7.4615478515625,-7.1563720703125,2.197265625
12.0099999,-9.955090522766113,0.17477671802043915,1.3910311460494995,3.0670166015625,-6.3323974609375,-3.875732421875
12.0299999,-9.821015357971191,0.27054479718208313,1.659181833267212,-0.3509521484375,-1.28173828125,-11.16943359375
12.049999900000001,-9.830592155456543,0.1843535304069519,1.7980455160140991,-1.2054443359375,8.0718994140625,-5.615234375
12.069999900000001,-9.718064308166504,0.05985504388809204,1.8794482946395874,-3.936767578125,10.92529296875,0.335693359375
12.0899999,-9.75397777557373,-0.016759412363171577,1.800439715385437,-8.9874267578125,11.6424560546875,2.5177001953125
12.1099999,-9.876082420349121,-0.10055647045373917,1.625662922859192,-11.5966796875,10.528564453125,5.1116943359375
12.129999900000001,-9.931148529052734,-0.0694318488240242,1.3623007535934448,-9.765625,3.2958984375,6.8359375
12.149999900000001,-9.959878921508789,-0.028730420395731926,1.0295066833496094,-4.6234130859375,0.640869140625,-3.2196044921875
12.1699999,-10.007762908935547,-0.06464344263076782,0.7493851184844971,3.7994384765625,-1.4495849609375,-4.5623779296875
12.1899999,-9.93593692779541,-0.019153613597154617,0.5961562395095825,11.871337890625,-4.486083984375,-1.0833740234375
12.209999900000001,-9.99100399017334,-0.10055647045373917,0.5434837937355042,13.0767822265625,-5.79833984375,-1.190185546875
12.229999900000001,-9.945513725280762,-0.016759412363171577,0.6991068720817566,9.5977783203125,-3.875732421875,2.1514892578125
12.2499999,-9.983820915222168,-0.0071826050989329815,0.849941611289978,5.7373046875,-8.6517333984375,1.1444091796875
12.2699999,-9.988609313964844,0.06224924325942993,1.1180921792984009,3.9520263671875,-6.7901611328125,0.640869140625
12.289999900000002,-9.938331604003906,0.2106897532939911,1.4173674583435059,-2.532958984375,-4.21142578125,2.8076171875
12.309999900000001,-9.940725326538086,0.2513911724090576,1.5969325304031372,-10.80322265625,-4.82177734375,6.256103515625
12.3299999,-9.871294021606445,0.33518823981285095,1.7741034030914307,-13.3056640625,-2.899169921875,-0.6866455078125
12.3499999,-9.725247383117676,0.2849099934101105,1.7860745191574097,-10.6658935546875,0.518798828125,-7.32421875
12.3699999,-9.715670585632324,0.21308395266532898,1.7741034030914307,-8.209228515625,3.6773681640625,-3.387451171875
12.389999900000001,-9.72285270690918,0.10055647045373917,1.5969325304031372,-5.3863525390625,3.7841796875,-2.7313232421875
12.4099999,-9.873687744140625,0.05746084079146385,1.4197616577148438,1.03759765625,1.922607421875,-2.410888671875
12.4299999,-9.983820915222168,-0.07661445438861847,1.2018892765045166,10.2386474609375,-6.561279296875,0.7476806640625
12.4499999,-10.000580787658691,-0.1628057211637497,1.0055646896362305,13.9312744140625,-6.256103515625,-2.5482177734375
12.469999900000001,-10.036493301391602,-0.17956513166427612,0.950498104095459,10.4522705078125,-3.72314453125,3.0670166015625
12.4899999,-9.983820915222168,-0.24420857429504395,0.9552865028381348,5.9967041015625,-7.293701171875,2.685546875
12.5099999,-9.979032516479492,-0.07661445438861847,1.1180921792984009,5.55419921875,-9.33837890625,1.953125
12.5299999,-9.911994934082031,0.08619125932455063,1.2952631711959839,2.9144287109375,-7.0648193359375,2.3193359375
12.549999900000001,-9.876082420349121,0.2346317619085312,1.5083470344543457,-3.3721923828125,-0.213623046875,-0.1220703125
12.569999900000001,-9.77791976928711,0.4572925269603729,1.6855180263519287,-7.3699951171875,-0.8392333984375,0.885009765625
12.5899999,-9.763554573059082,0.47165772318840027,1.824381709098816,-7.7667236328125,-4.974365234375,-0.579833984375
12.6099999,-9.787496566772461,0.3902548849582672,1.8555063009262085,-8.60595703125,-0.2288818359375,-6.7291259765625
12.629999900000001,-9.742006301879883,0.2753331959247589,1.9105730056762695,-10.1776123046875,6.3629150390625,-10.009765625
12.649999900000001,-9.799467086791992,-0.06464344263076782,1.745373010635376,-6.3323974609375,7.232666015625,-0.2288818359375
12.6699999,-9.888052940368652,-0.19153612852096558,1.6160861253738403,0.18310546875,2.3651123046875,2.410888671875
12.6899999,-9.84495735168457,-0.272938996553421,1.4245500564575195,2.3040771484375,0.091552734375,0.6256103515625
12.709999900000001,-9.897629737854004,-0.21787235140800476,1.3072341680526733,0.1983642578125,1.5716552734375,-0.1220703125
12.729999900000001,-9.885659217834473,-0.0071826050989329815,1.2713210582733154,-1.8768310546875,4.486083984375,0.0457763671875
12.7499999,-9.840168952941895,0.16519992053508759,1.2545616626739502,-0.48828125,-0.8087158203125,-4.608154296875
12.7699999,-9.938331604003906,0.16759411990642548,1.3072341680526733,3.90625,-4.2877197265625,-5.0048828125
12.789999900000002,-9.909601211547852,0.19871874153614044,1.3766659498214722,5.706787109375,-3.7994384765625,-3.72314453125
12.809999900000001,-9.895236015319824,0.08619125932455063,1.482010841369629,3.7841796875,-0.030517578125,-1.373291015625
12.8299999,-9.916783332824707,0.002394201699644327,1.6519991159439087,0.335693359375,-4.5928955078125,1.3885498046875
12.8499999,-9.864110946655273,-0.0454898327589035,1.7980455160140991,-4.7454833984375,-1.800537109375,-0.9765625
12.8699999,-9.818621635437012,-0.05985504388809204,1.9033904075622559,-9.82666015625,7.8277587890625,-4.241943359375
12.889999900000001,-9.835380554199219,-0.15801730751991272,1.886630892753601,-9.7198486328125,10.772705078125,0.701904296875
12.9099999,-9.816226959228516,-0.11252748221158981,1.7573440074920654,-3.9215087890625,7.537841796875,1.1444091796875
12.9299999,-9.921571731567383,-0.10055647045373917,1.460463047027588,0.91552734375,1.6937255859375,4.5166015625
12.9499999,-9.962273597717285,-0.15083470940589905,1.1420341730117798,3.7841796875,-1.9683837890625,0.9613037109375
12.969999900000001,-9.971850395202637,-0.05985504388809204,0.9241618514060974,4.5318603515625,-4.0283203125,-5.523681640625
12.9899999,-9.916783332824707,-0.033518824726343155,0.8906430602073669,4.3487548828125,-4.33349609375,-0.3509521484375
13.0099999,-9.890447616577148,0.033518824726343155,1.0558429956436157,1.190185546875,-2.9296875,-1.1749267578125
13.0299999,-9.818621635437012,0.09816227108240128,1.3407529592514038,-3.143310546875,-0.579833984375,0.06103515625
13.049999900000001,-9.816226959228516,0.17956513166427612,1.6424223184585571,-5.4931640625,2.8076171875,0.5950927734375
13.069999900000001,-9.794678688049316,0.09576806426048279,1.8171991109848022,-6.2103271484375,3.936767578125,-0.1983642578125
13.0899999,-9.763554573059082,0.08140286058187485,1.8124107122421265,-8.819580078125,7.50732421875,-0.30517578125
13.1099999,-9.818621635437012,0.011971008032560349,1.699883222579956,-10.31494140625,6.34765625,1.9073486328125
13.129999900000001,-9.90241813659668,-0.10534487664699554,1.4389152526855469,-3.448486328125,0.885009765625,-0.8087158203125
13.149999900000001,-10.002974510192871,-0.1388636976480484,1.1803414821624756,5.5694580078125,-3.692626953125,0.5035400390625
13.1699999,-9.959878921508789,-0.1364694982767105,1.0965443849563599,8.544921875,-5.645751953125,0.1373291015625
13.1899999,-10.053253173828125,-0.10773907601833344,1.0606313943862915,5.37109375,-1.8157958984375,2.8228759765625
13.209999900000001,-9.947908401489258,0.011971008032560349,1.2497732639312744,0.79345703125,-5.1422119140625,1.6937255859375
13.229999900000001,-9.967061996459961,0.08858546614646912,1.4987702369689941,-1.6632080078125,-8.2244873046875,0.4119873046875
13.2499999,-9.804255485534668,0.12210428714752197,1.7190368175506592,-2.8076171875,-6.103515625,-3.173828125
13.2699999,-9.873687744140625,0.038307227194309235,1.8339585065841675,-1.64794921875,3.8299560546875,-3.875732421875
13.289999900000002,-9.718064308166504,-0.026336219161748886,1.8794482946395874,1.739501953125,3.60107421875,-0.6103515625
13.309999900000001,-9.737217903137207,-0.090979665517807,1.7908629179000854,2.899169921875,3.265380859375,2.349853515625
13.3299999,-9.799467086791992,-0.12689268589019775,1.7166426181793213,0.6256103515625,2.2125244140625,0.5035400390625
13.3499999,-9.758766174316406,-0.07661445438861847,1.5945383310317993,-3.6468505859375,3.6773681640625,-3.60107421875
13.3699999,-9.821015357971191,0.002394201699644327,1.5107412338256836,-4.5013427734375,5.6915283203125,-0.1983642578125
13.389999900000001,-9.854534149169922,0.0694318488240242,1.414973258972168,-4.8370361328125,4.3487548828125,-2.38037109375
13.4099999,-9.876082420349121,0.08619125932455063,1.314416766166687,-3.0975341796875,2.685546875,-1.28173828125
13.4299999,-9.90241813659668,0.09816227108240128,1.2306196689605713,1.64794921875,1.6632080078125,-1.1138916015625
13.4499999,-9.888052940368652,0.06464344263076782,1.2497732639312744,7.080078125,-3.72314453125,-2.288818359375
13.469999900000001,-9.885659217834473,-0.031124621629714966,1.2282254695892334,8.1939697265625,-4.486083984375,-4.5166015625
13.4899999,-9.916783332824707,-0.05746084079146385,1.3048399686813354,5.37109375,-3.7841796875,-2.9144287109375
13.5099999,-9.871294021606445,-0.090979665517807,1.4077905416488647,2.2735595703125,-1.4801025390625,-1.8463134765625
13.5299999,-9.926360130310059,-0.181959331035614,1.4700398445129395,-0.4119873046875,-0.5340576171875,-1.3885498046875
13.549999900000001,-9.880870819091797,-0.10534487664699554,1.5682021379470825,-2.105712890625,1.52587890625,-0.4425048828125
13.569999900000001,-9.873687744140625,-0.06464344263076782,1.6328455209732056,-3.2501220703125,-0.91552734375,1.983642578125
13.5899999,-9.921571731567383,-0.047884032130241394,1.6663644313812256,-3.60107421875,-0.2899169921875,-0.0152587890625
13.6099999,-9.907206535339355,0,1.644816517829895,-3.204345703125,0.7781982421875,-1.2054443359375
13.629999900000001,-9.928754806518555,-0.031124621629714966,1.6519991159439087,-2.838134765625,1.556396484375,-0.5950927734375
13.649999900000001,-9.93354320526123,-0.11013327538967133,1.5969325304031372,-4.21142578125,2.25830078125,-0.457763671875
13.6699999,-9.897629737854004,-0.11013327538967133,1.501164436340332,-4.94384765625,3.9215087890625,0.6561279296875
13.6899999,-9.950302124023438,-0.035913024097681046,1.4652514457702637,-4.2877197265625,2.593994140625,1.8768310546875
13.709999900000001,-9.988609313964844,0.014365210197865963,1.41257905960083,-3.0364990234375,-0.0457763671875,-0.335693359375
13.729999900000001,-10.077195167541504,0.23702596127986908,1.4676456451416016,-4.5013427734375,1.6326904296875,-3.5247802734375
13.7499999,-10.105925559997559,0.4189853072166443,1.7046716213226318,-8.2550048828125,5.889892578125,-5.0201416015625
13.7699999,-10.046070098876953,0.4836287498474121,1.9321208000183105,-13.2904052734375,11.749267578125,-9.124755859375
13.789999900000002,-9.916783332824707,0.4884171485900879,2.145204782485962,-16.7236328125,18.1884765625,-9.7198486328125
13.809999900000001,-9.768342971801758,0.2801215946674347,2.1954829692840576,-17.8680419921875,23.62060546875,-6.9122314453125
13.8299999,-9.801861763000488,-0.090979665517807,1.9728221893310547,-13.0615234375,21.1029052734375,0.9613037109375
13.8499999,-9.890447616577148,-0.5506663918495178,1.6089035272598267,0.4425048828125,15.3656005859375,3.0975341796875
13.8699999,-10.180145263671875,-0.9313444495201111,1.1899182796478271,14.2364501953125,8.941650390625,-2.7313232421875
13.889999900000001,-10.527304649353027,-1.2641384601593018,0.8188169598579407,21.8505859375,4.913330078125,3.692626953125
13.9099999,-11.111490249633789,-1.1013327836990356,0.6129156351089478,24.7802734375,3.90625,6.04248046875
13.9299999,-11.705251693725586,-0.828393816947937,0.5626373887062073,29.266357421875,-14.6484375,0.7476806640625
13.9499999,-12.203246116638184,-0.1604115068912506,0.646434485912323,28.50341796875,-41.9158935546875,-7.7667236328125
13.969999900000001,-12.263101577758789,0.40462008118629456,0.8786720037460327,27.64892578125,-29.5867919921875,-22.5677490234375
13.9899999,-11.777078628540039,0.871489405632019,1.1013327836990356,26.91650390625,-2.655029296875,-32.958984375
14.0099999,-10.797849655151367,1.039083480834961,1.3670891523361206,21.4385986328125,6.072998046875,-29.4342041015625
14.0299999,-9.646238327026367,0.9600749015808105,1.501164436340332,10.7574462890625,0.8697509765625,-11.627197265625
14.049999900000001,-8.583212852478027,0.7110779285430908,1.5490485429763794,0.274658203125,1.3427734375,8.0413818359375
14.069999900000001,-7.814674377441406,0.44771572947502136,1.3263877630233765,-6.28662109375,6.9732666015625,17.7001953125
14.0899999,-7.450755596160889,0.028730420395731926,0.790086567401886,1.03759765625,8.2550048828125,17.3492431640625
14.1099999,-7.436390399932861,-0.21787235140800476,0.37828385829925537,22.2930908203125,3.0517578125,12.1612548828125
14.129999900000001,-7.704541206359863,-0.524330198764801,-0.028730420395731926,30.6549072265625,4.150390625,6.7596435546875
14.149999900000001,-8.1139497756958,-0.6919242739677429,0.07900865375995636,23.6663818359375,4.119873046875,3.570556640625
14.1699999,-8.540117263793945,-0.7589619159698486,0.5003881454467773,11.90185546875,2.25830078125,0.79345703125
14.1899999,-8.927978515625,-0.8259995579719543,1.0654197931289673,2.0751953125,5.767822265625,-2.7313232421875
14.209999900000001,-9.308655738830566,-0.9193734526634216,1.5394717454910278,-2.8533935546875,20.32470703125,-6.683349609375
14.229999900000001,-9.667786598205566,-1.0247182846069336,1.8555063009262085,-3.387451171875,27.618408203125,-15.56396484375
14.2499999,-10.074800491333008,-1.0654197931289673,1.9608511924743652,-2.1209716796875,25.0396728515625,-29.2510986328125
14.2699999,-10.41956615447998,-1.1037269830703735,1.8938134908676147,0.7476806640625,17.791748046875,-40.9393310546875
14.289999900000002,-10.65898609161377,-1.0989385843276978,1.7310078144073486,5.340576171875,9.307861328125,-42.0989990234375
14.309999900000001,-10.687716484069824,-1.1252747774124146,1.5155296325683594,10.955810546875,2.6397705078125,-37.78076171875
14.3299999,-10.47702693939209,-1.194706678390503,1.3120225667953491,17.2119140625,-4.119873046875,-32.684326171875
14.3499999,-10.08437728881836,-1.3096283674240112,1.1300631761550903,21.942138671875,-13.4735107421875,-20.6756591796875
14.3699999,-9.579200744628906,-1.4101848602294922,1.0007762908935547,23.1475830078125,-24.9481201171875,-0.579833984375
14.389999900000001,-9.05247688293457,-1.4987702369689941,0.950498104095459,21.91162109375,-31.6162109375,16.9525146484375
14.4099999,-8.681375503540039,-1.4844050407409668,0.9696516990661621,18.5699462890625,-27.03857421875,25.7110595703125
14.4299999,-8.53532886505127,-1.3407529592514038,1.0654197931289673,11.77978515625,-18.1884765625,26.85546875
14.4499999,-8.650250434875488,-1.0965443849563599,1.2042834758758545,3.5400390625,-5.859375,23.4527587890625
14.469999900000001,-9.030928611755371,-0.7805097699165344,1.314416766166687,-4.8980712890625,9.70458984375,20.32470703125
14.4899999,-9.548076629638672,-0.4381389021873474,1.359906554222107,-13.1378173828125,20.5230712890625,16.2353515625
14.5099999,-10.072406768798828,-0.15083470940589905,1.290474772453308,-18.9361572265625,25.0701904296875,10.9710693359375
14.5299999,-10.500968933105469,0.08379705995321274,1.113303780555725,-21.9879150390625,24.4598388671875,10.223388671875
14.549999900000001,-10.733205795288086,0.22266076505184174,0.8810662031173706,-21.3470458984375,21.97265625,12.4359130859375
14.569999900000001,-10.788272857666016,0.2585737705230713,0.646434485912323,-16.5863037109375,20.1263427734375,13.6871337890625
14.5899999,-10.72602367401123,0.2298433631658554,0.4644751250743866,-10.040283203125,13.2598876953125,13.7939453125
14.6099999,-10.563218116760254,0.15322890877723694,0.3878606855869293,-4.3487548828125,0.67138671875,12.1917724609375
14.629999900000001,-10.35252857208252,0.06703764945268631,0.43335050344467163,0.2288818359375,-4.82177734375,10.2386474609375
14.649999900000001,-10.134655952453613,0.011971008032560349,0.5937620401382446,4.39453125,0.0762939453125,9.3231201171875
14.6699999,-9.962273597717285,0,0.8212111592292786,6.89697265625,2.8839111328125,9.429931640625
14.6899999,-9.847352027893066,0.019153613597154617,1.0654197931289673,6.9122314453125,-5.67626953125,12.786865234375
14.709999900000001,-10.108319282531738,0.05746084079146385,1.2832920551300049,4.5013427734375,-18.1427001953125,18.0511474609375
14.729999900000001,-10.287884712219238,0.06464344263076782,1.4173674583435059,1.3275146484375,-19.561767578125,7.50732421875
14.7499999,-10.556035041809082,0.09816227108240128,1.4772224426269531,0.8697509765625,-11.5814208984375,4.669189453125
14.7699999,-10.632649421691895,0.13168109953403473,1.4987702369689941,1.2359619140625,-14.984130859375,13.24462890625
14.789999900000002,-10.429142951965332,0.18914192914962769,1.5155296325683594,-0.885009765625,-14.190673828125,13.24462890625
14.809999900000001,-10.156203269958496,0.26336219906806946,1.5705963373184204,-6.103515625,-8.1329345703125,10.7879638671875
14.8299999,-9.847352027893066,0.3064578175544739,1.6543933153152466,-11.688232421875,-3.84521484375,9.33837890625
14.8499999,-9.63187313079834,0.3280056416988373,1.7310078144073486,-14.8468017578125,1.220703125,6.0577392578125
14.8699999,-9.545681953430176,0.31842881441116333,1.7477672100067139,-15.0604248046875,3.7384033203125,6.195068359375
14.889999900000001,-9.586383819580078,0.31124621629714966,1.6831238269805908,-14.0838623046875,2.2735595703125,7.8277587890625
14.9099999,-9.701305389404297,0.33279404044151306,1.5610195398330688,-13.397216796875,1.2969970703125,7.3089599609375
14.9299999,-9.823410034179688,0.40940847992897034,1.4532804489135742,-13.641357421875,0.7171630859375,6.378173828125
14.9499999,-9.890447616577148,0.524330198764801,1.3910311460494995,-15.7470703125,2.166748046875,3.9215087890625
14.969999900000001,-9.892841339111328,0.6129156351089478,1.3694833517074585,-18.98193359375,4.5623779296875,1.5106201171875
14.9899999,-9.880870819091797,0.6703764796257019,1.37906014919281,-20.355224609375,5.1116943359375,-0.7171630859375
15.0099999,-9.883264541625977,0.6703764796257019,1.4317326545715332,-19.287109375,5.1422119140625,-1.40380859375
15.0299999,-9.871294021606445,0.586579442024231,1.479616641998291,-19.073486328125,7.1563720703125,-1.9378662109375
15.049999900000001,-9.864110946655273,0.4596867263317108,1.4987702369689941,-19.6075439453125,10.0555419921875,-1.52587890625
15.069999900000001,-9.84256362915039,0.31603461503982544,1.4772224426269531,-17.1356201171875,9.9639892578125,-1.6021728515625
15.0899999,-9.821015357971191,0.2106897532939911,1.4508862495422363,-12.8326416015625,8.636474609375,-2.2430419921875
15.1099999,-9.825803756713867,0.15322890877723694,1.3407529592514038,-12.1612548828125,10.498046875,-2.7923583984375
15.129999900000001,-9.825803756713867,0.1604115068912506,1.2210428714752197,-11.5203857421875,11.1846923828125,-3.8604736328125
15.149999900000001,-9.847352027893066,0.19871874153614044,1.0414776802062988,-9.09423828125,7.7972412109375,-4.913330078125
15.1699999,-9.890447616577148,0.2849099934101105,0.7350199222564697,-6.2103271484375,2.5787353515625,-7.354736328125
15.1899999,-9.99339771270752,0.35913026332855225,0.5171475410461426,-2.2125244140625,-3.4332275390625,-10.1318359375
15.209999900000001,-10.122684478759766,0.3878606855869293,0.28730419278144836,4.9285888671875,-10.986328125,-11.383056640625
15.229999900000001,-10.24000072479248,0.33039984107017517,0.2346317619085312,14.16015625,-20.294189453125,-11.2762451171875
15.2499999,-10.194510459899902,0.13407529890537262,0.42856210470199585,20.44677734375,-25.32958984375,-11.7034912109375
15.2699999,-10.141838073730469,-0.12449848651885986,0.6751648783683777,19.683837890625,-21.6827392578125,-10.2081298828125
15.289999900000002,-9.974244117736816,-0.33758243918418884,1.1851298809051514,14.3280029296875,-17.852783203125,-7.1563720703125
15.309999900000001,-9.885659217834473,-0.5123591423034668,1.6855180263519287,6.5155029296875,-11.871337890625,-3.6468505859375
15.3299999,-9.706093788146973,-0.5722141861915588,2.22660756111145,-5.218505859375,-1.495361328125,1.373291015625
15.3499999,-9.634267807006836,-0.524330198764801,2.5115175247192383,-14.8162841796875,9.7808837890625,4.94384765625
15.3699999,-9.533711433410645,-0.3663128614425659,2.5474305152893066,-17.6239013671875,12.87841796875,5.18798828125
15.389999900000001,-9.600749015808105,-0.17238251864910126,2.300827741622925,-16.0064697265625,12.4359130859375,4.8370361328125
15.4099999,-9.730035781860352,0.08619125932455063,1.8291701078414917,-14.70947265625,10.1470947265625,5.8441162109375
15.4299999,-9.928754806518555,0.29209262132644653,1.256955862045288,-10.406494140625,4.547119140625,4.302978515625
15.4499999,-10.074800491333008,0.3902548849582672,0.7876923680305481,-0.9307861328125,-7.0343017578125,-0.9918212890625
15.469999900000001,-10.163386344909668,0.42377370595932007,0.5171475410461426,8.4075927734375,-14.8773193359375,-7.2021484375
15.4899999,-10.158597946166992,0.28730419278144836,0.45010992884635925,12.26806640625,-19.3634033203125,-10.68115234375
15.5099999,-10.02691650390625,0.11971008777618408,0.7350199222564697,12.8936767578125,-16.0980224609375,-13.3056640625
15.5299999,-9.938331604003906,-0.09816227108240128,1.113303780555725,12.603759765625,-9.857177734375,-8.8653564453125
15.549999900000001,-9.813833236694336,-0.26575639843940735,1.5514427423477173,9.4146728515625,-5.67626953125,-4.7454833984375
15.569999900000001,-9.77791976928711,-0.3758896589279175,1.8986018896102905,4.69970703125,-0.640869140625,-0.701904296875
15.5899999,-9.816226959228516,-0.40222588181495667,2.0614075660705566,1.3580322265625,-0.9765625,4.1046142578125
15.6099999,-9.849745750427246,-0.3519476354122162,2.0446481704711914,1.1444091796875,-4.5013427734375,6.622314453125
15.629999900000001,-9.856928825378418,-0.24181437492370605,1.941697597503662,2.0599365234375,-8.1939697265625,6.8511962890625
15.649999900000001,-9.890447616577148,-0.09576806426048279,1.7980455160140991,0.2593994140625,-8.7127685546875,-0.1220703125
15.6699999,-9.806650161743164,0.0694318488240242,1.7070658206939697,0.091552734375,1.1138916015625,-4.669189453125
15.6899999,-9.787496566772461,0.047884032130241394,1.7405846118927002,2.166748046875,3.173828125,0.0152587890625
15.709999900000001,-9.818621635437012,-0.028730420395731926,1.7573440074920654,-0.1068115234375,2.8533935546875,1.9073486328125
15.729999900000001,-9.828198432922363,-0.0694318488240242,1.7381904125213623,-4.1351318359375,1.8768310546875,4.150390625
15.7499999,-9.852140426635742,-0.05506663769483566,1.7286136150360107,-4.547119140625,0.2288818359375,6.805419921875
15.7699999,-9.871294021606445,0.05027823522686958,1.6639702320098877,-1.708984375,-3.662109375,3.9825439453125
15.789999900000002,-9.861717224121094,0.028730420395731926,1.6065093278884888,0.3204345703125,-6.7596435546875,-4.57763671875
15.809999900000001,-9.923966407775879,0.028730420395731926,1.5322890281677246,3.47900390625,-3.387451171875,-7.32421875
15.8299999,-9.852140426635742,-0.05267243832349777,1.5658079385757446,7.5531005859375,-1.0986328125,-2.6702880859375
15.8499999,-9.847352027893066,-0.11013327538967133,1.5610195398330688,7.75146484375,1.739501953125,0.3814697265625
15.869999900000002,-9.797073364257812,-0.05746084079146385,1.6711528301239014,3.47900390625,1.2664794921875,1.9683837890625
15.889999900000001,-9.785101890563965,-0.016759412363171577,1.7501614093780518,-1.52587890625,0.91552734375,1.0833740234375
15.9099999,-9.797073364257812,0.15322890877723694,1.8171991109848022,-3.570556640625,-1.77001953125,2.5177001953125
15.9299999,-9.837775230407715,0.14365209639072418,1.8555063009262085,-3.875732421875,-1.983642578125,-0.091552734375
15.9499999,-9.801861763000488,0.14604631066322327,1.8794482946395874,-3.2958984375,-2.2430419921875,-4.6844482421875
15.969999900000001,-9.823410034179688,0.004788403399288654,1.8339585065841675,-0.6256103515625,-1.0528564453125,-7.1258544921875
15.9899999,-9.830592155456543,-0.15801730751991272,1.8148049116134644,3.7078857421875,2.532958984375,-2.4566650390625
16.0099999,-9.813833236694336,-0.27054479718208313,1.7860745191574097,4.3487548828125,2.01416015625,0.9765625
16.0299999,-9.86650562286377,-0.2561795711517334,1.778891921043396,-0.42724609375,2.044677734375,2.288818359375
16.0499999,-9.897629737854004,-0.1388636976480484,1.7764976024627686,-6.53076171875,4.7607421875,3.143310546875
16.0699999,-9.911994934082031,0.08140286058187485,1.8171991109848022,-10.9100341796875,5.279541015625,0.91552734375
16.089999900000002,-9.981427192687988,0.2801215946674347,1.8555063009262085,-11.199951171875,1.9989013671875,1.556396484375
16.109999900000002,-10.005369186401367,0.4118026793003082,1.946485996246338,-9.09423828125,3.8604736328125,-5.4168701171875
16.1299999,-9.95748519897461,0.38067805767059326,2.078166961669922,-3.84521484375,8.85009765625,-12.5885009765625
16.1499999,-9.93593692779541,0.2825157940387726,2.166752576828003,3.6163330078125,14.1448974609375,-12.5579833984375
16.1699999,-9.818621635437012,-0.004788403399288654,2.2002713680267334,6.8817138671875,15.4876708984375,-7.232666015625
16.1899999,-9.763554573059082,-0.2322375625371933,1.9536685943603516,6.011962890625,19.7906494140625,-6.16455078125
16.2099999,-9.911994934082031,-0.6177040338516235,0.9816226959228516,14.801025390625,16.11328125,1.6632080078125
16.2299999,-10.031704902648926,-0.7709329724311829,0.3495534360408783,37.65869140625,-4.1656494140625,11.199951171875
16.249999900000002,-10.390835762023926,-0.768538773059845,-0.395043283700943,42.6483154296875,-12.7716064453125,13.9007568359375
16.269999900000002,-10.706870079040527,-0.43335050344467163,-0.26815059781074524,28.9459228515625,-7.50732421875,8.514404296875
16.2899999,-10.946290016174316,0.13168109953403473,0.42616790533065796,11.0321044921875,1.77001953125,-4.5623779296875
16.3099999,-10.972626686096191,0.7254431247711182,1.2282254695892334,-2.25830078125,12.420654296875,-16.5557861328125
16.3299999,-10.682928085327148,1.1540051698684692,1.7860745191574097,-9.9029541015625,18.00537109375,-18.1121826171875
16.3499999,-10.105925559997559,1.3431471586227417,1.9584569931030273,-12.1917724609375,18.402099609375,-7.049560546875
16.3699999,-9.390059471130371,1.3263877630233765,1.7836803197860718,-11.383056640625,16.0980224609375,9.82666015625
16.3899999,-8.729259490966797,1.1683704853057861,1.4053963422775269,-9.857177734375,12.5274658203125,23.49853515625
16.4099999,-8.274360656738281,0.9576807022094727,0.9768342971801758,-7.781982421875,8.3465576171875,28.289794921875
16.429999900000002,-8.085219383239746,0.730231523513794,0.6368576288223267,-4.4403076171875,3.0059814453125,26.9927978515625
16.4499999,-8.17141056060791,0.5291185975074768,0.45250412821769714,-1.6632080078125,2.2125244140625,26.18408203125
16.4699999,-8.446743965148926,0.33279404044151306,0.43335050344467163,0.701904296875,6.2408447265625,25.7720947265625
16.4899999,-8.868123054504395,0.16998831927776337,0.545877993106842,4.08935546875,8.9263916015625,25.0701904296875
16.5099999,-9.342175483703613,0.023942016065120697,0.730231523513794,7.3089599609375,4.2266845703125,24.5208740234375
16.5299999,-9.821015357971191,-0.090979665517807,0.9409212470054626,8.6517333984375,-5.8441162109375,23.4832763671875
16.5499999,-10.187328338623047,-0.17477671802043915,1.1659762859344482,10.040283203125,-10.467529296875,16.8304443359375
16.5699999,-10.398017883300781,-0.24181437492370605,1.3623007535934448,13.153076171875,-5.8441162109375,6.683349609375
16.589999900000002,-10.47702693939209,-0.2753331959247589,1.5179238319396973,14.8162841796875,-3.326416015625,1.6632080078125
16.609999900000002,-10.706870079040527,-0.363918662071228,1.6208745241165161,12.8631591796875,-6.40869140625,-5.1727294921875
16.6299999,-10.680533409118652,-0.3974374830722809,1.644816517829895,9.5977783203125,-8.11767578125,-27.7099609375
16.6499999,-10.678139686584473,-0.4572925269603729,1.6615760326385498,9.8876953125,-11.9781494140625,-25.421142578125
16.6699999,-10.45547866821289,-0.395043283700943,1.6352397203445435,10.92529296875,-11.0931396484375,-6.6986083984375
16.6899999,-10.034099578857422,-0.24181437492370605,1.601720929145813,10.3759765625,-3.2806396484375,-1.2359619140625
16.7099999,-9.6989107131958,0.019153613597154617,1.5849615335464478,8.148193359375,-1.7242431640625,-1.8157958984375
16.7299999,-9.461885452270508,0.3423708379268646,1.558625340461731,4.058837890625,-0.244140625,-3.6163330078125
16.749999900000002,-9.406818389892578,0.6512228846549988,1.5203180313110352,-1.7242431640625,1.5716552734375,-5.462646484375
16.769999900000002,-9.445125579833984,0.8643068075180054,1.479616641998291,-6.2103271484375,2.716064453125,-7.2021484375
16.7899999,-9.591172218322754,0.9457096457481384,1.4652514457702637,-9.5062255859375,2.50244140625,-8.9263916015625
16.8099999,-9.75637149810791,0.8978256583213806,1.434126853942871,-11.8865966796875,3.570556640625,-8.9111328125
16.8299999,-9.90241813659668,0.7422025203704834,1.3958195447921753,-10.986328125,3.753662109375,-9.490966796875
16.8499999,-9.943120002746582,0.5530605912208557,1.4508862495422363,-8.60595703125,2.01416015625,-8.697509765625
16.8699999,-9.959878921508789,0.38546648621559143,1.4532804489135742,-13.00048828125,3.814697265625,-7.5225830078125
16.8899999,-9.928754806518555,0.2561795711517334,1.4772224426269531,-18.00537109375,6.4849853515625,-5.645751953125
16.9099999,-10.005369186401367,0.14844051003456116,1.3096283674240112,-15.9912109375,3.4332275390625,-6.1798095703125
16.929999900000002,-10.093954086303711,0.019153613597154617,1.1276689767837524,-10.8489990234375,-2.2125244140625,-5.5084228515625
16.9499999,-10.146626472473145,-0.11971008777618408,0.9361328482627869,-4.119873046875,-8.209228515625,-4.3487548828125
16.9699999,-10.235212326049805,-0.272938996553421,0.7086837291717529,6.134033203125,-14.0228271484375,-5.3863525390625
16.9899999,-10.163386344909668,-0.3208230137825012,0.6991068720817566,15.80810546875,-18.6920166015625,-4.82177734375
17.0099999,-10.098742485046387,-0.24181437492370605,0.7589619159698486,18.1121826171875,-21.1029052734375,-4.2724609375
17.0299999,-10.04846477508545,-0.0933738648891449,0.9002198576927185,16.29638671875,-19.6990966796875,-3.692626953125
17.0499999,-9.928754806518555,0.181959331035614,1.1803414821624756,13.6260986328125,-19.378662109375,-2.86865234375
17.0699999,-9.945513725280762,0.3232172429561615,1.5705963373184204,10.284423828125,-17.6239013671875,-0.579833984375
17.089999900000002,-9.849745750427246,0.47405192255973816,1.9512743949890137,4.45556640625,-18.707275390625,-3.11279296875
17.109999900000002,-9.787496566772461,0.4572925269603729,2.31758713722229,-0.091552734375,-13.8397216796875,-7.049560546875
17.1299999,-9.710882186889648,0.31364041566848755,2.583343744277954,-0.54931640625,-5.096435546875,-9.0789794921875
17.1499999,-9.564835548400879,0.18914192914962769,2.7676970958709717,-0.8087158203125,3.47900390625,-7.6141357421875
17.1699999,-9.576807022094727,0.06464344263076782,2.8586769104003906,-7.2021484375,10.2996826171875,-3.23486328125
17.1899999,-9.521739959716797,0.038307227194309235,2.760514497756958,-15.228271484375,15.228271484375,0.274658203125
17.2099999,-9.648633003234863,0.10534487664699554,2.5498247146606445,-17.51708984375,15.716552734375,3.9215087890625
17.2299999,-9.763554573059082,0.16759411990642548,2.1739351749420166,-15.045166015625,7.7362060546875,-2.5177001953125
17.249999900000002,-9.9000244140625,0.05746084079146385,1.656787633895874,-7.01904296875,0.4425048828125,-8.7738037109375
17.269999900000002,-10.067618370056152,-0.05985504388809204,1.192312479019165,4.94384765625,-0.1983642578125,-8.0413818359375
17.2899999,-10.098742485046387,-0.24899697303771973,0.871489405632019,15.6097412109375,-4.3792724609375,-4.5928955078125
17.3099999,-10.050858497619629,-0.3519476354122162,0.790086567401886,20.32470703125,-11.53564453125,-2.9296875
17.3299999,-10.02452278137207,-0.2801215946674347,0.9289502501487732,18.6309814453125,-11.5509033203125,0.823974609375
17.3499999,-9.897629737854004,-0.12210428714752197,1.3096283674240112,12.75634765625,-14.190673828125,2.4566650390625
17.3699999,-9.856928825378418,-0.004788403399288654,1.7357962131500244,6.4849853515625,-13.5650634765625,-6.134033203125
17.3899999,-9.68694019317627,0.16519992053508759,2.207453966140747,1.3580322265625,-4.7149658203125,-9.8114013671875
17.409999900000003,-9.552865028381348,0.12210428714752197,2.5258827209472656,-5.035400390625,6.561279296875,-4.913330078125
17.429999900000002,-9.461885452270508,0.11013327538967133,2.719813108444214,-12.420654296875,12.7105712890625,-1.8768310546875
17.4499999,-9.373299598693848,0.05267243832349777,2.652775526046753,-16.8914794921875,13.5040283203125,-0.06103515625
17.4699999,-9.624691009521484,-0.08619125932455063,2.33913516998291,-13.7481689453125,6.103515625,6.805419921875
17.4899999,-9.78989028930664,-0.1364694982767105,1.9752163887023926,-7.232666015625,-1.190185546875,-0.579833984375
17.5099999,-10.029311180114746,-0.33518823981285095,1.4628572463989258,1.7547607421875,-4.2572021484375,-6.77490234375
17.5299999,-10.189722061157227,-0.35434186458587646,1.1540051698684692,12.8631591796875,-8.0413818359375,-1.2359619140625
17.5499999,-10.086771965026855,-0.42377370595932007,1.091755986213684,17.3187255859375,-11.7034912109375,2.99072265625
17.5699999,-10.019734382629395,-0.2537853717803955,1.2066776752471924,11.3067626953125,-7.6751708984375,1.3580322265625
17.589999900000002,-9.856928825378418,-0.09816227108240128,1.5753847360610962,2.2735595703125,-7.2174072265625,4.425048828125
17.609999900000002,-9.801861763000488,0.08140286058187485,1.968033790588379,-3.5400390625,-8.2550048828125,3.90625
17.6299999,-9.651026725769043,0.24660277366638184,2.346317768096924,-5.2490234375,-3.265380859375,-3.3111572265625
17.6499999,-9.682151794433594,0.15322890877723694,2.513911724090576,-5.37109375,1.7242431640625,-4.4708251953125
17.6699999,-9.59835433959961,0.10773907601833344,2.557007312774658,-3.0517578125,2.044677734375,-1.312255859375
17.6899999,-9.624691009521484,-0.12928688526153564,2.4181437492370605,0.274658203125,3.5552978515625,-1.6937255859375
17.7099999,-9.643844604492188,-0.20111294090747833,2.27209734916687,0.579833984375,3.4942626953125,2.4566650390625
17.7299999,-9.706093788146973,-0.24420857429504395,2.073378562927246,-1.434326171875,4.5166015625,0.3662109375
17.749999900000002,-9.742006301879883,-0.2059013396501541,1.9608511924743652,-1.5411376953125,2.685546875,-0.54931640625
17.769999900000002,-9.797073364257812,-0.021547814831137657,1.9129672050476074,-1.1749267578125,3.2806396484375,-0.244140625
17.7899999,-9.8784761428833,0.009576806798577309,1.8100165128707886,-2.25830078125,4.1961669921875,-0.030517578125
17.8099999,-9.909601211547852,0.14604631066322327,1.8124107122421265,-4.0435791015625,3.8909912109375,-0.213623046875
17.8299999,-9.947908401489258,0.16519992053508759,1.7764976024627686,-3.631591796875,0.244140625,-1.922607421875
17.8499999,-10.113107681274414,0.12449848651885986,1.745373010635376,0.06103515625,-7.049560546875,1.5716552734375
17.8699999,-10.261548042297363,0.2322375625371933,1.7405846118927002,2.6397705078125,-8.2244873046875,-4.2724609375
17.8899999,-10.647014617919922,0.23702596127986908,1.8052281141281128,4.1656494140625,-4.9896240234375,-7.0037841796875
17.909999900000003,-10.972626686096191,0.33279404044151306,1.9249382019042969,5.4473876953125,-6.5765380859375,-8.1787109375
17.929999900000002,-10.92953109741211,0.38067805767059326,2.1332337856292725,5.0201416015625,-9.552001953125,-19.53125
17.9499999,-10.771512985229492,0.2537853717803955,2.315192937850952,5.9814453125,-5.79833984375,-15.533447265625
17.9699999,-9.947908401489258,0.033518824726343155,2.4899697303771973,8.11767578125,4.94384765625,-12.451171875
17.9899999,-9.378087997436523,-0.3758896589279175,2.650381326675415,10.68115234375,14.22119140625,1.40380859375
18.0099999,-8.973467826843262,-0.8379706144332886,2.2194249629974365,15.7318115234375,5.37109375,17.4560546875
18.0299999,-9.141061782836914,-1.1324573755264282,2.0925323963165283,37.41455078125,8.514404296875,20.3094482421875
18.0499999,-9.80904483795166,-1.1755530834197998,1.644816517829895,45.684814453125,4.4403076171875,16.0369873046875
18.0699999,-10.54406452178955,-0.8547300100326538,1.656787633895874,29.9835205078125,-5.9661865234375,5.18798828125
18.089999900000002,-11.063606262207031,-0.35913026332855225,1.9105730056762695,7.232666015625,-5.1727294921875,-8.72802734375
18.109999900000002,-11.037269592285156,0.05985504388809204,2.1978771686553955,-9.6588134765625,7.7056884765625,-20.3094482421875
18.1299999,-10.405200958251953,0.2106897532939911,2.360682964324951,-19.04296875,20.3704833984375,-23.9715576171875
18.1499999,-9.428366661071777,0.05985504388809204,2.2625205516815186,-24.7650146484375,31.8603515625,-15.8843994140625
18.1699999,-8.38688850402832,-0.2968810200691223,1.9776105880737305,-27.5726318359375,33.0963134765625,-2.6092529296875
18.1899999,-7.637503623962402,-0.6871358752250671,1.5945383310317993,-27.4200439453125,24.3682861328125,6.2408447265625
18.2099999,-7.297526836395264,-0.9600749015808105,1.2234370708465576,-25.81787109375,12.786865234375,5.9967041015625
18.2299999,-7.352593421936035,-1.0965443849563599,0.9576807022094727,-22.5067138671875,6.072998046875,1.7547607421875
18.249999900000002,-7.7213006019592285,-1.0749965906143188,0.8355764150619507,-17.6544189453125,6.77490234375,0.06103515625
18.269999900000002,-8.288725852966309,-0.9409212470054626,0.8427590131759644,-12.3443603515625,12.847900390625,-2.2125244140625
18.2899999,-8.971074104309082,-0.7422025203704834,0.9576807022094727,-8.2550048828125,17.7001953125,-4.8675537109375
18.3099999,-9.679757118225098,-0.4836287498474121,1.1228805780410767,-7.7667236328125,14.6636962890625,-4.5928955078125
18.3299999,-10.27591323852539,-0.22505496442317963,1.278503656387329,-8.148193359375,9.70458984375,-4.8370361328125
18.3499999,-10.627861022949219,-0.011971008032560349,1.3886369466781616,-4.8980712890625,9.7198486328125,-6.40869140625
18.3699999,-10.740388870239258,0.12928688526153564,1.4317326545715332,0.6561279296875,12.1917724609375,-3.7689208984375
18.3899999,-10.594342231750488,0.20350714027881622,1.4245500564575195,4.21142578125,5.157470703125,2.74658203125
18.409999900000003,-10.211270332336426,0.2082955539226532,1.436521053314209,5.767822265625,-6.2713623046875,9.1400146484375
18.429999900000002,-10.096348762512207,0.21787235140800476,1.4652514457702637,6.500244140625,-4.791259765625,18.5089111328125
18.4499999,-10.022128105163574,0.11971008777618408,1.4700398445129395,5.2490234375,-5.2032470703125,12.908935546875
18.4699999,-10.244789123535156,0.07422025501728058,1.45806884765625,2.9449462890625,-2.227783203125,2.8076171875
18.4899999,-10.536881446838379,-0.0454898327589035,1.3527239561080933,-0.8544921875,-6.0882568359375,13.1072998046875
18.5099999,-10.553641319274902,-0.1388636976480484,1.2090718746185303,-4.547119140625,-9.3536376953125,16.17431640625
18.5299999,-10.400412559509277,-0.2059013396501541,1.094150185585022,-6.8817138671875,-10.2081298828125,16.05224609375
18.5499999,-10.014945983886719,-0.2082955539226532,1.0869675874710083,-8.1939697265625,-10.80322265625,16.448974609375
18.5699999,-9.708487510681152,-0.1604115068912506,1.216254472732544,-8.7890625,-9.9029541015625,14.7552490234375
18.589999900000002,-9.531316757202148,-0.05027823522686958,1.3982137441635132,-9.1705322265625,-7.354736328125,13.7939453125
18.609999900000002,-9.533711433410645,0.10534487664699554,1.6376339197158813,-9.124755859375,-6.16455078125,12.39013671875
18.6299999,-9.627084732055664,0.31124621629714966,1.8794482946395874,-14.190673828125,-4.7454833984375,12.02392578125
18.6499999,-9.763554573059082,0.45489832758903503,1.9919757843017578,-25.7720947265625,0.3509521484375,9.124755859375
18.6699999,-9.78989028930664,0.6320692300796509,2.0877439975738525,-30.33447265625,1.77001953125,5.8746337890625
18.6899999,-9.96945571899414,0.6272808313369751,1.8195933103561401,-29.6630859375,1.5411376953125,3.6468505859375
18.7099999,-9.976638793945312,0.5626373887062073,1.5658079385757446,-24.566650390625,-0.7171630859375,3.8299560546875
18.7299999,-10.108319282531738,0.3878606855869293,1.1635819673538208,-14.1143798828125,-2.899169921875,2.8228759765625
18.749999900000002,-10.163386344909668,0.14844051003456116,0.8882488012313843,-1.3275146484375,-6.8206787109375,6.744384765625
18.769999900000002,-10.199298858642578,-0.002394201699644327,0.811634361743927,9.8114013671875,-13.3514404296875,10.7421875
18.7899999,-10.254365921020508,-0.0933738648891449,0.8978256583213806,16.204833984375,-24.4140625,10.2691650390625
18.8099999,-10.070012092590332,0.028730420395731926,1.1635819673538208,16.265869140625,-25.4974365234375,2.50244140625
18.8299999,-9.9000244140625,0.272938996553421,1.5705963373184204,11.9171142578125,-15.350341796875,-1.739501953125
18.8499999,-9.62947940826416,0.5434837937355042,1.9991583824157715,6.4239501953125,-7.568359375,-1.220703125
18.8699999,-9.442731857299805,0.8379706144332886,2.3247697353363037,0.3814697265625,-3.47900390625,-0.30517578125
18.8899999,-9.531316757202148,0.9696516990661621,2.612074136734009,-4.57763671875,-5.31005859375,-1.068115234375
18.909999900000003,-9.552865028381348,1.0223240852355957,2.762908697128296,-8.4991455078125,-6.134033203125,-7.9193115234375
18.929999900000002,-9.634267807006836,0.9481038451194763,2.849100112915039,-8.270263671875,7.049560546875,-14.34326171875
18.9499999,-9.634267807006836,0.7469909191131592,2.75812029838562,-3.7384033203125,13.97705078125,-13.4124755859375
18.9699999,-9.586383819580078,0.5554547905921936,2.5689783096313477,-1.220703125,14.4500732421875,-11.1236572265625
18.9899999,-9.727641105651855,0.35434186458587646,2.205059766769409,0.42724609375,9.70458984375,-7.4310302734375
19.0099999,-9.86889934539795,0.0933738648891449,1.8339585065841675,1.922607421875,-1.251220703125,-10.2386474609375
19.0299999,-9.979032516479492,-0.17238251864910126,1.4987702369689941,5.8135986328125,-0.7171630859375,-14.3890380859375
19.0499999,-10.08198356628418,-0.43335050344467163,1.235408067703247,11.3372802734375,-1.3275146484375,-4.0435791015625
19.0699999,-9.979032516479492,-0.5171475410461426,1.1109095811843872,14.0228271484375,-5.4931640625,-4.82177734375
19.089999900000002,-9.9000244140625,-0.4381389021873474,1.170764684677124,14.22119140625,-6.866455078125,-4.669189453125
19.109999900000002,-9.847352027893066,-0.22505496442317963,1.3120225667953491,12.115478515625,-5.3253173828125,-2.288818359375
19.1299999,-9.852140426635742,0.05746084079146385,1.6519991159439087,6.6070556640625,-8.697509765625,2.593994140625
19.1499999,-9.885659217834473,0.22744916379451752,2.032677173614502,-2.2735595703125,-11.993408203125,-0.2899169921875
19.1699999,-9.821015357971191,0.3016694188117981,2.2888567447662354,-8.2550048828125,-4.7149658203125,-9.857177734375
19.1899999,-9.804255485534668,0.18914192914962769,2.4372973442077637,-5.523681640625,1.739501953125,-4.9896240234375
19.2099999,-9.66539192199707,-0.05506663769483566,2.4372973442077637,-3.143310546875,0.48828125,1.8463134765625
19.2299999,-9.600749015808105,-0.23702596127986908,2.367865562438965,-7.99560546875,5.5389404296875,3.3721923828125
19.249999900000002,-9.600749015808105,-0.2561795711517334,2.183511972427368,-12.908935546875,8.9263916015625,4.8675537109375
19.269999900000002,-9.617507934570312,-0.1628057211637497,2.0470423698425293,-10.6048583984375,2.2735595703125,3.4027099609375
19.2899999,-9.775525093078613,-0.0071826050989329815,1.7621324062347412,-3.7078857421875,-3.41796875,-0.48828125
19.3099999,-9.828198432922363,0.14604631066322327,1.5394717454910278,1.77001953125,-4.791259765625,-0.244140625
19.3299999,-10.070012092590332,0.17956513166427612,1.3862427473068237,6.8359375,-11.90185546875,3.23486328125
19.3499999,-10.070012092590332,0.24420857429504395,1.4772224426269531,9.58251953125,-20.538330078125,-3.5858154296875
19.3699999,-9.861717224121094,0.1412578970193863,1.8770540952682495,12.481689453125,-13.18359375,-5.55419921875
19.3899999,-9.639056205749512,0.038307227194309235,2.1954829692840576,11.566162109375,-8.8043212890625,-4.180908203125
19.409999900000003,-9.57201862335205,-0.019153613597154617,2.4899697303771973,3.8604736328125,-7.4310302734375,-1.312255859375
19.429999900000002,-9.5624418258667,-0.10055647045373917,2.6815059185028076,-5.5389404296875,-1.007080078125,0.9613037109375
19.4499999,-9.59596061706543,-0.090979665517807,2.827552318572998,-11.444091796875,0.1068115234375,2.6092529296875
19.4699999,-9.643844604492188,-0.08379705995321274,2.7748796939849854,-10.986328125,2.471923828125,2.74658203125
19.4899999,-9.691728591918945,-0.05027823522686958,2.736572504043579,-11.1236572265625,5.0811767578125,1.03759765625
19.5099999,-9.674968719482422,0.031124621629714966,2.4875755310058594,-12.237548828125,4.57763671875,3.35693359375
19.5299999,-9.75637149810791,0.07182604819536209,2.300827741622925,-9.2926025390625,0.2593994140625,3.509521484375
19.5499999,-9.837775230407715,-0.011971008032560349,2.0374655723571777,-3.90625,-8.3465576171875,3.326416015625
19.5699999,-9.919178009033203,-0.05506663769483566,1.8555063009262085,2.593994140625,-12.02392578125,-1.15966796875
19.589999900000002,-9.950302124023438,-0.16519992053508759,1.7884687185287476,10.009765625,-9.613037109375,-7.0037841796875
19.609999900000002,-9.93354320526123,-0.181959331035614,1.8770540952682495,15.167236328125,-12.4359130859375,0.2899169921875
19.6299999,-9.727641105651855,-0.15322890877723694,2.0901381969451904,10.5743408203125,-5.462646484375,2.8228759765625
19.6499999,-9.651026725769043,0.004788403399288654,2.403778553009033,-2.593994140625,0.8697509765625,5.2337646484375
19.6699999,-9.526528358459473,0.19153612852096558,2.7054479122161865,-12.8021240234375,0.06103515625,1.64794921875
19.6899999,-9.533711433410645,0.304063618183136,2.875436305999756,-14.068603515625,3.11279296875,-0.4730224609375
19.7099999,-9.524134635925293,0.3471592366695404,2.8874073028564453,-10.9405517578125,2.13623046875,0.701904296875
19.7299999,-9.641449928283691,0.2825157940387726,2.7700912952423096,-5.4473876953125,-5.67626953125,0.30517578125
19.749999900000002,-9.560047149658203,0.14844051003456116,2.6791117191314697,0.5950927734375,-2.62451171875,-8.8348388671875
19.769999900000002,-9.674968719482422,-0.06224924325942993,2.52109432220459,4.974365234375,1.434326171875,-5.889892578125
19.7899999,-9.569623947143555,-0.19632454216480255,2.4827871322631836,6.988525390625,1.5869140625,-2.716064453125
19.8099999,-9.531316757202148,-0.24660277366638184,2.4660277366638184,4.7149658203125,4.3792724609375,-1.7852783203125
19.8299999,-9.497797966003418,-0.1628057211637497,2.5067291259765625,-0.030517578125,7.62939453125,-2.7923583984375
19.8499999,-9.545681953430176,-0.10534487664699554,2.631227731704712,-6.378173828125,10.0555419921875,-1.3427734375
19.8699999,-9.57201862335205,0.0454898327589035,2.6431987285614014,-11.9476318359375,11.2762451171875,-1.190185546875
19.8899999,-9.691728591918945,0.07900865375995636,2.628833532333374,-12.7410888671875,13.1072998046875,-1.6632080078125
19.909999900000003,-9.648633003234863,0.05506663769483566,2.449268341064453,-9.21630859375,10.25390625,-1.556396484375
19.929999900000002,-9.734824180603027,0.06703764945268631,2.250549554824829,-5.9051513671875,9.3994140625,2.3193359375
19.9499999,-9.696516990661621,0.014365210197865963,2.1164743900299072,-6.011962890625,5.9051513671875,-1.40380859375
19.9699999,-9.837775230407715,-0.0694318488240242,2.0422539710998535,-5.8135986328125,0.4425048828125,-1.708984375
19.9899999,-9.813833236694336,-0.24899697303771973,1.9967641830444336,-0.7476806640625,2.1820068359375,-3.9520263671875
20.0099999,-9.923966407775879,-0.3280056416988373,1.946485996246338,6.5765380859375,3.082275390625,0.732421875
20.0299999,-9.794678688049316,-0.4429273009300232,1.9752163887023926,6.561279296875,0.762939453125,1.251220703125
20.0499999,-9.660603523254395,-0.3423708379268646,1.965639591217041,0.6866455078125,1.8310546875,-4.6844482421875
20.0699999,-9.622296333312988,-0.31124621629714966,2.011129379272461,-1.708984375,2.410888671875,0.54931640625
