# Time (seconds),Accel_X,Accel_Y,Accel_Z,Gyro_X,Gyro_Y,Gyro_Z
0.0099999,-9.86650562286377,0.8451532125473022,0.4908113479614258,-5.859375,-4.730224609375,-1.77001953125
0.029999900000000003,-9.794678688049316,0.8044517636299133,0.5434837937355042,-6.2408447265625,-4.150390625,-2.777099609375
0.0499999,-9.734824180603027,0.7469909191131592,0.6057330369949341,-7.110595703125,-3.41796875,-3.326416015625
0.0699999,-9.713275909423828,0.6871358752250671,0.6775590777397156,-8.148193359375,-2.532958984375,-3.4332275390625
0.08999990000000001,-9.746794700622559,0.6536170840263367,0.7350199222564697,-9.765625,-1.1444091796875,-3.35693359375
0.10999990000000001,-9.785101890563965,0.6248866319656372,0.7589619159698486,-12.1612548828125,-0.1068115234375,-3.875732421875
0.1299999,-9.835380554199219,0.6129156351089478,0.7613561153411865,-14.7552490234375,0.213623046875,-4.21142578125
0.14999990000000002,-9.888052940368652,0.5722141861915588,0.7541735172271729,-17.425537109375,0.7476806640625,-3.631591796875
0.1699999,-9.928754806518555,0.5003881454467773,0.7541735172271729,-19.7296142578125,2.1514892578125,-2.25830078125
0.1899999,-9.964667320251465,0.3998316824436188,0.7637503147125244,-20.2178955078125,3.5247802734375,-0.5645751953125
0.20999990000000002,-9.983820915222168,0.2992752194404602,0.7637503147125244,-18.8140869140625,3.96728515625,0.8697509765625
0.2299999,-9.967061996459961,0.22266076505184174,0.7326257228851318,-16.1590576171875,3.5858154296875,1.5716552734375
0.2499999,-9.926360130310059,0.19393034279346466,0.6751648783683777,-12.26806640625,3.021240234375,1.64794921875
0.2699999,-9.904812812805176,0.22026655077934265,0.5985504388809204,-7.6446533203125,2.0294189453125,1.3427734375
0.28999990000000003,-9.923966407775879,0.2992752194404602,0.5123591423034668,-3.1890869140625,0.2899169921875,0.48828125
0.3099999,-10.007762908935547,0.40701428055763245,0.4357447028160095,0.579833984375,-1.89208984375,-0.8697509765625
0.3299999,-10.11550235748291,0.507570743560791,0.3734954595565796,3.0364990234375,-3.7841796875,-1.8463134765625
0.34999990000000003,-10.213664054870605,0.5746083855628967,0.33758243918418884,3.997802734375,-5.218505859375,-2.227783203125
0.3699999,-10.271124839782715,0.5937620401382446,0.3256114423274994,4.6844482421875,-7.3394775390625,-2.105712890625
0.3899999,-10.266336441040039,0.5793967843055725,0.3519476354122162,5.7220458984375,-9.4146728515625,-2.3651123046875
0.40999990000000003,-10.211270332336426,0.5386953949928284,0.3998316824436188,6.378173828125,-10.498046875,-2.777099609375
0.4299999,-10.103530883789062,0.4644751250743866,0.4692635238170624,7.049560546875,-11.474609375,-2.471923828125
0.4499999,-9.976638793945312,0.3758896589279175,0.5530605912208557,7.843017578125,-12.481689453125,-1.2359619140625
0.4699999,-9.847352027893066,0.2849099934101105,0.6320692300796509,8.6517333984375,-13.1683349609375,-0.0152587890625
0.4899999,-9.758766174316406,0.2059013396501541,0.7134721279144287,9.7503662109375,-13.6260986328125,0.6103515625
0.5099999,-9.732429504394531,0.16519992053508759,0.7948749661445618,10.528564453125,-13.885498046875,1.6937255859375
0.5299999,-9.780313491821289,0.17238251864910126,0.8882488012313843,10.7574462890625,-13.85498046875,3.3416748046875
0.5499999,-9.880870819091797,0.22266076505184174,0.9792284965515137,10.2081298828125,-13.5040283203125,4.57763671875
0.5699999,-10.000580787658691,0.31842881441116333,1.0582371950149536,9.33837890625,-13.00048828125,4.8980712890625
0.5899998999999999,-10.08437728881836,0.42377370595932007,1.1324573755264282,8.4991455078125,-12.6800537109375,5.0811767578125
0.6099998999999999,-10.101137161254883,0.5386953949928284,1.194706678390503,7.4462890625,-12.0391845703125,5.2642822265625
0.6299999,-10.038887977600098,0.6320692300796509,1.237802267074585,6.8206787109375,-11.322021484375,4.7454833984375
0.6499999,-9.926360130310059,0.706289529800415,1.2737152576446533,6.7596435546875,-11.016845703125,3.448486328125
0.6699999,-9.797073364257812,0.7589619159698486,1.314416766166687,6.28662109375,-10.650634765625,2.410888671875
0.6899999,-9.701305389404297,0.8092401623725891,1.3982137441635132,4.3487548828125,-9.2315673828125,1.7547607421875
0.7099999,-9.66299819946289,0.8451532125473022,1.5179238319396973,0.0762939453125,-5.950927734375,0.9918212890625
0.7299998999999999,-9.718064308166504,0.8786720037460327,1.6615760326385498,-4.5013427734375,-2.166748046875,0.0457763671875
0.7499998999999999,-9.871294021606445,0.8834604024887085,1.766920804977417,-8.0413818359375,0.640869140625,-0.5645751953125
0.7699999,-10.110713958740234,0.8547300100326538,1.7812861204147339,-10.345458984375,1.708984375,0.030517578125
0.7899999,-10.38844108581543,0.7733271718025208,1.6759412288665771,-9.46044921875,0.885009765625,1.15966796875
0.8099999,-10.620678901672363,0.646434485912323,1.5059528350830078,-3.35693359375,-1.3885498046875,1.9683837890625
0.8299999,-10.721235275268555,0.4884171485900879,1.3215993642807007,4.2724609375,-4.39453125,3.4332275390625
0.8499998999999999,-10.627861022949219,0.33039984107017517,1.1779472827911377,10.040283203125,-6.77490234375,5.7220458984375
0.8699998999999999,-10.326191902160645,0.19871874153614044,1.1348515748977661,14.95361328125,-8.11767578125,7.4310302734375
0.8899999,-9.883264541625977,0.1388636976480484,1.213860273361206,17.730712890625,-7.4920654296875,8.5906982421875
0.9099999,-9.404424667358398,0.1843535304069519,1.3982137441635132,15.3350830078125,-4.119873046875,9.8876953125
0.9299999,-9.040505409240723,0.33518823981285095,1.659181833267212,8.48388671875,1.4801025390625,10.9405517578125
0.9499999,-8.932766914367676,0.5386953949928284,1.9512743949890137,0.0457763671875,6.988525390625,9.7808837890625
0.9699998999999999,-9.066842079162598,0.7206547260284424,2.2002713680267334,-8.880615234375,8.941650390625,2.7923583984375
0.9899998999999999,-9.411606788635254,0.8020575642585754,2.3487119674682617,-16.357421875,8.72802734375,-6.6070556640625
1.0099999,-9.804255485534668,0.7110779285430908,2.389413356781006,-18.8446044921875,7.965087890625,-14.95361328125
1.0299999,-10.067618370056152,0.4836287498474121,2.3080103397369385,-16.9525146484375,6.3934326171875,-21.7132568359375
1.0499999,-10.170568466186523,0.15801730751991272,2.1475989818573,-12.5274658203125,4.33349609375,-24.932861328125
1.0699999,-10.101137161254883,-0.17717093229293823,1.9369091987609863,-6.439208984375,-2.593994140625,-25.9857177734375
1.0899999,-9.909601211547852,-0.45489832758903503,1.7405846118927002,0.6866455078125,-11.29150390625,-26.5350341796875
1.1099999,-9.636661529541016,-0.5985504388809204,1.5849615335464478,5.889892578125,-12.054443359375,-23.0560302734375
1.1299999,-9.519346237182617,-0.5554547905921936,1.4724340438842773,6.805419921875,-2.3956298828125,-10.2081298828125
1.1499999,-9.461885452270508,-0.29209262132644653,1.3910311460494995,4.608154296875,5.279541015625,2.38037109375
1.1699998999999999,-9.567230224609375,0.1412578970193863,1.3000515699386597,1.4801025390625,11.322021484375,11.627197265625
1.1899998999999999,-9.749189376831055,0.6775590777397156,1.173158884048462,-3.5400390625,16.1285400390625,19.5770263671875
1.2099999,-9.897629737854004,1.237802267074585,0.9816226959228516,-8.6212158203125,18.37158203125,23.7579345703125
1.2299999,-9.95748519897461,1.6879122257232666,0.751779317855835,-10.5743408203125,16.8914794921875,20.751953125
1.2499999,-9.9000244140625,1.9991583824157715,0.5386953949928284,-10.772705078125,13.61083984375,13.5040283203125
1.2699999,-9.799467086791992,2.1068975925445557,0.38067805767059326,-11.627197265625,11.5966796875,7.7056884765625
1.2899999,-9.684545516967773,2.0207061767578125,0.33039984107017517,-11.77978515625,8.4381103515625,2.13623046875
1.3099999,-9.660603523254395,1.7764976024627686,0.3878606855869293,-10.711669921875,5.0201416015625,-1.64794921875
1.3299999,-9.72285270690918,1.4269442558288574,0.49320554733276367,-10.4827880859375,2.50244140625,-3.0670166015625
1.3499999,-9.9000244140625,0.7469909191131592,0.727837324142456,-7.99560546875,-1.8768310546875,-3.7689208984375
1.3699999,-9.93354320526123,0.47644615173339844,0.8355764150619507,-6.561279296875,-3.1280517578125,-3.387451171875
1.3899999,-9.931148529052734,0.28969839215278625,0.912190854549408,-6.4544677734375,-3.60107421875,-0.9765625
1.4099999,-9.952696800231934,0.18914192914962769,0.9911994934082031,-4.3487548828125,-5.401611328125,0.9765625
1.4299998999999999,-9.99339771270752,0.17956513166427612,1.0606313943862915,-2.3040771484375,-7.049560546875,1.953125
1.4499999,-10.022128105163574,0.20111294090747833,1.0749965906143188,-2.50244140625,-7.049560546875,3.1585693359375
1.4699999,-10.036493301391602,0.2585737705230713,1.094150185585022,-0.6561279296875,-8.4228515625,4.33349609375
1.4899999,-10.014945983886719,0.3711012601852417,1.1851298809051514,2.3193359375,-10.1776123046875,4.6234130859375
1.5099999,-9.947908401489258,0.5171475410461426,1.292868971824646,-0.6103515625,-7.598876953125,4.33349609375
1.5299999,-9.871294021606445,0.7206547260284424,1.400607943534851,-7.7972412109375,-3.9520263671875,3.387451171875
1.5499999,-9.801861763000488,0.9457096457481384,1.5179238319396973,-12.5732421875,-3.7841796875,1.2359619140625
1.5699999,-9.761159896850586,1.1563993692398071,1.5945383310317993,-15.6707763671875,-3.2958984375,-2.410888671875
1.5899999,-9.746794700622559,1.3048399686813354,1.6065093278884888,-19.2413330078125,0.091552734375,-6.927490234375
1.6099999,-9.751583099365234,1.3838485479354858,1.522712230682373,-20.111083984375,0.6866455078125,-11.8865966796875
1.6299999,-9.780313491821289,1.3239935636520386,1.3886369466781616,-14.7247314453125,-3.6773681640625,-15.8843994140625
1.6499999,-9.84256362915039,1.113303780555725,1.2018892765045166,-6.7596435546875,-8.0718994140625,-17.425537109375
1.6699999,-9.928754806518555,0.7637503147125244,0.9983820915222168,-0.9613037109375,-10.68115234375,-16.3116455078125
1.6899998999999999,-9.983820915222168,0.4118026793003082,0.9026140570640564,3.3111572265625,-14.6331787109375,-14.2974853515625
1.7099999,-9.840168952941895,0.11252748221158981,0.9959878921508789,5.4473876953125,-18.5089111328125,-12.63427734375
1.7299999,-9.780313491821289,-0.043095629662275314,1.2066776752471924,3.6468505859375,-15.289306640625,-13.3056640625
1.7499999,-9.62947940826416,-0.11252748221158981,1.5059528350830078,2.6702880859375,-11.016845703125,-12.2833251953125
1.7699999,-9.651026725769043,-0.11013327538967133,1.7860745191574097,3.8604736328125,-10.5743408203125,-8.7738037109375
1.7899999,-9.737217903137207,-0.09816227108240128,2.006340980529785,4.913330078125,-10.68115234375,-5.7525634765625
1.8099999,-9.77791976928711,-0.1388636976480484,2.1116859912872314,4.302978515625,-7.50732421875,-4.2877197265625
1.8299999,-9.78989028930664,-0.1412578970193863,2.1787235736846924,3.265380859375,-3.0364990234375,-2.7618408203125
1.8499999,-9.78989028930664,-0.14365209639072418,2.205059766769409,3.2196044921875,-1.3427734375,-0.4730224609375
1.8699999,-9.758766174316406,-0.043095629662275314,2.1595699787139893,5.950927734375,-2.3345947265625,0.2288818359375
1.8899999,-9.751583099365234,0.07422025501728058,2.169146776199341,7.32421875,-1.1138916015625,-1.007080078125
1.9099999,-9.679757118225098,0.21547815203666687,2.1811177730560303,1.8768310546875,3.7689208984375,-1.52587890625
1.9299998999999999,-9.639056205749512,0.28969839215278625,2.2601263523101807,-6.0577392578125,7.354736328125,-0.2593994140625
1.9499999,-9.586383819580078,0.2753331959247589,2.274491548538208,-9.735107421875,8.5906982421875,-0.152587890625
1.9699999,-9.615114212036133,0.16998831927776337,2.1595699787139893,-8.148193359375,10.8489990234375,-0.7171630859375
1.9899999,-9.66539192199707,0.009576806798577309,1.9057846069335938,-1.0833740234375,8.544921875,-0.518798828125
2.0099999,-9.744400978088379,-0.07422025501728058,1.6711528301239014,7.4462890625,3.875732421875,0.091552734375
2.0299999,-9.837775230407715,-0.1173158809542656,1.5203180313110352,8.941650390625,4.5013427734375,0.9002685546875
2.0499999,-9.883264541625977,-0.10295066982507706,1.4269442558288574,5.2642822265625,7.5531005859375,1.6326904296875
2.0699999,-9.921571731567383,-0.040701430290937424,1.4221558570861816,3.8604736328125,6.8817138671875,2.3193359375
2.0899999,-9.928754806518555,0.033518824726343155,1.400607943534851,3.6773681640625,3.173828125,3.9215087890625
2.1099999,-9.909601211547852,0.15801730751991272,1.3670891523361206,0.396728515625,2.8533935546875,4.21142578125
2.1299999,-9.861717224121094,0.3280056416988373,1.3048399686813354,-2.9754638671875,3.1585693359375,2.105712890625
2.1499999,-9.847352027893066,0.49799394607543945,1.2425906658172607,-0.274658203125,-1.373291015625,-0.732421875
2.1699999,-9.830592155456543,0.5650315880775452,1.1803414821624756,5.2490234375,-6.4239501953125,-2.4566650390625
2.1899999,-9.9000244140625,0.49559974670410156,1.1300631761550903,6.7901611328125,-8.97216796875,-1.7852783203125
2.2099999,-9.971850395202637,0.33039984107017517,1.1540051698684692,7.3394775390625,-11.2152099609375,0.2288818359375
2.2299999,-9.986215591430664,0.15083470940589905,1.3048399686813354,10.7574462890625,-16.17431640625,1.739501953125
2.2499999,-9.947908401489258,0.026336219161748886,1.5682021379470825,12.3443603515625,-17.3797607421875,1.983642578125
2.2699999,-9.840168952941895,0,1.900996208190918,7.904052734375,-11.077880859375,2.2125244140625
2.2899999,-9.75397777557373,0.05267243832349777,2.2002713680267334,0.579833984375,-4.5166015625,1.800537109375
2.3099999,-9.641449928283691,0.19393034279346466,2.4612393379211426,-6.40869140625,-0.1373291015625,1.2664794921875
2.3299999,-9.612719535827637,0.3208230137825012,2.5450363159179688,-14.251708984375,6.103515625,0.823974609375
2.3499999,-9.59835433959961,0.45010992884635925,2.5043349266052246,-17.8985595703125,11.016845703125,0.3509521484375
2.3699999,-9.624691009521484,0.5291185975074768,2.296039342880249,-14.9078369140625,9.8114013671875,-0.1373291015625
2.3899999,-9.703699111938477,0.5339069962501526,1.9704279899597168,-8.4686279296875,5.523681640625,-1.220703125
2.4099999,-9.797073364257812,0.545877993106842,1.5969325304031372,-0.8087158203125,1.8463134765625,-3.173828125
2.4299999,-9.856928825378418,0.48602294921875,1.3024457693099976,8.0413818359375,-1.190185546875,-5.828857421875
2.4499999,-10.000580787658691,0.3687070608139038,1.1013327836990356,17.8985595703125,-6.7291259765625,-6.7901611328125
2.4699999,-10.022128105163574,0.20350714027881622,1.1109095811843872,24.6429443359375,-13.9312744140625,-4.5318603515625
2.4899999,-10.062829971313477,-0.047884032130241394,1.2090718746185303,22.9034423828125,-16.9677734375,-0.9613037109375
2.5099999,-9.99339771270752,-0.19153612852096558,1.5059528350830078,14.34326171875,-13.9617919921875,1.953125
2.5299999,-9.854534149169922,-0.23942017555236816,1.8579005002975464,4.57763671875,-9.765625,3.5858154296875
2.5499999,-9.725247383117676,-0.1149216815829277,2.2816741466522217,-4.119873046875,-3.875732421875,4.21142578125
2.5699999,-9.62947940826416,0.05985504388809204,2.559401512145996,-11.3525390625,4.3487548828125,4.1351318359375
2.5899999,-9.600749015808105,0.3280056416988373,2.693476915359497,-14.6331787109375,9.1705322265625,3.90625
2.6099999,-9.670180320739746,0.45489832758903503,2.564189910888672,-13.0767822265625,8.453369140625,3.4332275390625
2.6299999,-9.751583099365234,0.569819986820221,2.276885747909546,-9.4451904296875,4.791259765625,3.3111572265625
2.6499999,-9.792284965515137,0.5913678407669067,1.9081788063049316,-5.096435546875,1.03759765625,1.312255859375
2.6699999,-9.880870819091797,0.5003881454467773,1.577778935432434,0.5035400390625,-3.1890869140625,-1.3427734375
2.6899999,-9.852140426635742,0.4596867263317108,1.403002142906189,6.2255859375,-5.6915283203125,-1.64794921875
2.7099999,-9.852140426635742,0.3902548849582672,1.4389152526855469,9.246826171875,-6.8359375,0.2593994140625
2.7299999,-9.864110946655273,0.31842881441116333,1.6400281190872192,8.9874267578125,-7.3394775390625,0.1678466796875
2.7499999,-9.77791976928711,0.31842881441116333,1.9393033981323242,7.476806640625,-7.415771484375,-2.1820068359375
2.7699999,-9.730035781860352,0.31842881441116333,2.296039342880249,4.8675537109375,-3.8909912109375,-3.6468505859375
2.7899999,-9.684545516967773,0.28969839215278625,2.52109432220459,-0.6866455078125,2.166748046875,-3.9825439453125
2.8099999,-9.605537414550781,0.2992752194404602,2.6839001178741455,-6.77490234375,9.2926025390625,-3.5400390625
2.8299999,-9.66299819946289,0.22026655077934265,2.609679937362671,-9.5062255859375,12.6190185546875,-0.79345703125
2.8499999,-9.691728591918945,0.17956513166427612,2.3942017555236816,-8.1939697265625,11.9171142578125,1.6632080078125
2.8699999,-9.737217903137207,0.15083470940589905,2.03507137298584,-4.9896240234375,7.781982421875,2.197265625
2.8899999,-9.837775230407715,0.17238251864910126,1.6184803247451782,-0.244140625,3.173828125,0.7781982421875
2.9099999,-9.888052940368652,0.2059013396501541,1.357512354850769,6.0882568359375,-1.89208984375,-1.4495849609375
2.9299999,-9.943120002746582,0.3208230137825012,1.1635819673538208,11.505126953125,-4.7149658203125,-2.532958984375
2.9499999,-9.995792388916016,0.3495534360408783,1.2641384601593018,13.9007568359375,-6.561279296875,-2.1514892578125
2.9699999,-9.967061996459961,0.40462008118629456,1.4676456451416016,14.16015625,-7.965087890625,-0.6561279296875
2.9899999,-9.945513725280762,0.3734954595565796,1.7525556087493896,12.51220703125,-9.765625,-1.495361328125
3.0099999,-9.864110946655273,0.304063618183136,2.032677173614502,11.1236572265625,-8.4381103515625,-2.410888671875
3.0299999,-9.78989028930664,0.24181437492370605,2.1978771686553955,10.650634765625,-6.8206787109375,-2.960205078125
3.0499999,-9.677363395690918,0.08619125932455063,2.2026655673980713,17.7459716796875,-7.0343017578125,-2.685546875
3.0699999,-9.569623947143555,0.08379705995321274,2.231395959854126,29.8004150390625,-9.796142578125,-1.190185546875
3.0899999,-9.495404243469238,0.11252748221158981,2.27209734916687,26.3824462890625,-5.9967041015625,-0.8697509765625
3.1099999,-9.47146224975586,0.29209262132644653,2.4468741416931152,9.3536376953125,1.9989013671875,-1.1138916015625
3.1299999,-9.509769439697266,0.5410895943641663,2.693476915359497,-10.1776123046875,10.345458984375,-1.007080078125
3.1499999,-9.593565940856934,0.730231523513794,2.875436305999756,-21.8353271484375,16.937255859375,-1.3580322265625
3.1699999,-9.672574996948242,0.7661445140838623,2.8850131034851074,-22.2930908203125,19.83642578125,-1.9683837890625
3.1899999,-9.730035781860352,0.6607996821403503,2.6647465229034424,-15.838623046875,19.1497802734375,-2.2430419921875
3.2099999,-9.787496566772461,0.47884035110473633,2.2864625453948975,-7.32421875,15.472412109375,-2.655029296875
3.2299999,-9.837775230407715,0.31842881441116333,1.8195933103561401,0.3662109375,10.7574462890625,-3.6163330078125
3.2499999,-9.888052940368652,0.22266076505184174,1.3718775510787964,5.6915283203125,5.645751953125,-5.2490234375
3.2699999,-9.940725326538086,0.15322890877723694,1.0342950820922852,9.21630859375,-0.4730224609375,-6.4544677734375
3.2899999,-9.95748519897461,0.07182604819536209,0.871489405632019,10.55908203125,-5.7525634765625,-5.462646484375
3.3099999,-9.95748519897461,-0.035913024097681046,0.8930372595787048,11.8560791015625,-8.697509765625,-1.708984375
3.3299999000000002,-9.914389610290527,-0.1628057211637497,1.1061211824417114,13.97705078125,-9.7198486328125,1.2054443359375
3.3499999,-9.856928825378418,-0.24181437492370605,1.4269442558288574,14.46533203125,-9.4451904296875,3.7078857421875
3.3699999,-9.780313491821289,-0.2346317619085312,1.7717092037200928,12.2222900390625,-8.056640625,6.3018798828125
3.3899999,-9.713275909423828,-0.12928688526153564,2.073378562927246,7.720947265625,-5.67626953125,8.056640625
3.4099999,-9.66539192199707,0.05267243832349777,2.2816741466522217,1.3275146484375,-2.99072265625,8.514404296875
3.4299999,-9.636661529541016,0.28969839215278625,2.38462495803833,-5.9051513671875,-0.732421875,8.4991455078125
3.4499999,-9.619902610778809,0.5099649429321289,2.367865562438965,-12.2222900390625,0.6866455078125,7.904052734375
3.4699999,-9.617507934570312,0.6727706789970398,2.2673089504241943,-15.5487060546875,1.0528564453125,6.378173828125
3.4899999,-9.641449928283691,0.7613561153411865,2.1068975925445557,-15.228271484375,0.1983642578125,4.45556640625
3.5099999,-9.68933391571045,0.7613561153411865,1.941697597503662,-11.5203857421875,-1.5716552734375,2.6702880859375
3.5299999,-9.75397777557373,0.6823474764823914,1.8052281141281128,-5.6915283203125,-3.9825439453125,1.52587890625
3.5499999,-9.80904483795166,0.5410895943641663,1.7094600200653076,0.5645751953125,-6.500244140625,1.2664794921875
3.5699999,-9.859322547912598,0.43095630407333374,1.702277421951294,5.9967041015625,-8.8043212890625,1.4801025390625
3.5899999,-9.825803756713867,0.3663128614425659,1.8100165128707886,8.2550048828125,-9.2620849609375,0.640869140625
3.6099999,-9.715670585632324,0.3902548849582672,1.9847931861877441,7.9498291015625,-6.4849853515625,-1.2969970703125
3.6299999,-9.57201862335205,0.47644615173339844,2.2194249629974365,8.8348388671875,-3.4027099609375,-3.5552978515625
3.6499999,-9.47146224975586,0.5937620401382446,2.473210334777832,7.598876953125,-0.5950927734375,-4.8675537109375
3.6699999,-9.425971984863281,0.6512228846549988,2.604891538619995,0.0762939453125,3.6468505859375,-4.5928955078125
3.6899999,-9.481039047241211,0.6847416758537292,2.6216509342193604,-7.7972412109375,6.40869140625,-3.47900390625
3.7099999,-9.557653427124023,0.6991068720817566,2.5713725090026855,-9.9029541015625,5.92041015625,-4.119873046875
3.7299999,-9.603142738342285,0.6392518281936646,2.3965959548950195,-10.528564453125,6.561279296875,-6.2713623046875
3.7499999,-9.658209800720215,0.6272808313369751,2.3367409706115723,-12.2222900390625,7.01904296875,-7.01904296875
3.7699999,-9.646238327026367,0.5722141861915588,2.3798365592956543,-25.57373046875,11.6424560546875,-6.04248046875
3.7899999,-9.634267807006836,0.5578489899635315,2.4588451385498047,-42.3736572265625,20.4315185546875,-3.9825439453125
3.8099999,-9.691728591918945,0.38307225704193115,2.432508945465088,-45.1202392578125,26.0772705078125,-2.62451171875
3.8299999000000002,-9.768342971801758,0.17956513166427612,2.231395959854126,-33.782958984375,21.728515625,-0.885009765625
3.8499999,-9.919178009033203,-0.20111294090747833,1.7477672100067139,-18.00537109375,11.3067626953125,1.373291015625
3.8699999,-10.062829971313477,-0.3998316824436188,1.1851298809051514,-2.9144287109375,0.4119873046875,3.4332275390625
3.8899999,-10.17296314239502,-0.48602294921875,0.6584054827690125,15.3045654296875,-11.1083984375,3.7078857421875
3.9099999,-10.285490036010742,-0.2992752194404602,0.3926490843296051,31.829833984375,-27.28271484375,1.9378662109375
3.9299999,-10.244789123535156,0.043095629662275314,0.5578489899635315,33.5235595703125,-32.9437255859375,-5.645751953125
3.9499999,-10.091560363769531,0.4596867263317108,1.1563993692398071,19.561767578125,-23.86474609375,-11.1083984375
3.9699999,-9.797073364257812,0.751779317855835,1.9728221893310547,0.732421875,-7.568359375,-11.2762451171875
3.9899999,-9.454702377319336,0.9145850539207458,2.784456491470337,-11.8865966796875,3.7689208984375,-10.5743408203125
4.0099999,-9.246406555175781,0.9552865028381348,3.332728862762451,-17.3187255859375,9.2315673828125,-10.7269287109375
4.029999900000001,-9.301473617553711,0.7326257228851318,3.533841609954834,-22.186279296875,15.80810546875,-7.6141357421875
4.0499999,-9.497797966003418,0.40940847992897034,3.4308910369873047,-23.4832763671875,15.380859375,-3.3416748046875
4.069999900000001,-9.713275909423828,0.011971008032560349,2.978386878967285,-17.578125,10.7421875,-5.8441162109375
4.0899999000000005,-9.785101890563965,-0.3974374830722809,2.3104045391082764,-6.9732666015625,8.7890625,-9.1552734375
4.1099999,-9.828198432922363,-0.6823474764823914,1.6184803247451782,5.0506591796875,7.0037841796875,-5.9661865234375
4.1299999000000005,-9.80904483795166,-0.7781155705451965,0.9864110946655273,13.916015625,-0.7476806640625,-2.0904541015625
4.1499999,-9.904812812805176,-0.7015010714530945,0.5937620401382446,19.8211669921875,-8.1329345703125,-0.885009765625
4.1699999000000005,-10.04846477508545,-0.45250412821769714,0.7134721279144287,21.1639404296875,-15.106201171875,1.40380859375
4.1899999,-10.093954086303711,-0.16759411990642548,0.9600749015808105,16.876220703125,-20.44677734375,2.7923583984375
4.209999900000001,-9.988609313964844,0.07900865375995636,1.5849615335464478,11.383056640625,-18.2952880859375,-5.5084228515625
4.2299999,-9.768342971801758,0.2561795711517334,2.183511972427368,7.2021484375,-11.29150390625,-10.162353515625
4.249999900000001,-9.583989143371582,0.29209262132644653,2.7293899059295654,0.6561279296875,-1.2054443359375,-7.6904296875
4.2699999,-9.423578262329102,0.3495534360408783,3.047818660736084,-9.033203125,6.622314453125,-4.8065185546875
4.289999900000001,-9.404424667358398,0.33518823981285095,3.1675288677215576,-17.120361328125,13.1988525390625,-4.8370361328125
4.3099999,-9.47146224975586,0.31603461503982544,3.0382418632507324,-19.6075439453125,10.5438232421875,-3.60107421875
4.329999900000001,-9.600749015808105,0.13168109953403473,2.671929121017456,-15.3656005859375,3.2196044921875,-1.708984375
4.3499999,-9.787496566772461,-0.18914192914962769,2.207453966140747,-5.4168701171875,-0.396728515625,-6.500244140625
4.369999900000001,-9.8784761428833,-0.5937620401382446,1.7286136150360107,6.8359375,-2.9754638671875,-5.92041015625
4.3899999,-9.988609313964844,-0.8643068075180054,1.4173674583435059,16.2200927734375,-6.3629150390625,1.8463134765625
4.409999900000001,-9.914389610290527,-0.8690952062606812,1.278503656387329,17.7154541015625,-7.62939453125,5.1116943359375
4.4299999,-9.911994934082031,-0.6392518281936646,1.4939818382263184,11.5509033203125,-6.5460205078125,4.45556640625
4.449999900000001,-9.818621635437012,-0.19871874153614044,1.8579005002975464,-0.30517578125,-7.659912109375,4.2572021484375
4.4699999,-9.782708168029785,0.09576806426048279,2.3080103397369385,-13.824462890625,-5.950927734375,3.387451171875
4.489999900000001,-9.691728591918945,0.21787235140800476,2.6384103298187256,-17.913818359375,0.5645751953125,-2.2735595703125
4.5099999,-9.57441234588623,0.07661445438861847,2.676717519760132,-11.0931396484375,3.5858154296875,-4.9591064453125
4.529999900000001,-9.528923034667969,-0.09816227108240128,2.585737943649292,-2.6092529296875,3.3416748046875,0.7476806640625
4.5499999,-9.490615844726562,-0.1867477297782898,2.3367409706115723,-1.495361328125,4.57763671875,2.960205078125
4.569999900000001,-9.569623947143555,-0.19632454216480255,2.140416383743286,-4.364013671875,4.608154296875,2.8076171875
4.5899999000000005,-9.701305389404297,-0.05506663769483566,2.0398597717285156,-4.8370361328125,-1.7852783203125,1.6021728515625
4.609999900000001,-9.813833236694336,0.014365210197865963,1.9919757843017578,-2.6397705078125,-6.3323974609375,-0.9918212890625
4.6299999000000005,-9.849745750427246,-0.038307227194309235,1.9560627937316895,4.4708251953125,-4.0740966796875,-7.50732421875
4.6499999,-9.847352027893066,-0.11971008777618408,2.0614075660705566,13.0615234375,-1.5106201171875,-7.99560546875
4.6699999000000005,-9.718064308166504,-0.21787235140800476,2.1571757793426514,13.763427734375,-0.3662109375,-2.227783203125
4.6899999,-9.6989107131958,-0.17717093229293823,2.3080103397369385,3.875732421875,4.0435791015625,2.044677734375
4.709999900000001,-9.619902610778809,-0.11971008777618408,2.5115175247192383,-8.1939697265625,7.476806640625,2.3193359375
4.7299999,-9.684545516967773,0.06224924325942993,2.5953147411346436,-14.2974853515625,3.9520263671875,1.8463134765625
4.749999900000001,-9.725247383117676,0.06464344263076782,2.5977089405059814,-15.594482421875,1.434326171875,0.274658203125
4.7699999,-9.765948295593262,-0.021547814831137657,2.4205379486083984,-9.94873046875,3.4637451171875,-3.84521484375
4.789999900000001,-9.813833236694336,-0.21547815203666687,2.1116859912872314,0.2899169921875,2.99072265625,-2.716064453125
4.8099999,-9.813833236694336,-0.42377370595932007,1.8483237028121948,8.1329345703125,-1.068115234375,1.556396484375
4.829999900000001,-9.828198432922363,-0.4644751250743866,1.6974890232086182,10.3607177734375,-4.241943359375,6.378173828125
4.8499999,-9.821015357971191,-0.4118026793003082,1.5825673341751099,9.09423828125,-7.6751708984375,5.2032470703125
4.869999900000001,-9.84256362915039,-0.26336219906806946,1.778891921043396,9.46044921875,-14.2822265625,3.7078857421875
4.8899999,-9.78989028930664,-0.13407529890537262,1.9728221893310547,5.5999755859375,-15.7928466796875,2.4261474609375
4.909999900000001,-9.682151794433594,-0.05506663769483566,2.2625205516815186,0.5035400390625,-8.2550048828125,-2.38037109375
4.9299999,-9.57201862335205,-0.033518824726343155,2.583343744277954,-0.5950927734375,0.6103515625,-2.5177001953125
4.949999900000001,-9.461885452270508,0.014365210197865963,2.8107926845550537,-5.0506591796875,6.34765625,0.762939453125
4.9699999,-9.47146224975586,0.07900865375995636,2.9759926795959473,-14.1754150390625,10.589599609375,5.279541015625
4.989999900000001,-9.53849983215332,0.09816227108240128,2.8993782997131348,-19.3023681640625,11.871337890625,4.852294921875
5.0099999,-9.627084732055664,0.12689268589019775,2.7557260990142822,-15.533447265625,6.7138671875,3.082275390625
5.029999900000001,-9.68933391571045,-0.002394201699644327,2.4229321479797363,-6.103515625,0.335693359375,-0.4730224609375
5.0499999,-9.749189376831055,-0.07900865375995636,2.142810583114624,3.96728515625,-0.0762939453125,-5.4168701171875
5.069999900000001,-9.861717224121094,-0.2849099934101105,1.7549498081207275,12.8173828125,1.5716552734375,0.274658203125
5.0899999000000005,-9.892841339111328,-0.2322375625371933,1.7286136150360107,9.368896484375,-0.54931640625,4.0435791015625
5.109999900000001,-9.856928825378418,-0.09816227108240128,1.8315643072128296,3.96728515625,-2.2735595703125,2.0751953125
5.1299999000000005,-9.773131370544434,0.08140286058187485,2.0470423698425293,1.556396484375,-5.7220458984375,-0.518798828125
5.1499999,-9.6989107131958,0.14844051003456116,2.27209734916687,-1.4801025390625,-5.401611328125,-1.9989013671875
5.1699999000000005,-9.627084732055664,0.1173158809542656,2.5019407272338867,-4.486083984375,0.79345703125,-5.279541015625
5.1899999,-9.57201862335205,-0.023942016065120697,2.5977089405059814,-3.8604736328125,7.2021484375,-5.5389404296875
5.209999900000001,-9.57441234588623,-0.08858546614646912,2.5665841102600098,-2.777099609375,8.026123046875,0.1220703125
5.2299999,-9.617507934570312,-0.1867477297782898,2.3798365592956543,-6.6070556640625,5.828857421875,3.5400390625
5.249999900000001,-9.718064308166504,-0.14604631066322327,2.121262788772583,-9.918212890625,2.5482177734375,3.8604736328125
5.2699999,-9.813833236694336,-0.13168109953403473,1.8411411046981812,-4.9896240234375,-6.8206787109375,2.0599365234375
5.289999900000001,-9.890447616577148,-0.17477671802043915,1.6879122257232666,5.157470703125,-14.862060546875,-1.03759765625
5.3099999,-9.873687744140625,-0.2513911724090576,1.659181833267212,12.8631591796875,-14.4805908203125,-4.669189453125
5.329999900000001,-9.816226959228516,-0.24899697303771973,1.9297266006469727,13.0157470703125,-7.2784423828125,-4.1656494140625
5.3499999,-9.75397777557373,-0.16998831927776337,2.274491548538208,5.37109375,-0.67138671875,2.2125244140625
5.369999900000001,-9.701305389404297,0.07661445438861847,2.7054479122161865,-7.8582763671875,3.96728515625,4.638671875
5.3899999,-9.77791976928711,0.272938996553421,2.983175277709961,-15.655517578125,6.256103515625,3.4942626953125
5.409999900000001,-9.775525093078613,0.3711012601852417,2.9951462745666504,-11.6729736328125,1.3885498046875,-0.8087158203125
5.4299999,-9.825803756713867,0.2801215946674347,2.8586769104003906,-1.129150390625,-2.197265625,-4.5623779296875
5.449999900000001,-9.734824180603027,0.033518824726343155,2.6360161304473877,8.9569091796875,-1.2359619140625,-9.6588134765625
5.4699999,-9.581595420837402,-0.14365209639072418,2.425326347351074,14.16015625,2.6702880859375,-10.650634765625
5.489999900000001,-9.478644371032715,-0.2322375625371933,2.3702597618103027,10.92529296875,6.16455078125,-4.7454833984375
5.5099999,-9.435548782348633,-0.1364694982767105,2.3989901542663574,-4.3487548828125,9.246826171875,-1.556396484375
5.529999900000001,-9.5624418258667,0.040701430290937424,2.427720546722412,-20.0042724609375,14.556884765625,-0.9918212890625
5.5499999,-9.751583099365234,0.1412578970193863,2.38462495803833,-20.050048828125,9.4146728515625,-4.1961669921875
5.569999900000001,-9.962273597717285,0.0694318488240242,2.207453966140747,-5.218505859375,-0.8697509765625,-7.7056884765625
5.5899999000000005,-10.031704902648926,-0.13407529890537262,1.9297266006469727,13.2904052734375,-6.0882568359375,-10.0555419921875
5.609999900000001,-10.010157585144043,-0.47405192255973816,1.644816517829895,27.2674560546875,-8.8958740234375,-10.955810546875
5.6299999000000005,-9.904812812805176,-0.768538773059845,1.4221558570861816,39.154052734375,-10.5743408203125,-9.429931640625
5.6499999,-9.744400978088379,-0.8475474119186401,1.522712230682373,55.35888671875,-17.822265625,-7.110595703125
5.6699999000000005,-9.655815124511719,-0.751779317855835,1.824381709098816,49.407958984375,-17.4713134765625,-4.0130615234375
5.6899999,-9.512163162231445,-0.3878606855869293,2.449268341064453,21.8048095703125,-6.3934326171875,-3.47900390625
5.709999900000001,-9.344569206237793,0.031124621629714966,3.098097085952759,-7.87353515625,7.5836181640625,-2.8533935546875
5.7299999,-9.2033109664917,0.3447650372982025,3.5697548389434814,-27.6947021484375,18.646240234375,-3.23486328125
5.749999900000001,-9.14585018157959,0.4381389021873474,3.7038300037384033,-35.58349609375,23.3001708984375,-3.4942626953125
5.7699999,-9.246406555175781,0.2944868206977844,3.471592426300049,-36.5447998046875,23.3612060546875,-2.349853515625
5.789999900000001,-9.50498104095459,0.014365210197865963,3.0119056701660156,-32.8369140625,21.2249755859375,-0.2288818359375
5.8099999,-9.749189376831055,-0.2968810200691223,2.470816135406494,-25.726318359375,19.500732421875,1.40380859375
5.829999900000001,-9.959878921508789,-0.545877993106842,2.006340980529785,-17.120361328125,19.073486328125,4.5623779296875
5.8499999,-10.129867553710938,-0.7206547260284424,1.7118542194366455,-10.0860595703125,12.3138427734375,7.5225830078125
5.869999900000001,-10.189722061157227,-0.7709329724311829,1.5634137392044067,-5.4168701171875,10.2081298828125,2.7618408203125
5.8899999,-10.287884712219238,-0.7637503147125244,1.5322890281677246,-1.007080078125,18.8140869140625,2.105712890625
5.909999900000001,-10.259154319763184,-0.6584054827690125,1.5155296325683594,1.6326904296875,15.7470703125,7.5531005859375
5.9299999,-10.199298858642578,-0.5003881454467773,1.4939818382263184,3.47900390625,13.763427734375,8.8043212890625
5.949999900000001,-10.144232749938965,-0.304063618183136,1.4460978507995605,4.2724609375,12.969970703125,4.4097900390625
5.9699999,-10.091560363769531,-0.1412578970193863,1.3982137441635132,4.9285888671875,9.9334716796875,-3.204345703125
5.989999900000001,-10.0580415725708,-0.05985504388809204,1.3718775510787964,6.4239501953125,8.72802734375,-6.1492919921875
6.0099999,-10.043676376342773,-0.08619125932455063,1.3742717504501343,8.1024169921875,10.7269287109375,-2.227783203125
6.029999900000001,-10.02691650390625,-0.2082955539226532,1.3862427473068237,8.7890625,9.6282958984375,1.9378662109375
6.0499999,-10.007762908935547,-0.3758896589279175,1.414973258972168,9.246826171875,3.5552978515625,1.4801025390625
6.069999900000001,-9.959878921508789,-0.5410895943641663,1.436521053314209,9.94873046875,-0.6561279296875,-2.2125244140625
6.0899999000000005,-9.818621635437012,-0.689530074596405,1.4508862495422363,9.82666015625,-0.640869140625,-6.1492919921875
6.109999900000001,-9.550470352172852,-0.8164227604866028,1.4772224426269531,8.1329345703125,-0.9613037109375,-9.4757080078125
6.1299999000000005,-9.20091724395752,-0.9074024558067322,1.501164436340332,6.3323974609375,-0.274658203125,-11.7034912109375
6.149999900000001,-8.848969459533691,-0.9481038451194763,1.5490485429763794,4.425048828125,0.0152587890625,-10.772705078125
6.1699999000000005,-8.616731643676758,-0.9241618514060974,1.599326729774475,1.861572265625,1.6021728515625,-6.34765625
6.1899999,-8.523358345031738,-0.8236053586006165,1.6663644313812256,-0.8087158203125,1.373291015625,-3.11279296875
6.209999900000001,-8.607154846191406,-0.6655880808830261,1.745373010635376,-3.0059814453125,1.129150390625,-1.251220703125
6.2299999,-8.834604263305664,-0.4644751250743866,1.8195933103561401,-4.82177734375,3.326416015625,1.678466796875
6.249999900000001,-9.138668060302734,-0.2561795711517334,1.8770540952682495,-6.439208984375,4.302978515625,3.509521484375
6.2699999,-9.44991397857666,-0.07182604819536209,1.8986018896102905,-7.3394775390625,4.1961669921875,3.3111572265625
6.289999900000001,-9.684545516967773,0.0694318488240242,1.8842366933822632,-7.0343017578125,5.37109375,4.4403076171875
6.3099999,-9.849745750427246,0.16759411990642548,1.821987509727478,-5.584716796875,9.7198486328125,9.2315673828125
6.329999900000001,-10.08198356628418,0.19153612852096558,1.7118542194366455,-3.0059814453125,13.7481689453125,13.4429931640625
6.3499999,-10.426748275756836,0.16519992053508759,1.625662922859192,-0.091552734375,4.119873046875,8.9111328125
6.369999900000001,-10.673351287841797,0.05027823522686958,1.4915876388549805,1.739501953125,-6.8817138671875,-0.335693359375
6.3899999,-10.915165901184082,-0.06464344263076782,1.4245500564575195,6.3323974609375,-3.753662109375,4.2572021484375
6.409999900000001,-10.793061256408691,-0.21787235140800476,1.3311761617660522,10.8795166015625,-10.7574462890625,10.101318359375
6.4299999,-10.51054573059082,-0.33279404044151306,1.2521674633026123,15.594482421875,-13.0615234375,7.9498291015625
6.449999900000001,-10.1753568649292,-0.4620809257030487,1.1851298809051514,20.6451416015625,-14.7857666015625,8.575439453125
6.4699999,-9.885659217834473,-0.545877993106842,1.1755530834197998,23.223876953125,-17.2271728515625,9.307861328125
6.489999900000001,-9.792284965515137,-0.5482721924781799,1.2641384601593018,22.52197265625,-16.571044921875,11.1236572265625
6.5099999,-9.852140426635742,-0.4165911078453064,1.4532804489135742,17.852783203125,-18.402099609375,14.862060546875
6.529999900000001,-10.002974510192871,-0.09576806426048279,1.7190368175506592,9.3231201171875,-17.6239013671875,14.923095703125
6.5499999,-10.065223693847656,0.33039984107017517,1.9967641830444336,-0.9002685546875,-15.3350830078125,11.7950439453125
6.569999900000001,-9.995792388916016,0.7350199222564697,2.2864625453948975,-8.819580078125,-10.8489990234375,6.3323974609375
6.5899999000000005,-9.75637149810791,1.036689281463623,2.5546131134033203,-14.5263671875,-2.8839111328125,1.7852783203125
6.609999900000001,-9.57201862335205,1.1204863786697388,2.7988216876983643,-18.524169921875,5.523681640625,1.03759765625
6.6299999000000005,-9.41639518737793,0.9888052940368652,2.935291290283203,-18.4478759765625,9.033203125,-1.4190673828125
6.649999900000001,-9.390059471130371,0.7015010714530945,2.9448680877685547,-13.427734375,10.07080078125,-1.5869140625
6.6699999000000005,-9.41400146484375,0.3447650372982025,2.784456491470337,-7.6141357421875,6.5765380859375,3.631591796875
6.6899999,-9.466673851013184,0.035913024097681046,2.5330653190612793,-2.9754638671875,1.220703125,7.4462890625
6.709999900000001,-9.521739959716797,-0.1628057211637497,2.2673089504241943,0.1068115234375,-5.3863525390625,8.575439453125
6.7299999,-9.622296333312988,-0.21787235140800476,2.051830768585205,0.6256103515625,-7.8582763671875,8.85009765625
6.749999900000001,-9.718064308166504,-0.15322890877723694,1.8842366933822632,-0.9918212890625,-4.9285888671875,3.4027099609375
6.7699999,-9.732429504394531,-0.026336219161748886,1.7693150043487549,-2.3345947265625,-2.8228759765625,-4.302978515625
6.789999900000001,-9.768342971801758,0.12210428714752197,1.7118542194366455,-2.01416015625,3.0975341796875,-4.2572021484375
6.8099999,-9.751583099365234,0.22505496442317963,1.6639702320098877,-3.5858154296875,10.43701171875,-1.9073486328125
6.829999900000001,-9.758766174316406,0.2992752194404602,1.659181833267212,-6.4544677734375,9.7198486328125,-1.46484375
6.8499999,-9.799467086791992,0.2944868206977844,1.6352397203445435,-6.195068359375,5.5389404296875,0.2899169921875
6.869999900000001,-9.828198432922363,0.22744916379451752,1.6089035272598267,-2.7618408203125,1.373291015625,0.2288818359375
6.8899999,-9.847352027893066,0.1604115068912506,1.556231141090393,1.983642578125,-2.3651123046875,0.823974609375
6.909999900000001,-9.904812812805176,0.06224924325942993,1.5155296325683594,5.79833984375,-4.2877197265625,0.67138671875
6.9299999,-9.959878921508789,0.016759412363171577,1.4987702369689941,6.8359375,-7.6141357421875,1.6937255859375
6.949999900000001,-9.986215591430664,0.033518824726343155,1.558625340461731,5.9051513671875,-9.7808837890625,2.9754638671875
6.9699999,-9.928754806518555,0.10773907601833344,1.6831238269805908,3.997802734375,-9.0789794921875,2.7618408203125
6.989999900000001,-9.775525093078613,0.17238251864910126,1.8291701078414917,2.74658203125,-8.4228515625,1.739501953125
7.0099999,-9.600749015808105,0.21308395266532898,2.0159177780151367,2.7008056640625,-7.6751708984375,1.2664794921875
7.029999900000001,-9.459490776062012,0.27054479718208313,2.2385785579681396,-1.28173828125,-4.5623779296875,2.3193359375
7.0499999,-9.35893440246582,0.33518823981285095,2.4372973442077637,-11.5814208984375,0.640869140625,3.2958984375
7.069999900000001,-9.332598686218262,0.43335050344467163,2.609679937362671,-21.1639404296875,5.5999755859375,1.495361328125
7.0899999000000005,-9.35893440246582,0.5770025849342346,2.7222073078155518,-25.604248046875,8.2550048828125,-0.6561279296875
7.109999900000001,-9.44752025604248,0.7038952708244324,2.7246015071868896,-25.9552001953125,10.9100341796875,-3.1280517578125
7.1299999000000005,-9.610325813293457,0.7589619159698486,2.609679937362671,-22.4761962890625,12.969970703125,-7.1563720703125
7.149999900000001,-9.75397777557373,0.6584054827690125,2.3918075561523438,-14.2822265625,10.8489990234375,-10.284423828125
7.1699999000000005,-9.813833236694336,0.524330198764801,2.209848165512085,-7.2784423828125,7.2479248046875,-9.8724365234375
7.1899999,-9.835380554199219,0.2777273952960968,2.027888774871826,-11.4898681640625,9.490966796875,-7.9498291015625
7.209999900000001,-9.84495735168457,0.033518824726343155,1.9297266006469727,-18.98193359375,12.9852294921875,-7.2479248046875
7.2299999,-9.916783332824707,-0.26575639843940735,1.8076223134994507,-21.54541015625,9.0179443359375,-3.6163330078125
7.249999900000001,-9.947908401489258,-0.49559974670410156,1.644816517829895,-20.1568603515625,3.265380859375,1.9378662109375
7.2699999,-10.122684478759766,-0.8092401623725891,1.335964560508728,-11.5966796875,-4.8828125,4.5928955078125
7.289999900000001,-10.163386344909668,-0.9720458984375,0.9744400978088379,7.8582763671875,-16.8609619140625,3.997802734375
7.3099999,-10.295066833496094,-0.933738648891449,0.8188169598579407,27.2674560546875,-28.25927734375,2.5177001953125
7.329999900000001,-10.079588890075684,-0.6033388376235962,0.8930372595787048,31.707763671875,-34.3475341796875,-4.180908203125
7.3499999,-10.046070098876953,-0.11971008777618408,1.2210428714752197,24.1546630859375,-24.810791015625,-1.1749267578125
7.369999900000001,-9.701305389404297,0.5195417404174805,1.889025092124939,10.7269287109375,-17.2271728515625,-4.21142578125
7.3899999,-9.497797966003418,1.0223240852355957,2.63362193107605,-8.6517333984375,-6.40869140625,-6.622314453125
7.409999900000001,-9.35654067993164,1.2665326595306396,3.2585084438323975,-31.3720703125,7.9498291015625,-5.889892578125
7.4299999,-9.246406555175781,1.2617442607879639,3.581725835800171,-43.45703125,17.5628662109375,-7.4462890625
7.449999900000001,-9.315838813781738,0.9313444495201111,3.4811692237854004,-37.53662109375,17.364501953125,-8.97216796875
7.4699999,-9.528923034667969,0.4908113479614258,3.045424461364746,-21.8963623046875,11.138916015625,-7.2784423828125
7.489999900000001,-9.794678688049316,-0.08619125932455063,2.4205379486083984,-4.7149658203125,1.678466796875,-5.584716796875
7.5099999,-10.02691650390625,-0.586579442024231,1.8291701078414917,14.5263671875,-6.04248046875,-8.514404296875
7.529999900000001,-10.091560363769531,-1.0295066833496094,1.4173674583435059,30.82275390625,-11.688232421875,-8.7890625
7.5499999,-10.010157585144043,-1.1348515748977661,1.3527239561080933,33.843994140625,-10.4217529296875,-4.2572021484375
7.569999900000001,-9.852140426635742,-1.01753568649292,1.5490485429763794,20.751953125,-5.8135986328125,0.2899169921875
7.5899999000000005,-9.737217903137207,-0.6248866319656372,1.9728221893310547,1.678466796875,-0.335693359375,0.396728515625
7.609999900000001,-9.66299819946289,-0.1412578970193863,2.4684219360351562,-11.993408203125,4.7149658203125,2.0751953125
7.6299999000000005,-9.713275909423828,0.17238251864910126,2.7317841053009033,-17.9290771484375,4.7454833984375,4.3487548828125
7.649999900000001,-9.758766174316406,0.2561795711517334,2.7676970958709717,-16.1895751953125,-0.3204345703125,2.4261474609375
7.6699999000000005,-9.80904483795166,0.10295066982507706,2.652775526046753,-8.0413818359375,-3.5858154296875,-0.946044921875
7.6899999,-9.780313491821289,-0.19153612852096558,2.410961151123047,-2.1209716796875,-2.471923828125,-0.54931640625
7.709999900000001,-9.730035781860352,-0.4429273009300232,2.2673089504241943,-3.997802734375,2.5787353515625,3.7841796875
7.7299999,-9.660603523254395,-0.5770025849342346,2.2194249629974365,-8.36181640625,4.69970703125,7.0648193359375
7.749999900000001,-9.619902610778809,-0.5985504388809204,2.2026655673980713,-8.9263916015625,4.7760009765625,8.97216796875
7.7699999,-9.59596061706543,-0.3878606855869293,2.296039342880249,-6.65283203125,5.1727294921875,10.4217529296875
7.789999900000001,-9.622296333312988,-0.18914192914962769,2.3798365592956543,-6.7596435546875,3.204345703125,8.148193359375
7.8099999,-9.586383819580078,-0.028730420395731926,2.403778553009033,-8.1787109375,2.349853515625,0.9307861328125
7.829999900000001,-9.576807022094727,0.1412578970193863,2.451662540435791,-4.8370361328125,4.3182373046875,-3.3721923828125
7.8499999,-9.536105155944824,0.13168109953403473,2.4133553504943848,0.640869140625,8.9569091796875,-4.3182373046875
7.869999900000001,-9.514557838439941,0.1843535304069519,2.3056161403656006,2.6702880859375,11.6729736328125,-4.669189453125
7.8899999,-9.579200744628906,0.17477671802043915,2.2697031497955322,1.3275146484375,11.0931396484375,-6.2103271484375
7.909999900000001,-9.62947940826416,0.20111294090747833,2.185906171798706,-0.4425048828125,10.8184814453125,-4.486083984375
7.9299999,-9.751583099365234,0.23702596127986908,2.2194249629974365,-4.0130615234375,9.5367431640625,-2.2430419921875
7.949999900000001,-9.794678688049316,0.11971008777618408,2.2625205516815186,-11.1236572265625,7.50732421875,-5.523681640625
7.9699999,-9.797073364257812,-0.011971008032560349,2.2218191623687744,-14.0228271484375,10.009765625,-9.2620849609375
7.989999900000001,-9.80904483795166,-0.31842881441116333,2.099714994430542,-8.6517333984375,12.20703125,-7.049560546875
8.0099999,-9.78989028930664,-0.5746083855628967,1.9105730056762695,-2.13623046875,11.90185546875,-0.4425048828125
8.0299999,-9.832986831665039,-0.7589619159698486,1.6903064250946045,-2.8228759765625,8.880615234375,3.0364990234375
8.049999900000001,-9.849745750427246,-0.790086567401886,1.5203180313110352,-6.2713623046875,6.3629150390625,5.2642822265625
8.069999900000001,-9.940725326538086,-0.6847416758537292,1.4197616577148438,-6.1492919921875,3.204345703125,8.453369140625
8.0899999,-9.983820915222168,-0.4692635238170624,1.4293384552001953,-4.33349609375,-3.2806396484375,9.490966796875
8.1099999,-9.964667320251465,-0.33758243918418884,1.4724340438842773,-4.3487548828125,-5.0506591796875,4.39453125
8.129999900000001,-9.885659217834473,-0.181959331035614,1.601720929145813,-3.7994384765625,-2.471923828125,0.5950927734375
8.149999900000001,-9.825803756713867,-0.12449848651885986,1.7477672100067139,-1.0223388671875,2.7618408203125,2.410888671875
8.1699999,-9.715670585632324,-0.0933738648891449,1.889025092124939,-1.800537109375,4.241943359375,6.5155029296875
8.1899999,-9.727641105651855,-0.06464344263076782,1.8962076902389526,-7.3699951171875,4.2572021484375,5.859375
8.2099999,-9.691728591918945,0.014365210197865963,1.9584569931030273,-11.7034912109375,4.6234130859375,5.7373046875
8.229999900000001,-9.801861763000488,0.10295066982507706,1.9369091987609863,-12.26806640625,2.7008056640625,8.30078125
8.2499999,-9.782708168029785,0.13168109953403473,1.9249382019042969,-12.75634765625,-1.8768310546875,5.828857421875
8.2699999,-9.832986831665039,0.10534487664699554,1.8555063009262085,-13.2293701171875,-0.823974609375,-0.4425048828125
8.2899999,-9.821015357971191,-0.038307227194309235,1.7621324062347412,-8.4686279296875,1.312255859375,-3.1280517578125
8.309999900000001,-9.761159896850586,-0.14844051003456116,1.678335428237915,0,3.3721923828125,0.79345703125
8.3299999,-9.75637149810791,-0.21547815203666687,1.6065093278884888,4.39453125,1.312255859375,3.9825439453125
8.3499999,-9.81143856048584,-0.19632454216480255,1.6400281190872192,2.4261474609375,0.274658203125,2.6092529296875
8.3699999,-9.821015357971191,-0.038307227194309235,1.6711528301239014,-0.396728515625,0.579833984375,3.021240234375
8.389999900000001,-9.890447616577148,0.07422025501728058,1.7741034030914307,-2.593994140625,-2.44140625,3.0059814453125
8.4099999,-9.871294021606445,0.16998831927776337,1.8794482946395874,-5.4779052734375,-3.2958984375,-1.129150390625
8.4299999,-9.787496566772461,0.10055647045373917,1.9153614044189453,-5.3253173828125,-1.1749267578125,-6.04248046875
8.4499999,-9.727641105651855,0.035913024097681046,1.922544002532959,0.4730224609375,1.2969970703125,-7.26318359375
8.469999900000001,-9.68694019317627,-0.031124621629714966,1.9345149993896484,4.2572021484375,4.1046142578125,-4.5166015625
8.4899999,-9.696516990661621,-0.047884032130241394,1.9943699836730957,-2.7008056640625,5.8135986328125,-1.7547607421875
8.5099999,-9.775525093078613,-0.033518824726343155,1.9991583824157715,-12.7105712890625,10.6353759765625,-0.9765625
8.5299999,-9.821015357971191,-0.06224924325942993,1.9632453918457031,-12.8326416015625,8.3465576171875,1.9683837890625
8.549999900000001,-9.916783332824707,-0.19393034279346466,1.7956513166427612,-4.7454833984375,0.4119873046875,4.4708251953125
8.569999900000001,-9.962273597717285,-0.3663128614425659,1.4867992401123047,2.044677734375,-7.659912109375,3.0517578125
8.5899999,-10.055646896362305,-0.5410895943641663,1.2090718746185303,8.941650390625,-11.9171142578125,0.4730224609375
8.6099999,-10.04846477508545,-0.5219359993934631,1.1563993692398071,18.341064453125,-13.7939453125,-1.0223388671875
8.629999900000001,-9.974244117736816,-0.4381389021873474,1.1540051698684692,23.6053466796875,-12.542724609375,0.732421875
8.649999900000001,-9.837775230407715,-0.08140286058187485,1.5179238319396973,14.8773193359375,-9.5672607421875,1.8157958984375
8.6699999,-9.710882186889648,0.2106897532939911,1.944091796875,-4.364013671875,-1.4190673828125,1.3275146484375
8.6899999,-9.579200744628906,0.5003881454467773,2.427720546722412,-21.392822265625,3.90625,2.227783203125
8.709999900000001,-9.564835548400879,0.5770025849342346,2.7293899059295654,-31.6925048828125,8.1939697265625,2.8076171875
8.729999900000001,-9.68694019317627,0.19871874153614044,2.4851813316345215,-18.4783935546875,3.2958984375,-2.5787353515625
8.7499999,-9.775525093078613,-0.09816227108240128,2.0901381969451904,-0.4425048828125,-0.30517578125,-5.5694580078125
8.7699999,-9.816226959228516,-0.26096799969673157,1.6950948238372803,14.556884765625,-1.7852783203125,-6.3323974609375
8.7899999,-9.895236015319824,-0.33518823981285095,1.434126853942871,18.5546875,-4.4708251953125,-4.974365234375
8.809999900000001,-9.871294021606445,-0.21787235140800476,1.4101848602294922,10.5438232421875,-3.1890869140625,-3.9825439453125
8.8299999,-9.904812812805176,-0.08140286058187485,1.601720929145813,-2.8533935546875,0.6866455078125,-1.8463134765625
8.8499999,-9.823410034179688,-0.0071826050989329815,1.9249382019042969,-13.4124755859375,3.23486328125,-1.3580322265625
8.8699999,-9.742006301879883,0.002394201699644327,2.169146776199341,-16.54052734375,4.119873046875,-0.579833984375
8.889999900000001,-9.684545516967773,-0.14604631066322327,2.2361843585968018,-9.033203125,1.373291015625,-1.40380859375
8.9099999,-9.768342971801758,-0.3232172429561615,2.10210919380188,2.838134765625,-0.885009765625,-3.753662109375
8.9299999,-9.818621635437012,-0.4884171485900879,1.8339585065841675,9.9334716796875,-0.762939453125,-2.960205078125
8.9499999,-9.852140426635742,-0.545877993106842,1.6424223184585571,10.9710693359375,0.06103515625,-0.7171630859375
8.969999900000001,-9.849745750427246,-0.42616790533065796,1.558625340461731,8.1787109375,-2.5177001953125,2.166748046875
8.9899999,-9.765948295593262,-0.23702596127986908,1.599326729774475,-1.9683837890625,-2.288818359375,3.0364990234375
9.0099999,-9.792284965515137,-0.05267243832349777,1.7286136150360107,-12.725830078125,0.5645751953125,1.9073486328125
9.0299999,-9.782708168029785,0.06224924325942993,1.8722656965255737,-13.885498046875,-2.532958984375,2.0751953125
9.049999900000001,-9.818621635437012,0.026336219161748886,1.9297266006469727,-8.8653564453125,-6.561279296875,2.38037109375
9.069999900000001,-9.828198432922363,-0.14844051003456116,1.9608511924743652,-1.1749267578125,-7.8277587890625,-0.8697509765625
9.0899999,-9.81143856048584,-0.31603461503982544,1.8698714971542358,6.591796875,-7.9498291015625,-2.227783203125
9.1099999,-9.835380554199219,-0.48602294921875,1.8579005002975464,10.4522705078125,-4.82177734375,1.2359619140625
9.129999900000001,-9.804255485534668,-0.47165772318840027,1.8339585065841675,7.9345703125,-4.1351318359375,5.0048828125
9.149999900000001,-9.734824180603027,-0.3519476354122162,1.9608511924743652,-0.152587890625,-3.5858154296875,7.3394775390625
9.1699999,-9.737217903137207,-0.1364694982767105,2.075772762298584,-10.0860595703125,-0.54931640625,6.6680908203125
9.1899999,-9.677363395690918,0.09816227108240128,2.209848165512085,-13.1072998046875,-0.885009765625,3.72314453125
9.209999900000001,-9.75637149810791,0.2992752194404602,2.293645143508911,-7.01904296875,-5.157470703125,1.708984375
9.229999900000001,-9.80904483795166,0.28969839215278625,2.2840683460235596,1.5716552734375,-7.781982421875,-2.5177001953125
9.2499999,-9.830592155456543,0.20350714027881622,2.367865562438965,7.32421875,-6.0577392578125,-6.9580078125
9.2699999,-9.730035781860352,0.021547814831137657,2.3487119674682617,10.7269287109375,-0.9307861328125,-8.6517333984375
9.2899999,-9.634267807006836,-0.0694318488240242,2.497152328491211,10.9100341796875,5.9051513671875,-5.6610107421875
9.309999900000001,-9.548076629638672,-0.10055647045373917,2.6024973392486572,2.38037109375,10.1165771484375,-2.62451171875
9.3299999,-9.524134635925293,-0.004788403399288654,2.6192567348480225,-10.162353515625,13.885498046875,-1.068115234375
9.3499999,-9.605537414550781,0.009576806798577309,2.58813214302063,-14.923095703125,14.5111083984375,-0.1220703125
9.3699999,-9.648633003234863,-0.05985504388809204,2.322375535964966,-9.0179443359375,7.6904296875,-1.617431640625
9.389999900000001,-9.804255485534668,-0.26096799969673157,1.889025092124939,3.6163330078125,-1.5106201171875,-2.7923583984375
9.4099999,-9.923966407775879,-0.5099649429321289,1.5442601442337036,19.8822021484375,-9.490966796875,-3.6163330078125
9.4299999,-9.974244117736816,-0.6703764796257019,1.2617442607879639,28.3660888671875,-12.7716064453125,-3.814697265625
9.4499999,-9.959878921508789,-0.6105214357376099,1.3024457693099976,24.8565673828125,-7.8125,-2.9449462890625
9.469999900000001,-9.821015357971191,-0.4165911078453064,1.5322890281677246,14.4195556640625,-3.96728515625,0
9.4899999,-9.708487510681152,-0.021547814831137657,1.9584569931030273,-1.8463134765625,-1.3885498046875,2.2735595703125
9.5099999,-9.586383819580078,0.26336219906806946,2.3942017555236816,-20.263671875,5.2337646484375,2.5482177734375
9.5299999,-9.622296333312988,0.40222588181495667,2.7222073078155518,-27.1148681640625,8.4228515625,0.762939453125
9.549999900000001,-9.607931137084961,0.29209262132644653,2.829946517944336,-20.69091796875,5.0506591796875,0.0152587890625
9.569999900000001,-9.706093788146973,0.002394201699644327,2.7269957065582275,-7.9803466796875,1.5716552734375,-0.7781982421875
9.5899999,-9.785101890563965,-0.33039984107017517,2.4229321479797363,3.84521484375,-0.7781982421875,-3.0059814453125
9.6099999,-9.780313491821289,-0.5506663918495178,2.1164743900299072,10.406494140625,1.2359619140625,-3.997802734375
9.629999900000001,-9.823410034179688,-0.5746083855628967,1.8555063009262085,13.519287109375,2.227783203125,-1.312255859375
9.649999900000001,-9.780313491821289,-0.4141969084739685,1.7190368175506592,12.7105712890625,-1.2054443359375,1.2359619140625
9.6699999,-9.804255485534668,-0.18914192914962769,1.802833914756775,5.6610107421875,-1.5716552734375,1.922607421875
9.6899999,-9.785101890563965,0.035913024097681046,1.9177556037902832,-1.3580322265625,0.762939453125,0.4119873046875
9.709999900000001,-9.75397777557373,0.09576806426048279,2.1978771686553955,-2.3956298828125,-0.701904296875,-1.52587890625
9.729999900000001,-9.715670585632324,0.06464344263076782,2.4013843536376953,-3.082275390625,0.640869140625,-1.7547607421875
9.7499999,-9.641449928283691,-0.0933738648891449,2.5067291259765625,-5.4168701171875,5.6610107421875,-2.2125244140625
9.7699999,-9.62947940826416,-0.26575639843940735,2.4588451385498047,-5.401611328125,10.43701171875,-3.1890869140625
9.7899999,-9.670180320739746,-0.33997663855552673,2.255337953567505,-3.90625,12.7105712890625,-1.6937255859375
9.809999900000001,-9.730035781860352,-0.3447650372982025,2.0039467811584473,-3.021240234375,8.8348388671875,2.1820068359375
9.8299999,-9.806650161743164,-0.24660277366638184,1.6974890232086182,-2.410888671875,3.60107421875,3.4942626953125
9.8499999,-9.888052940368652,-0.1364694982767105,1.5275006294250488,-0.946044921875,-1.15966796875,1.8768310546875
9.8699999,-9.907206535339355,-0.13168109953403473,1.4413094520568848,4.2572021484375,-7.3699951171875,-0.3204345703125
9.889999900000001,-9.897629737854004,-0.15562310814857483,1.6376339197158813,7.598876953125,-10.040283203125,-0.6866455078125
9.9099999,-9.856928825378418,-0.2992752194404602,1.8722656965255737,4.791259765625,-4.6539306640625,-0.213623046875
9.9299999,-9.737217903137207,-0.42377370595932007,2.2002713680267334,0.518798828125,1.861572265625,-0.732421875
9.9499999,-9.684545516967773,-0.3663128614425659,2.516305923461914,-3.448486328125,9.613037109375,0.67138671875
9.969999900000001,-9.579200744628906,-0.26815059781074524,2.5546131134033203,-11.1846923828125,13.275146484375,4.852294921875
9.9899999,-9.62947940826416,0.05027823522686958,2.518700122833252,-18.9056396484375,13.1988525390625,4.33349609375
10.0099999,-9.66299819946289,0.23702596127986908,2.2002713680267334,-19.256591796875,9.8419189453125,1.7852783203125
10.0299999,-9.821015357971191,0.2825157940387726,1.845929503440857,-10.5438232421875,2.1820068359375,-0.8697509765625
10.049999900000001,-9.890447616577148,0.1364694982767105,1.522712230682373,2.5787353515625,-7.110595703125,-2.593994140625
10.069999900000001,-9.955090522766113,-0.15562310814857483,1.3742717504501343,12.908935546875,-9.674072265625,-3.90625
10.0899999,-9.931148529052734,-0.4213795065879822,1.460463047027588,16.4794921875,-8.36181640625,-3.7078857421875
10.1099999,-9.787496566772461,-0.47405192255973816,1.8602946996688843,5.7830810546875,0.91552734375,0.18310546875
10.129999900000001,-9.5408935546875,-0.24899697303771973,2.607285737991333,-29.7393798828125,16.9525146484375,5.340576171875
10.149999900000001,-9.378087997436523,0.1388636976480484,3.2632968425750732,-87.21923828125,42.022705078125,7.7667236328125
10.1699999,-9.308655738830566,0.5267243981361389,3.49314022064209,-115.509033203125,55.999755859375,3.60107421875
10.1899999,-9.229647636413574,0.7326257228851318,3.576937437057495,-93.9178466796875,40.6951904296875,5.462646484375
10.209999900000001,-9.210494041442871,0.7829039692878723,3.466804027557373,-102.935791015625,45.562744140625,5.8746337890625
10.229999900000001,-8.741230010986328,0.19871874153614044,2.5546131134033203,-140.8843994140625,81.8023681640625,8.941650390625
10.2499999,-8.374917984008789,-0.6416460275650024,1.2545616626739502,-82.2601318359375,65.155029296875,17.51708984375
10.2699999,-8.26239013671875,-1.5969325304031372,-1.070208191871643,56.8084716796875,-4.9591064453125,13.4124755859375
10.2899999,-8.904036521911621,-2.1116859912872314,-3.047818660736084,161.7279052734375,-61.34033203125,4.4097900390625
10.309999900000001,-9.828198432922363,-1.7381904125213623,-3.1435868740081787,151.5350341796875,-70.6634521484375,0.7171630859375
10.3299999,-10.6709566116333,-0.6344634294509888,-1.0821791887283325,16.6168212890625,-15.5487060546875,16.54052734375
10.3499999,-11.039664268493652,0.9792284965515137,1.86508309841156,-129.8675537109375,55.7403564453125,26.6876220703125
10.3699999,-10.781089782714844,2.1739351749420166,4.352658748626709,-200.01220703125,99.151611328125,20.44677734375
10.389999900000001,-10.63743782043457,2.6216509342193604,4.685452938079834,-182.9681396484375,92.6055908203125,11.71875
10.4099999,-10.493785858154297,2.3965959548950195,3.308786630630493,-133.1329345703125,59.0057373046875,7.7972412109375
10.4299999,-10.845733642578125,1.1228805780410767,0.5913678407669067,-81.8328857421875,25.1312255859375,8.5906982421875
10.4499999,-11.111490249633789,-0.10055647045373917,-1.7812861204147339,6.988525390625,-14.22119140625,3.7841796875
10.469999900000001,-11.185709953308105,-0.8954314589500427,-3.093308687210083,64.971923828125,-48.095703125,0.8087158203125
10.4899999,-10.852916717529297,-0.9313444495201111,-2.892195701599121,39.48974609375,-33.63037109375,-6.1492919921875
10.5099999,-10.108319282531738,-0.3687070608139038,-1.4245500564575195,-13.9007568359375,2.0599365234375,-12.8326416015625
10.5299999,-9.313444137573242,0.21787235140800476,0.26575639843940735,-36.4532470703125,21.0418701171875,-13.0615234375
10.549999900000001,-8.767566680908203,0.38307225704193115,1.3239935636520386,-19.34814453125,15.93017578125,-9.185791015625
10.569999900000001,-8.645462036132812,0.17477671802043915,1.5442601442337036,8.514404296875,2.5482177734375,-6.1187744140625
10.5899999,-8.798690795898438,-0.13168109953403473,1.3287819623947144,18.24951171875,-2.7008056640625,-5.157470703125
10.6099999,-9.105149269104004,-0.33039984107017517,1.048660397529602,3.082275390625,2.899169921875,-3.4637451171875
10.629999900000001,-9.425971984863281,-0.4213795065879822,0.8667010068893433,-14.495849609375,14.5416259765625,-1.4495849609375
10.649999900000001,-9.730035781860352,-0.5267243981361389,0.7422025203704834,-14.0533447265625,18.61572265625,3.41796875
10.6699999,-10.007762908935547,-0.6368576288223267,0.5602431893348694,-2.6702880859375,13.3514404296875,8.3770751953125
10.6899999,-10.232817649841309,-0.6320692300796509,0.40462008118629456,3.23486328125,8.85009765625,9.94873046875
10.709999900000001,-10.350133895874023,-0.4644751250743866,0.3663128614425659,-2.5482177734375,11.6424560546875,7.2021484375
10.729999900000001,-10.41956615447998,-0.16519992053508759,0.3663128614425659,-13.3209228515625,19.6990966796875,2.9296875
10.7499999,-10.457873344421387,0.12689268589019775,0.3280056416988373,-16.021728515625,21.087646484375,-0.2288818359375
10.7699999,-10.457873344421387,0.3232172429561615,0.15083470940589905,-7.6141357421875,12.969970703125,-3.0364990234375
10.7899999,-10.436325073242188,0.3663128614425659,-0.08619125932455063,2.1514892578125,5.8441162109375,-6.34765625
10.809999900000001,-10.35252857208252,0.304063618183136,-0.31364041566848755,4.5623779296875,4.1046142578125,-8.4686279296875
10.8299999,-10.249577522277832,0.14365209639072418,-0.3926490843296051,4.33349609375,2.9144287109375,-8.880615234375
10.8499999,-10.070012092590332,-0.05027823522686958,-0.2968810200691223,6.5460205078125,1.3275146484375,-7.568359375
10.8699999,-9.938331604003906,-0.3016694188117981,-0.1412578970193863,7.1258544921875,4.2266845703125,-5.218505859375
10.889999900000001,-9.804255485534668,-0.545877993106842,0.009576806798577309,5.6304931640625,8.2550048828125,-1.28173828125
10.9099999,-9.701305389404297,-0.569819986820221,0.2059013396501541,1.3275146484375,10.1470947265625,2.685546875
10.9299999,-9.674968719482422,-0.6392518281936646,0.19632454216480255,-0.5035400390625,9.4451904296875,2.3040771484375
10.9499999,-9.682151794433594,-0.5506663918495178,0.17238251864910126,1.4495849609375,8.4075927734375,3.4637451171875
10.969999900000001,-9.761159896850586,-0.4620809257030487,0.014365210197865963,2.9144287109375,6.40869140625,6.6986083984375
10.9899999,-9.967061996459961,-0.2825157940387726,-0.15801730751991272,1.2664794921875,3.84521484375,7.75146484375
11.0099999,-10.165780067443848,-0.06703764945268631,-0.2777273952960968,-0.6561279296875,2.1514892578125,1.7852783203125
11.0299999,-10.369287490844727,0.16759411990642548,-0.33758243918418884,0.4119873046875,2.5634765625,-4.5013427734375
11.049999900000001,-10.481815338134766,0.31124621629714966,-0.30885201692581177,3.7689208984375,1.9073486328125,-6.011962890625
11.069999900000001,-10.469843864440918,0.29209262132644653,-0.2346317619085312,4.69970703125,1.495361328125,-5.7373046875
11.0899999,-10.35252857208252,0.1412578970193863,-0.17956513166427612,2.9449462890625,2.532958984375,-6.134033203125
11.1099999,-10.146626472473145,-0.07422025501728058,-0.15322890877723694,2.50244140625,3.082275390625,-5.1727294921875
11.129999900000001,-9.883264541625977,-0.3280056416988373,-0.1628057211637497,3.8604736328125,1.251220703125,-1.46484375
11.149999900000001,-9.691728591918945,-0.45250412821769714,-0.1412578970193863,3.2501220703125,-0.3662109375,2.9144287109375
11.1699999,-9.591172218322754,-0.47165772318840027,-0.1364694982767105,0.8087158203125,1.983642578125,1.953125
11.1899999,-9.63187313079834,-0.38067805767059326,-0.11971008777618408,1.0528564453125,3.72314453125,-1.922607421875
11.209999900000001,-9.75637149810791,-0.2298433631658554,-0.12928688526153564,3.23486328125,1.983642578125,-2.5787353515625
11.229999900000001,-9.93354320526123,-0.05267243832349777,-0.21308395266532898,1.46484375,-0.579833984375,-2.044677734375
11.2499999,-10.093954086303711,0.16759411990642548,-0.40222588181495667,-6.561279296875,-3.9520263671875,-7.476806640625
11.2699999,-10.273519515991211,0.3878606855869293,-0.6320692300796509,-13.916015625,-10.07080078125,-15.56396484375
11.2899999,-10.409989356994629,0.4908113479614258,-0.8810662031173706,-11.9171142578125,-16.632080078125,-20.2178955078125
11.309999900000001,-10.445901870727539,0.2753331959247589,-0.9241618514060974,-1.373291015625,-24.0325927734375,-21.5911865234375
11.3299999,-10.35252857208252,-0.2059013396501541,-0.6512228846549988,7.5836181640625,-24.1241455078125,-15.3045654296875
11.3499999,-10.113107681274414,-0.7852981686592102,-0.047884032130241394,5.5694580078125,-13.671875,-4.9285888671875
11.3699999,-9.75397777557373,-1.2449848651885986,0.7015010714530945,-6.7138671875,1.9989013671875,3.9520263671875
11.389999900000001,-9.428366661071777,-1.4460978507995605,1.2473790645599365,-15.716552734375,14.5111083984375,9.70458984375
11.4099999,-9.244012832641602,-1.3958195447921753,1.4437036514282227,-9.8419189453125,18.0816650390625,11.7645263671875
11.4299999,-9.29189682006836,-1.2018892765045166,1.2641384601593018,4.94384765625,16.5863037109375,11.6424560546875
11.4499999,-9.516951560974121,-0.9241618514060974,0.8571242094039917,13.641357421875,15.5792236328125,10.6353759765625
11.469999900000001,-9.876082420349121,-0.5722141861915588,0.38307225704193115,9.1094970703125,15.8538818359375,10.223388671875
11.4899999,-10.086771965026855,-0.35913026332855225,-0.026336219161748886,0.0457763671875,15.716552734375,8.758544921875
11.5099999,-10.295066833496094,-0.06464344263076782,-0.38067805767059326,-7.2174072265625,13.5040283203125,10.7269287109375
11.5299999,-10.309432983398438,0.05985504388809204,-0.6631938815116882,-8.1939697265625,9.5367431640625,8.6212158203125
11.549999900000001,-10.338163375854492,0.2059013396501541,-0.9289502501487732,-3.387451171875,3.0364990234375,3.021240234375
11.569999900000001,-10.304644584655762,0.31364041566848755,-0.933738648891449,4.39453125,-5.706787109375,-2.01416015625
11.5899999,-10.283096313476562,0.33039984107017517,-0.9792284965515137,4.8980712890625,-5.5999755859375,-6.4544677734375
11.6099999,-10.232817649841309,0.3687070608139038,-0.7493851184844971,-1.5869140625,-6.378173828125,-6.591796875
11.629999900000001,-10.144232749938965,0.26815059781074524,-0.6129156351089478,-8.331298828125,-6.6680908203125,-10.589599609375
11.649999900000001,-10.050858497619629,0.11971008777618408,-0.48602294921875,-6.3629150390625,-8.697509765625,-12.1307373046875
11.6699999,-9.931148529052734,-0.1867477297782898,-0.4644751250743866,5.0506591796875,-13.00048828125,-10.25390625
11.6899999,-9.8784761428833,-0.6129156351089478,-0.31364041566848755,17.2271728515625,-17.364501953125,-3.326416015625
11.709999900000001,-9.8784761428833,-0.9864110946655273,-0.028730420395731926,16.7694091796875,-14.0228271484375,5.4168701171875
11.729999900000001,-10.007762908935547,-1.1899182796478271,0.38307225704193115,1.46484375,-2.99072265625,13.519287109375
11.7499999,-10.156203269958496,-1.0869675874710083,0.7637503147125244,-16.9525146484375,10.43701171875,16.265869140625
11.7699999,-10.340557098388672,-0.8164227604866028,0.7972691655158997,-17.974853515625,14.5416259765625,12.7105712890625
11.7899999,-10.465055465698242,-0.43335050344467163,0.49799394607543945,-2.99072265625,4.791259765625,7.904052734375
11.809999900000001,-10.54406452178955,0.019153613597154617,0.038307227194309235,12.3138427734375,-7.2021484375,1.3275146484375
11.8299999,-10.522516250610352,0.3447650372982025,-0.3974374830722809,17.2882080078125,-10.162353515625,-8.392333984375
11.8499999,-10.398017883300781,0.6224924325942993,-0.507570743560791,10.6964111328125,-9.1705322265625,-12.6800537109375
11.8699999,-10.122684478759766,0.5913678407669067,-0.3711012601852417,-1.068115234375,-7.4310302734375,-11.688232421875
11.889999900000001,-9.816226959228516,0.5267243981361389,0.36152446269989014,-11.749267578125,-5.1422119140625,-3.60107421875
11.9099999,-9.351752281188965,0.689530074596405,1.7094600200653076,-61.920166015625,-0.0457763671875,10.4522705078125
11.9299999,-9.05487060546875,1.0007762908935547,3.203441858291626,-164.3524169921875,16.204833984375,28.0303955078125
11.9499999,-8.738836288452148,1.4413094520568848,4.350264549255371,-239.776611328125,49.346923828125,29.876708984375
11.969999900000001,-8.724471092224121,1.6543933153152466,4.455609321594238,-251.2969970703125,77.63671875,25.8026123046875
11.9899999,-8.904036521911621,1.482010841369629,3.3016040325164795,-234.0545654296875,75.01220703125,24.169921875
12.0099999,-9.224859237670898,1.094150185585022,1.2641384601593018,-213.226318359375,61.8133544921875,20.233154296875
12.0299999,-9.744400978088379,0.7469909191131592,-1.070208191871643,-182.6324462890625,52.520751953125,13.3209228515625
12.049999900000001,-10.101137161254883,0.5027823448181152,-3.1938650608062744,-139.7857666015625,33.4930419921875,3.5247802734375
12.069999900000001,-10.319009780883789,0.3974374830722809,-4.797980308532715,-93.8568115234375,22.674560546875,-0.5340576171875
12.0899999,-10.54645824432373,0.3495534360408783,-5.7341132164001465,-56.4727783203125,26.031494140625,4.547119140625
12.1099999,-10.620678901672363,0.3519476354122162,-6.0836663246154785,-26.6571044921875,8.1787109375,1.2359619140625
12.129999900000001,-10.843339920043945,0.21787235140800476,-6.0836663246154785,9.490966796875,-25.45166015625,-7.5225830078125
12.149999900000001,-10.936713218688965,0.05746084079146385,-5.7556610107421875,68.0389404296875,-64.0411376953125,-14.7247314453125
12.1699999,-10.754754066467285,-0.24181437492370605,-5.377377033233643,131.4849853515625,-93.597412109375,-14.3890380859375
12.1899999,-10.366893768310547,-0.27054479718208313,-4.4508209228515625,183.2427978515625,-97.4578857421875,-3.5400390625
12.209999900000001,-9.797073364257812,-0.06224924325942993,-3.2369606494903564,198.8525390625,-79.986572265625,-1.800537109375
12.229999900000001,-9.366117477416992,0.4836287498474121,-1.6304513216018677,181.610107421875,-59.173583984375,-8.544921875
12.2499999,-9.0859956741333,1.1252747774124146,0.14365209639072418,150.87890625,-43.8079833984375,-11.5814208984375
12.2699999,-9.102754592895508,1.6352397203445435,1.8076223134994507,109.344482421875,-32.6385498046875,-14.068603515625
12.289999900000002,-9.081207275390625,1.7621324062347412,3.134010076522827,65.4449462890625,-27.313232421875,-17.0135498046875
12.309999900000001,-9.090784072875977,1.577778935432434,4.036623954772949,33.63037109375,-12.939453125,-10.833740234375
12.3299999,-9.026140213012695,1.1300631761550903,4.247313976287842,12.3291015625,11.016845703125,-3.6468505859375
12.3499999,-9.20091724395752,0.05985504388809204,2.7317841053009033,9.0179443359375,23.3154296875,2.1514892578125
12.3699999,-9.586383819580078,-0.3208230137825012,1.2976573705673218,23.1170654296875,12.847900390625,2.1209716796875
12.389999900000001,-10.098742485046387,-0.5554547905921936,-0.15322890877723694,41.046142578125,-2.1820068359375,1.9378662109375
12.4099999,-10.577583312988281,-0.5793967843055725,-1.2282254695892334,60.6689453125,-19.5159912109375,1.2359619140625
12.4299999,-10.931924819946289,-0.4165911078453064,-1.745373010635376,72.7386474609375,-30.7464599609375,-0.1373291015625
12.4499999,-11.05642318725586,-0.12210428714752197,-1.6639702320098877,76.1260986328125,-33.6761474609375,-4.302978515625
12.469999900000001,-10.936713218688965,0.23942017555236816,-1.0749965906143188,77.3773193359375,-33.3404541015625,-8.3465576171875
12.4899999,-10.65898609161377,0.5482721924781799,-0.21787235140800476,74.310302734375,-29.9072265625,-9.918212890625
12.5099999,-10.292673110961914,0.7637503147125244,0.6799532771110535,61.9354248046875,-20.99609375,-10.345458984375
12.5299999,-9.897629737854004,0.8355764150619507,1.4652514457702637,44.9676513671875,-10.1776123046875,-10.80322265625
12.549999900000001,-9.519346237182617,0.7924807667732239,2.0207061767578125,28.4881591796875,0.885009765625,-9.2315673828125
12.569999900000001,-9.21288776397705,0.608127236366272,2.2625205516815186,12.14599609375,12.237548828125,-4.608154296875
12.5899999,-9.030928611755371,0.3687070608139038,2.1787235736846924,-0.823974609375,19.3634033203125,0.396728515625
12.6099999,-9.057265281677246,0.10534487664699554,1.7741034030914307,-5.4779052734375,20.5078125,3.4942626953125
12.629999900000001,-9.26795482635498,-0.08140286058187485,1.1444283723831177,-0.732421875,15.8538818359375,4.180908203125
12.649999900000001,-9.576807022094727,-0.14844051003456116,0.4836287498474121,8.1634521484375,6.9580078125,3.5247802734375
12.6699999,-9.8784761428833,-0.07900865375995636,-0.021547814831137657,13.7481689453125,-0.42724609375,1.64794921875
12.6899999,-10.105925559997559,0.08619125932455063,-0.20111294090747833,13.0767822265625,-1.708984375,-0.9765625
12.709999900000001,-10.251971244812012,0.29209262132644653,-0.07661445438861847,7.32421875,1.5869140625,-3.082275390625
12.729999900000001,-10.27591323852539,0.40940847992897034,0.19153612852096558,0.2899169921875,4.94384765625,-4.0283203125
12.7499999,-10.24000072479248,0.4213795065879822,0.44532153010368347,-3.5247802734375,5.462646484375,-2.44140625
12.7699999,-10.182539939880371,0.33039984107017517,0.586579442024231,-2.197265625,4.0740966796875,-0.457763671875
12.789999900000002,-10.110713958740234,0.19393034279346466,0.6057330369949341,0.91552734375,1.9683837890625,-0.579833984375
12.809999900000001,-10.074800491333008,0.1149216815829277,0.5961562395095825,0.3509521484375,1.46484375,-1.89208984375
12.8299999,-10.053253173828125,0.05506663769483566,0.5530605912208557,-2.9296875,3.173828125,-1.556396484375
12.8499999,-10.031704902648926,0.06224924325942993,0.5506663918495178,-2.288818359375,4.1656494140625,0.5340576171875
12.8699999,-10.06043529510498,0.05746084079146385,0.5171475410461426,-2.105712890625,3.3111572265625,0.1983642578125
12.889999900000001,-10.11789608001709,0.05027823522686958,0.47884035110473633,-2.0294189453125,2.197265625,-0.518798828125
12.9099999,-10.192116737365723,0.031124621629714966,0.3974374830722809,5.126953125,-0.640869140625,-0.6256103515625
12.9299999,-10.24000072479248,-0.002394201699644327,0.31842881441116333,16.5557861328125,-2.01416015625,-1.1749267578125
12.9499999,-10.235212326049805,-0.023942016065120697,0.304063618183136,25.5584716796875,-7.354736328125,-2.5177001953125
12.969999900000001,-10.196905136108398,-0.004788403399288654,0.3687070608139038,24.2462158203125,-6.9732666015625,-3.9520263671875
12.9899999,-10.127472877502441,0.07422025501728058,0.363918662071228,20.6298828125,-3.0975341796875,0.244140625
13.0099999,-10.26394271850586,0.0694318488240242,0.40940847992897034,24.7039794921875,-4.33349609375,5.401611328125
13.0299999,-10.244789123535156,0.14844051003456116,0.3758896589279175,26.763916015625,-10.5438232421875,-3.0975341796875
13.049999900000001,-10.156203269958496,0.14844051003456116,0.4429273009300232,23.0712890625,-10.589599609375,-3.5400390625
13.069999900000001,-10.017339706420898,0.1843535304069519,0.6799532771110535,13.8397216796875,-1.5411376953125,-0.823974609375
13.0899999,-9.605537414550781,0.2513911724090576,0.8978256583213806,1.678466796875,4.4708251953125,0.8697509765625
13.1099999,-9.493009567260742,0.3232172429561615,1.0630255937576294,-3.4332275390625,10.2081298828125,0.9307861328125
13.129999900000001,-9.430760383605957,0.2585737705230713,1.0558429956436157,-2.227783203125,8.2550048828125,1.861572265625
13.149999900000001,-9.48343276977539,0.26096799969673157,0.9002198576927185,0.9918212890625,5.7525634765625,0.30517578125
13.1699999,-9.433155059814453,0.16759411990642548,0.5817909836769104,5.8746337890625,1.434326171875,5.401611328125
13.1899999,-10.469843864440918,0.22505496442317963,0.3926490843296051,13.580322265625,7.9803466796875,13.6871337890625
13.209999900000001,-10.5344877243042,0.3926490843296051,0.15322890877723694,14.0838623046875,-8.97216796875,-17.5323486328125
13.229999900000001,-11.51611042022705,0.40462008118629456,0.12449848651885986,14.6484375,-5.4931640625,-14.6484375
13.2499999,-11.334151268005371,0.4884171485900879,0.23942017555236816,20.93505859375,-4.7760009765625,-3.2958984375
13.2699999,-10.994174003601074,0.27054479718208313,0.3758896589279175,21.1639404296875,-5.4168701171875,-13.5040283203125
13.289999900000002,-10.697293281555176,0.16998831927776337,0.44532153010368347,22.5372314453125,-3.84521484375,1.9989013671875
13.309999900000001,-10.833763122558594,0.0071826050989329815,0.4884171485900879,28.0914306640625,-17.7154541015625,-17.3187255859375
13.3299999,-11.101913452148438,-0.08379705995321274,0.42856210470199585,30.670166015625,-30.1361083984375,-34.8968505859375
13.3499999,-11.39161205291748,-0.181959331035614,0.4118026793003082,33.6456298828125,-15.5487060546875,-32.1044921875
13.3699999,-11.257535934448242,-0.26575639843940735,0.4405331015586853,35.70556640625,3.1585693359375,-21.8658447265625
13.389999900000001,-10.790667533874512,-0.3064578175544739,0.4692635238170624,33.63037109375,13.5955810546875,-18.768310546875
13.4099999,-10.141838073730469,-0.28969839215278625,0.4908113479614258,28.38134765625,8.72802734375,-18.829345703125
13.4299999,-9.457097053527832,-0.27054479718208313,0.49799394607543945,23.6053466796875,2.13623046875,-14.6942138671875
13.4499999,-8.774748802185059,-0.2777273952960968,0.49799394607543945,20.08056640625,5.0048828125,-6.103515625
13.469999900000001,-8.183381080627441,-0.3471592366695404,0.47165772318840027,18.9056396484375,13.671875,0.8392333984375
13.4899999,-7.790732383728027,-0.3663128614425659,0.43095630407333374,18.7530517578125,14.739990234375,5.035400390625
13.5099999,-7.659051418304443,-0.3687070608139038,0.38067805767059326,18.280029296875,4.1046142578125,7.8125
13.5299999,-7.795520782470703,-0.2561795711517334,0.35673606395721436,17.0745849609375,-9.7503662109375,9.58251953125
13.549999900000001,-8.073247909545898,-0.10534487664699554,0.40701428055763245,16.5557861328125,-7.4310302734375,4.08935546875
13.569999900000001,-8.437167167663574,0.05985504388809204,0.5339069962501526,14.556884765625,6.5155029296875,-0.762939453125
13.5899999,-8.83699893951416,0.1843535304069519,0.7158663272857666,9.1705322265625,12.786865234375,1.983642578125
13.6099999,-9.227252960205078,0.2298433631658554,0.9074024558067322,2.5634765625,9.6435546875,5.3558349609375
13.629999900000001,-9.567230224609375,0.17717093229293823,1.0271124839782715,-2.5787353515625,7.6446533203125,5.157470703125
13.649999900000001,-9.828198432922363,0.0454898327589035,1.0438719987869263,-3.997802734375,6.77490234375,5.157470703125
13.6699999,-9.986215591430664,-0.12210428714752197,0.9433154463768005,-1.495361328125,4.5013427734375,6.011962890625
13.6899999,-10.053253173828125,-0.3208230137825012,0.7661445140838623,3.6468505859375,1.4190673828125,4.8828125
13.709999900000001,-10.072406768798828,-0.47884035110473633,0.586579442024231,9.2926025390625,-1.6326904296875,4.547119140625
13.729999900000001,-10.072406768798828,-0.586579442024231,0.4644751250743866,13.85498046875,-4.0283203125,5.0201416015625
13.7499999,-10.086771965026855,-0.6105214357376099,0.45250412821769714,16.387939453125,-7.6751708984375,3.326416015625
13.7699999,-10.129867553710938,-0.5770025849342346,0.5339069962501526,16.6473388671875,-11.138916015625,-1.190185546875
13.789999900000002,-10.182539939880371,-0.5027823448181152,0.6775590777397156,15.594482421875,-13.7481689453125,-4.8980712890625
13.809999900000001,-10.211270332336426,-0.4213795065879822,0.8307880163192749,13.671875,-12.6495361328125,-5.31005859375
13.8299999,-10.192116737365723,-0.36152446269989014,0.9433154463768005,11.1083984375,-8.3770751953125,-4.608154296875
13.8499999,-10.137049674987793,-0.31364041566848755,0.9911994934082031,7.8277587890625,-7.5836181640625,-4.2877197265625
13.8699999,-10.043676376342773,-0.2944868206977844,0.9864110946655273,4.3182373046875,-10.040283203125,-4.669189453125
13.889999900000001,-9.93354320526123,-0.31364041566848755,0.9385270476341248,1.5411376953125,-8.8348388671875,-3.8604736328125
13.9099999,-9.837775230407715,-0.35434186458587646,0.8810662031173706,0.0152587890625,-3.6163330078125,-0.946044921875
13.9299999,-9.773131370544434,-0.3974374830722809,0.8236053586006165,-0.6561279296875,2.86865234375,0.1983642578125
13.9499999,-9.761159896850586,-0.4141969084739685,0.768538773059845,-1.190185546875,5.035400390625,-1.03759765625
13.969999900000001,-9.816226959228516,-0.38546648621559143,0.727837324142456,-1.495361328125,1.6326904296875,0
13.9899999,-9.931148529052734,-0.31603461503982544,0.7038952708244324,-1.495361328125,-1.8310546875,3.35693359375
14.0099999,-10.06043529510498,-0.2106897532939911,0.7038952708244324,-1.678466796875,-2.9296875,3.1280517578125
14.0299999,-10.17296314239502,-0.09576806426048279,0.7254431247711182,-1.77001953125,0.244140625,-0.457763671875
14.049999900000001,-10.266336441040039,0.014365210197865963,0.7445967197418213,-0.9613037109375,5.43212890625,-0.6866455078125
14.069999900000001,-10.359710693359375,0.1173158809542656,0.7709329724311829,0.18310546875,5.9661865234375,1.129150390625
14.0899999,-10.448296546936035,0.1843535304069519,0.7876923680305481,0.7476806640625,1.434326171875,-1.800537109375
14.1099999,-10.505757331848145,0.2059013396501541,0.811634361743927,1.4801025390625,-5.035400390625,-6.2103271484375
14.129999900000001,-10.500968933105469,0.17956513166427612,0.8331822156906128,3.204345703125,-6.04248046875,-4.9896240234375
14.149999900000001,-10.407594680786133,0.11971008777618408,0.8595184087753296,5.340576171875,-2.13623046875,-1.4190673828125
14.1699999,-10.273519515991211,0.047884032130241394,0.8834604024887085,6.622314453125,2.3345947265625,-1.46484375
14.1899999,-10.168174743652344,-0.004788403399288654,0.9169792532920837,5.950927734375,0.18310546875,-2.471923828125
14.209999900000001,-10.127472877502441,-0.05267243832349777,0.9528923034667969,3.7841796875,-4.2877197265625,-0.946044921875
14.229999900000001,-10.144232749938965,-0.10055647045373917,0.9864110946655273,1.190185546875,-2.9296875,0.1373291015625
14.2499999,-10.20648193359375,-0.16759411990642548,1.015141487121582,-0.8392333984375,2.6397705078125,-1.8310546875
14.2699999,-10.316615104675293,-0.2322375625371933,1.0223240852355957,-2.0599365234375,7.38525390625,-4.69970703125
14.289999900000002,-10.417171478271484,-0.2968810200691223,1.0103530883789062,-2.50244140625,7.38525390625,-5.889892578125
14.309999900000001,-10.493785858154297,-0.35434186458587646,0.9792284965515137,-2.3651123046875,4.5623779296875,-5.279541015625
14.3299999,-10.500968933105469,-0.3974374830722809,0.9385270476341248,-2.1209716796875,1.800537109375,-4.8980712890625
14.3499999,-10.414777755737305,-0.4429273009300232,0.8906430602073669,-1.77001953125,0.5035400390625,-6.134033203125
14.3699999,-10.268731117248535,-0.45489832758903503,0.8427590131759644,-1.4190673828125,0.5950927734375,-6.4849853515625
14.389999900000001,-10.070012092590332,-0.45250412821769714,0.7924807667732239,-1.220703125,0.5340576171875,-6.500244140625
14.4099999,-9.856928825378418,-0.4189853072166443,0.7541735172271729,-1.4495849609375,-1.6326904296875,-6.2255859375
14.4299999,-9.651026725769043,-0.38307225704193115,0.7254431247711182,-1.1749267578125,-1.8463134765625,-6.34765625
14.4499999,-9.490615844726562,-0.3447650372982025,0.7038952708244324,-0.3509521484375,-1.922607421875,-6.927490234375
14.469999900000001,-9.35654067993164,-0.30885201692581177,0.6943184733390808,1.3427734375,-3.6468505859375,-7.6446533203125
14.4899999,-9.277531623840332,-0.2825157940387726,0.7038952708244324,3.6468505859375,-3.6468505859375,-7.14111328125
14.5099999,-9.260771751403809,-0.24660277366638184,0.7398083209991455,5.0506591796875,-2.8076171875,-5.06591796875
14.5299999,-9.289502143859863,-0.22026655077934265,0.8140285611152649,4.6539306640625,-3.7841796875,-5.0201416015625
14.549999900000001,-9.373299598693848,-0.2059013396501541,0.9169792532920837,3.1280517578125,-4.6844482421875,-7.3394775390625
14.569999900000001,-9.459490776062012,-0.22505496442317963,1.0295066833496094,1.4495849609375,-3.90625,-8.8348388671875
14.5899999,-9.552865028381348,-0.26336219906806946,1.1444283723831177,0.1068115234375,-3.4027099609375,-6.591796875
14.6099999,-9.624691009521484,-0.3256114423274994,1.2425906658172607,-0.91552734375,-4.180908203125,-3.84521484375
14.629999900000001,-9.66539192199707,-0.4118026793003082,1.3192051649093628,-1.7242431640625,-8.270263671875,-2.86865234375
14.649999900000001,-9.696516990661621,-0.5099649429321289,1.3646949529647827,-2.655029296875,-11.41357421875,-1.922607421875
14.6699999,-9.708487510681152,-0.6177040338516235,1.3862427473068237,-3.692626953125,-9.8114013671875,-2.0904541015625
14.6899999,-9.725247383117676,-0.7326257228851318,1.3838485479354858,-5.0048828125,-5.8746337890625,-3.448486328125
14.709999900000001,-9.761159896850586,-0.8403648138046265,1.3646949529647827,-7.26318359375,-4.638671875,-3.0059814453125
14.729999900000001,-9.835380554199219,-0.9265560507774353,1.3311761617660522,-9.9029541015625,-4.8828125,-1.220703125
14.7499999,-9.952696800231934,-0.9648633003234863,1.2856862545013428,-11.7340087890625,-2.716064453125,-1.9073486328125
14.7699999,-10.091560363769531,-0.9624691009521484,1.2210428714752197,-12.847900390625,1.068115234375,-5.9661865234375
14.789999900000002,-10.230423927307129,-0.9097966551780701,1.1348515748977661,-13.2904052734375,1.9073486328125,-9.246826171875
14.809999900000001,-10.321403503417969,-0.8331822156906128,1.0342950820922852,-12.51220703125,0.79345703125,-9.8419189453125
14.8299999,-10.338163375854492,-0.751779317855835,0.9265560507774353,-10.162353515625,1.28173828125,-8.4991455078125
14.8499999,-10.268731117248535,-0.6775590777397156,0.8379706144332886,-7.4310302734375,1.28173828125,-5.5694580078125
14.8699999,-10.168174743652344,-0.608127236366272,0.7829039692878723,-4.94384765625,1.953125,-2.3345947265625
14.889999900000001,-10.077195167541504,-0.5386953949928284,0.768538773059845,-2.655029296875,5.2490234375,-2.62451171875
14.9099999,-10.010157585144043,-0.47165772318840027,0.790086567401886,-1.1138916015625,5.1727294921875,-6.0882568359375
14.9299999,-9.962273597717285,-0.4118026793003082,0.8571242094039917,-0.8697509765625,-0.30517578125,-6.6680908203125
14.9499999,-9.914389610290527,-0.363918662071228,0.9576807022094727,-1.8157958984375,-3.509521484375,-2.0751953125
14.969999900000001,-9.84495735168457,-0.3280056416988373,1.0869675874710083,-3.72314453125,-2.471923828125,2.9449462890625
14.9899999,-9.75637149810791,-0.304063618183136,1.2090718746185303,-6.1798095703125,-0.2288818359375,6.1187744140625
15.0099999,-9.660603523254395,-0.2849099934101105,1.3072341680526733,-8.1939697265625,-0.3204345703125,10.4217529296875
15.0299999,-9.612719535827637,-0.26815059781074524,1.359906554222107,-9.7503662109375,0.213623046875,15.19775390625
15.049999900000001,-9.610325813293457,-0.26096799969673157,1.3646949529647827,-11.3372802734375,-0.1068115234375,15.625
15.069999900000001,-9.639056205749512,-0.2777273952960968,1.3407529592514038,-12.20703125,-3.3111572265625,12.786865234375
15.0899999,-9.710882186889648,-0.31603461503982544,1.292868971824646,-12.02392578125,-5.3863525390625,12.75634765625
15.1099999,-9.797073364257812,-0.3687070608139038,1.2449848651885986,-11.2152099609375,-5.7220458984375,13.2293701171875
15.129999900000001,-9.859322547912598,-0.4381389021873474,1.2042834758758545,-9.9334716796875,-3.8604736328125,9.21630859375
15.149999900000001,-9.873687744140625,-0.5027823448181152,1.173158884048462,-8.056640625,-1.2664794921875,5.9356689453125
15.1699999,-9.830592155456543,-0.5410895943641663,1.1540051698684692,-5.859375,-2.2430419921875,9.27734375
15.1899999,-10.24239444732666,-0.5937620401382446,1.161187767982483,-3.96728515625,-7.3699951171875,10.711669921875
15.209999900000001,-10.146626472473145,-0.6392518281936646,1.0893617868423462,-3.11279296875,-6.6070556640625,-11.04736328125
15.229999900000001,-10.596736907958984,-0.6584054827690125,1.0749965906143188,0.1983642578125,-4.21142578125,-6.3934326171875
15.2499999,-10.45547866821289,-0.6655880808830261,1.015141487121582,2.227783203125,-6.4697265625,2.5787353515625
15.2699999,-10.316615104675293,-0.5889736413955688,1.0319008827209473,3.6773681640625,-6.4239501953125,1.495361328125
15.289999900000002,-10.096348762512207,-0.5267243981361389,1.0749965906143188,7.2784423828125,-6.6680908203125,-1.8768310546875
15.309999900000001,-9.921571731567383,-0.45250412821769714,1.216254472732544,11.53564453125,-7.6446533203125,-3.0364990234375
15.3299999,-9.806650161743164,-0.4189853072166443,1.455674648284912,9.2926025390625,-5.157470703125,-1.5411376953125
15.3499999,-9.734824180603027,-0.4213795065879822,1.764526605606079,-0.67138671875,2.288818359375,1.2664794921875
15.3699999,-9.674968719482422,-0.45010992884635925,2.006340980529785,-12.20703125,9.5062255859375,3.3721923828125
15.389999900000001,-9.658209800720215,-0.4812345504760742,2.1164743900299072,-18.1732177734375,12.2528076171875,4.5928955078125
15.4099999,-9.696516990661621,-0.5674257874488831,2.0638017654418945,-20.843505859375,13.36669921875,6.8817138671875
15.4299999,-9.758766174316406,-0.6655880808830261,1.8842366933822632,-23.5137939453125,15.9912109375,11.1846923828125
15.4499999,-9.854534149169922,-0.7876923680305481,1.6184803247451782,-21.087646484375,16.845703125,13.8702392578125
15.469999900000001,-9.931148529052734,-0.9002198576927185,1.359906554222107,-11.7950439453125,13.5498046875,14.6484375
15.4899999,-9.945513725280762,-0.8906430602073669,1.0965443849563599,-4.33349609375,10.8489990234375,16.7388916015625
15.5099999,-9.96945571899414,-0.727837324142456,0.8403648138046265,-2.6092529296875,9.9029541015625,16.143798828125
15.5299999,-10.019734382629395,-0.4381389021873474,0.6033388376235962,0.640869140625,6.34765625,11.688232421875
15.549999900000001,-10.079588890075684,-0.08619125932455063,0.4357447028160095,7.7056884765625,-0.5340576171875,8.056640625
15.569999900000001,-10.08437728881836,0.3016694188117981,0.3064578175544739,10.0555419921875,-5.767822265625,5.3863525390625
15.5899999,-10.093954086303711,0.608127236366272,0.27054479718208313,7.75146484375,-7.8125,-1.007080078125
15.6099999,-10.050858497619629,0.7589619159698486,0.36152446269989014,5.0048828125,-9.4757080078125,-7.4310302734375
15.629999900000001,-9.950302124023438,0.7661445140838623,0.6703764796257019,-0.2593994140625,-10.5438232421875,-7.598876953125
15.649999900000001,-9.880870819091797,0.6512228846549988,0.9648633003234863,-14.678955078125,-7.232666015625,-4.6234130859375
15.6699999,-9.847352027893066,0.3663128614425659,1.2832920551300049,-26.1383056640625,-0.3814697265625,-5.92041015625
15.6899999,-9.801861763000488,0.026336219161748886,1.436521053314209,-17.8375244140625,-1.983642578125,-6.53076171875
15.709999900000001,-9.84495735168457,-0.507570743560791,1.5658079385757446,-3.8604736328125,-4.8980712890625,-2.1820068359375
15.729999900000001,-9.84495735168457,-0.8595184087753296,1.4772224426269531,7.62939453125,-5.5389404296875,1.1138916015625
15.7499999,-9.952696800231934,-1.1204863786697388,1.3958195447921753,20.2178955078125,-4.82177734375,-0.79345703125
15.7699999,-9.947908401489258,-1.0007762908935547,1.290474772453308,28.717041015625,-6.500244140625,-0.67138671875
15.789999900000002,-9.976638793945312,-0.6512228846549988,1.280897855758667,22.15576171875,-5.9051513671875,0.91552734375
15.809999900000001,-9.926360130310059,-0.17956513166427612,1.335964560508728,4.119873046875,-0.030517578125,0.67138671875
15.8299999,-9.876082420349121,0.19871874153614044,1.4676456451416016,-7.0343017578125,5.2642822265625,-1.1749267578125
15.8499999,-9.871294021606445,0.3447650372982025,1.4939818382263184,-4.1046142578125,2.960205078125,-0.732421875
15.869999900000002,-9.914389610290527,0.3232172429561615,1.3479355573654175,4.69970703125,-5.4473876953125,-2.685546875
15.889999900000001,-9.962273597717285,0.08619125932455063,1.0630255937576294,15.533447265625,-11.2152099609375,-7.598876953125
15.9099999,-10.041281700134277,-0.22266076505184174,0.751779317855835,25.848388671875,-13.214111328125,-8.514404296875
15.9299999,-10.053253173828125,-0.395043283700943,0.5554547905921936,30.0750732421875,-16.29638671875,-4.8370361328125
15.9499999,-10.0580415725708,-0.45250412821769714,0.5410895943641663,24.1241455078125,-19.5770263671875,-2.532958984375
15.969999900000001,-10.02452278137207,-0.36152446269989014,0.6823474764823914,13.36669921875,-20.263671875,-1.6326904296875
15.9899999,-9.888052940368652,-0.22505496442317963,1.4628572463989258,6.683349609375,-19.5159912109375,3.5400390625
16.0099999,-9.797073364257812,-0.272938996553421,1.9057846069335938,2.5177001953125,-18.06640625,2.3651123046875
16.0299999,-9.725247383117676,-0.40222588181495667,2.185906171798706,-0.30517578125,-12.664794921875,1.8768310546875
16.0499999,-9.672574996948242,-0.4668693244457245,2.322375535964966,0.8392333984375,-6.8511962890625,4.425048828125
16.0699999,-9.603142738342285,-0.42856210470199585,2.367865562438965,-1.3275146484375,-4.5166015625,8.1329345703125
16.089999900000002,-9.651026725769043,-0.24660277366638184,2.3056161403656006,-11.932373046875,-2.01416015625,8.9874267578125
16.109999900000002,-9.667786598205566,-0.021547814831137657,2.1739351749420166,-18.707275390625,-0.5950927734375,6.65283203125
16.1299999,-9.81143856048584,0.181959331035614,2.027888774871826,-14.404296875,-2.838134765625,6.1187744140625
16.1499999,-9.856928825378418,0.31364041566848755,1.9105730056762695,-5.706787109375,-10.1318359375,2.74658203125
16.1699999,-9.859322547912598,0.2753331959247589,1.8842366933822632,0,-9.613037109375,-4.8370361328125
16.1899999,-9.81143856048584,0.272938996553421,2.0231003761291504,2.716064453125,-1.2664794921875,-9.1400146484375
16.2099999,-9.744400978088379,0.090979665517807,2.1356279850006104,5.67626953125,4.0283203125,-5.615234375
16.2299999,-9.68694019317627,-0.019153613597154617,2.166752576828003,5.3253173828125,2.6397705078125,-3.0670166015625
16.249999900000002,-9.734824180603027,-0.22266076505184174,2.054224967956543,1.9378662109375,-0.54931640625,-1.708984375
16.269999900000002,-9.797073364257812,-0.3711012601852417,1.8267759084701538,3.35693359375,-2.471923828125,1.6326904296875
16.2899999,-9.849745750427246,-0.47405192255973816,1.6831238269805908,9.6282958984375,-9.8876953125,4.974365234375
16.3099999,-9.864110946655273,-0.49799394607543945,1.680729627609253,10.80322265625,-13.18359375,1.007080078125
16.3299999,-9.816226959228516,-0.38307225704193115,1.766920804977417,4.08935546875,-7.415771484375,-2.9144287109375
16.3499999,-9.770736694335938,-0.2801215946674347,1.922544002532959,-1.2664794921875,-0.152587890625,-1.52587890625
16.3699999,-9.672574996948242,-0.07422025501728058,2.0590133666992188,-1.5716552734375,0.030517578125,1.52587890625
16.3899999,-9.646238327026367,0.08858546614646912,2.1715409755706787,-3.2806396484375,-1.556396484375,1.2054443359375
16.4099999,-9.651026725769043,0.15562310814857483,2.1547815799713135,-5.645751953125,-1.3275146484375,0.1068115234375
16.429999900000002,-9.751583099365234,0.1173158809542656,2.1499931812286377,-1.800537109375,-2.62451171875,3.7841796875
16.4499999,-9.773131370544434,-0.08379705995321274,2.049436569213867,4.0130615234375,-9.21630859375,4.4097900390625
16.4699999,-9.830592155456543,-0.2753331959247589,2.032677173614502,5.18798828125,-10.5743408203125,0.5340576171875
16.4899999,-9.775525093078613,-0.36152446269989014,1.946485996246338,2.0751953125,-3.7384033203125,1.03759765625
16.5099999,-9.710882186889648,-0.40462008118629456,2.0183119773864746,-0.5645751953125,0.457763671875,5.9814453125
16.5299999,-9.670180320739746,-0.15562310814857483,2.2577321529388428,-4.8980712890625,0.79345703125,7.3394775390625
16.5499999,-9.615114212036133,0.035913024097681046,2.4157495498657227,-16.4337158203125,3.8604736328125,5.9356689453125
16.5699999,-9.667786598205566,0.28730419278144836,2.492363929748535,-22.918701171875,10.101318359375,5.0506591796875
16.589999900000002,-9.732429504394531,0.40701428055763245,2.451662540435791,-14.068603515625,3.35693359375,4.8065185546875
16.609999900000002,-9.806650161743164,0.31124621629714966,2.1045033931732178,1.77001953125,-8.1939697265625,-1.129150390625
16.6299999,-9.897629737854004,0.0694318488240242,1.7860745191574097,13.3209228515625,-12.1612548828125,-5.5694580078125
16.6499999,-9.919178009033203,-0.15562310814857483,1.5298948287963867,19.622802734375,-10.6658935546875,-3.2806396484375
16.6699999,-9.854534149169922,-0.33518823981285095,1.5514427423477173,19.6990966796875,-11.3983154296875,3.1585693359375
16.6899999,-9.770736694335938,-0.2298433631658554,1.7501614093780518,10.1776123046875,-10.5438232421875,4.669189453125
16.7099999,-9.68933391571045,-0.07182604819536209,2.2146365642547607,-6.53076171875,-5.3558349609375,5.340576171875
16.7299999,-9.600749015808105,0.15801730751991272,2.6192567348480225,-19.287109375,3.41796875,8.087158203125
16.749999900000002,-9.617507934570312,0.23702596127986908,2.9927520751953125,-21.8353271484375,2.38037109375,8.7890625
16.769999900000002,-9.59835433959961,0.1867477297782898,3.0573954582214355,-18.5089111328125,2.3345947265625,3.8604736328125
16.7899999,-9.63187313079834,0.0454898327589035,2.892195701599121,-12.4969482421875,5.18798828125,2.0751953125
16.8099999,-9.63187313079834,-0.11971008777618408,2.5282769203186035,-3.204345703125,5.6915283203125,5.0201416015625
16.8299999,-9.703699111938477,-0.07661445438861847,2.169146776199341,4.7454833984375,-0.54931640625,6.3629150390625
16.8499999,-9.667786598205566,0.10055647045373917,1.965639591217041,1.0528564453125,-2.8533935546875,4.3487548828125
16.8699999,-9.734824180603027,0.3687070608139038,2.006340980529785,-12.1002197265625,3.814697265625,3.1585693359375
16.8899999,-9.6989107131958,0.6153098344802856,2.188300371170044,-18.1732177734375,7.9803466796875,2.01416015625
16.9099999,-9.696516990661621,0.6105214357376099,2.43011474609375,-14.2822265625,3.570556640625,0.030517578125
16.929999900000002,-9.68694019317627,0.49559974670410156,2.5498247146606445,-7.75146484375,2.8076171875,-4.2877197265625
16.9499999,-9.725247383117676,0.2059013396501541,2.4444799423217773,0.091552734375,5.767822265625,-5.706787109375
16.9699999,-9.765948295593262,-0.0071826050989329815,2.205059766769409,14.6942138671875,3.4027099609375,-5.0506591796875
16.9899999,-9.78989028930664,-0.1149216815829277,1.9991583824157715,24.505615234375,-4.8675537109375,-3.326416015625
17.0099999,-9.75637149810791,0.0071826050989329815,1.9823989868164062,14.1448974609375,-2.8839111328125,-2.716064453125
17.0299999,-9.68694019317627,0.21787235140800476,2.1787235736846924,-9.3536376953125,6.8511962890625,-1.3885498046875
17.0499999,-9.612719535827637,0.3998316824436188,2.5522189140319824,-26.2451171875,12.8326416015625,-2.5787353515625
17.0699999,-9.569623947143555,0.40222588181495667,2.7724854946136475,-29.4342041015625,11.3525390625,-0.6866455078125
17.089999900000002,-9.624691009521484,0.21787235140800476,2.7509377002716064,-23.7579345703125,10.589599609375,-1.007080078125
17.109999900000002,-9.68694019317627,-0.14844051003456116,2.403778553009033,-10.4522705078125,10.345458984375,-2.3040771484375
17.1299999,-9.837775230407715,-0.44532153010368347,1.9704279899597168,7.1258544921875,4.5928955078125,-0.1220703125
17.1499999,-9.914389610290527,-0.5770025849342346,1.6089035272598267,16.2506103515625,-3.387451171875,3.7078857421875
17.1699999,-9.955090522766113,-0.3878606855869293,1.5107412338256836,8.514404296875,-2.25830078125,5.67626953125
17.1899999,-9.871294021606445,-0.08858546614646912,1.6424223184585571,-5.9051513671875,2.0294189453125,4.5928955078125
17.2099999,-9.761159896850586,0.26336219906806946,1.9560627937316895,-12.8936767578125,2.9449462890625,-0.152587890625
17.2299999,-9.701305389404297,0.4118026793003082,2.166752576828003,-12.9852294921875,1.03759765625,0.79345703125
17.249999900000002,-9.660603523254395,0.33279404044151306,2.2601263523101807,-9.0179443359375,1.28173828125,-0.762939453125
17.269999900000002,-9.66299819946289,0.090979665517807,2.1475989818573,0.457763671875,0.946044921875,-3.90625
17.2899999,-9.75637149810791,-0.10055647045373917,2.0374655723571777,11.77978515625,-0.1220703125,-2.7618408203125
17.3099999,-9.708487510681152,-0.19871874153614044,1.9512743949890137,16.05224609375,-2.7313232421875,0.732421875
17.3299999,-9.751583099365234,-0.021547814831137657,2.011129379272461,10.5743408203125,0.7171630859375,2.01416015625
17.3499999,-9.727641105651855,0.17717093229293823,2.118868589401245,5.2337646484375,1.9989013671875,-1.6632080078125
17.3699999,-9.682151794433594,0.45010992884635925,2.363077163696289,2.3193359375,2.044677734375,-6.2408447265625
17.3899999,-9.643844604492188,0.586579442024231,2.6144683361053467,-6.5765380859375,5.5389404296875,-5.18798828125
17.409999900000003,-9.612719535827637,0.43335050344467163,2.6815059185028076,-15.6097412109375,14.007568359375,-7.720947265625
17.429999900000002,-9.603142738342285,0.15083470940589905,2.6360161304473877,-13.18359375,17.7001953125,-8.6822509765625
17.4499999,-9.6989107131958,-0.2346317619085312,2.274491548538208,-0.42724609375,14.34326171875,-1.6937255859375
17.4699999,-9.780313491821289,-0.569819986820221,1.7597382068634033,9.246826171875,5.7525634765625,4.608154296875
17.4899999,-9.940725326538086,-0.6129156351089478,1.3072341680526733,11.016845703125,-0.5035400390625,6.7291259765625
17.5099999,-10.012551307678223,-0.47405192255973816,1.036689281463623,10.772705078125,-5.126953125,4.302978515625
17.5299999,-10.012551307678223,-0.1388636976480484,1.1444283723831177,8.48388671875,-8.4075927734375,1.007080078125
17.5499999,-9.950302124023438,0.15801730751991272,1.4293384552001953,1.6021728515625,-7.3699951171875,-1.2359619140625
17.5699999,-9.818621635437012,0.33758243918418884,1.764526605606079,-4.852294921875,-2.960205078125,-5.0048828125
17.589999900000002,-9.737217903137207,0.26575639843940735,2.0638017654418945,-6.77490234375,1.983642578125,-4.6844482421875
17.609999900000002,-9.605537414550781,0.12689268589019775,2.250549554824829,-9.3841552734375,6.0272216796875,2.3345947265625
17.6299999,-9.63187313079834,-0.1173158809542656,2.3056161403656006,-13.2598876953125,7.5836181640625,9.9334716796875
17.6499999,-9.679757118225098,-0.24899697303771973,2.233790159225464,-12.0849609375,5.4931640625,10.4827880859375
17.6699999,-9.806650161743164,-0.2825157940387726,2.0829553604125977,-3.8604736328125,1.3885498046875,8.1787109375
17.6899999,-9.943120002746582,-0.16759411990642548,1.8363527059555054,2.9754638671875,-4.82177734375,7.4310302734375
17.7099999,-9.99339771270752,0.011971008032560349,1.644816517829895,4.8065185546875,-9.429931640625,2.960205078125
17.7299999,-9.955090522766113,0.1843535304069519,1.5921441316604614,5.706787109375,-8.6517333984375,-4.7607421875
17.749999900000002,-9.854534149169922,0.3711012601852417,1.7477672100067139,4.913330078125,-2.7008056640625,-5.767822265625
17.769999900000002,-9.744400978088379,0.45010992884635925,1.9249382019042969,-0.5645751953125,4.1656494140625,-1.953125
17.7899999,-9.646238327026367,0.4572925269603729,2.1571757793426514,-5.3253173828125,6.0882568359375,-0.1373291015625
17.8099999,-9.603142738342285,0.42616790533065796,2.2409727573394775,-5.2947998046875,3.23486328125,-0.152587890625
17.8299999,-9.622296333312988,0.23702596127986908,2.3032219409942627,-3.1280517578125,3.936767578125,0.06103515625
17.8499999,-9.677363395690918,0.10773907601833344,2.276885747909546,-2.6702880859375,4.150390625,1.8310546875
17.8699999,-9.742006301879883,-0.07661445438861847,2.166752576828003,-1.556396484375,1.556396484375,2.2125244140625
17.8899999,-9.799467086791992,-0.1843535304069519,2.0159177780151367,4.5166015625,-1.6632080078125,-2.1514892578125
17.909999900000003,-9.837775230407715,-0.1867477297782898,1.821987509727478,10.2996826171875,-1.2969970703125,-4.180908203125
17.929999900000002,-9.832986831665039,-0.12928688526153564,1.6400281190872192,7.7972412109375,1.4495849609375,-0.701904296875
17.9499999,-9.794678688049316,0.05027823522686958,1.6496049165725708,-0.30517578125,1.5869140625,0.6561279296875
17.9699999,-9.770736694335938,0.2322375625371933,1.6927006244659424,-6.6986083984375,-0.3662109375,0.885009765625
17.9899999,-9.749189376831055,0.36152446269989014,1.8531121015548706,-8.5601806640625,-0.701904296875,-0.3204345703125
18.0099999,-9.763554573059082,0.40222588181495667,2.0015525817871094,-7.5531005859375,-0.3814697265625,-1.2969970703125
18.0299999,-9.792284965515137,0.2825157940387726,2.10210919380188,-5.5389404296875,-2.5634765625,-0.579833984375
18.0499999,-9.852140426635742,0.07661445438861847,2.1547815799713135,-0.030517578125,-4.486083984375,-1.2054443359375
18.0699999,-9.84256362915039,-0.16759411990642548,2.1140801906585693,9.4757080078125,-5.18798828125,-2.1820068359375
18.089999900000002,-9.780313491821289,-0.2753331959247589,2.1308395862579346,12.2222900390625,-1.4190673828125,-1.5716552734375
18.109999900000002,-9.734824180603027,-0.21308395266532898,2.145204782485962,3.9825439453125,4.608154296875,1.9378662109375
18.1299999,-9.619902610778809,0.011971008032560349,2.1571757793426514,-6.5765380859375,7.8582763671875,0.762939453125
18.1499999,-9.612719535827637,0.2944868206977844,2.2170307636260986,-11.4288330078125,6.7901611328125,-0.5950927734375
18.1699999,-9.653421401977539,0.4836287498474121,2.0638017654418945,-11.1083984375,5.5694580078125,-2.01416015625
18.1899999,-9.713275909423828,0.4357447028160095,1.9273324012756348,-5.7830810546875,1.1749267578125,-3.2501220703125
18.2099999,-9.864110946655273,0.21787235140800476,1.7357962131500244,3.9825439453125,-5.2490234375,-3.7841796875
18.2299999,-9.928754806518555,-0.07182604819536209,1.6160861253738403,13.4735107421875,-8.2550048828125,-3.7384033203125
18.249999900000002,-9.959878921508789,-0.31842881441116333,1.647210717201233,15.5029296875,-6.53076171875,-3.3111572265625
18.269999900000002,-9.880870819091797,-0.35434186458587646,1.7573440074920654,10.5133056640625,-0.5340576171875,-3.448486328125
18.2899999,-9.821015357971191,-0.15322890877723694,2.0374655723571777,0.2593994140625,5.31005859375,-0.7171630859375
18.3099999,-9.72285270690918,0.16998831927776337,2.2625205516815186,-12.14599609375,8.6517333984375,0.8697509765625
18.3299999,-9.672574996948242,0.4884171485900879,2.3558945655822754,-20.1416015625,8.23974609375,-1.251220703125
18.3499999,-9.708487510681152,0.6105214357376099,2.3080103397369385,-17.5018310546875,6.866455078125,-5.6610107421875
18.3699999,-9.720458984375,0.4692635238170624,2.1547815799713135,-5.859375,2.0294189453125,-6.9122314453125
18.3899999,-9.804255485534668,0.15322890877723694,1.9273324012756348,7.049560546875,-3.875732421875,-4.669189453125
18.409999900000003,-9.864110946655273,-0.272938996553421,1.7908629179000854,18.2037353515625,-7.4462890625,-4.608154296875
18.429999900000002,-9.859322547912598,-0.5051765441894531,1.7764976024627686,21.1944580078125,-5.8441162109375,-5.6610107421875
18.4499999,-9.852140426635742,-0.524330198764801,1.922544002532959,12.4053955078125,3.3111572265625,-4.8370361328125
18.4699999,-9.727641105651855,-0.3232172429561615,2.185906171798706,-2.0599365234375,12.8326416015625,-0.152587890625
18.4899999,-9.713275909423828,0.011971008032560349,2.451662540435791,-14.9688720703125,17.3797607421875,1.3580322265625
18.5099999,-9.62947940826416,0.2944868206977844,2.580949544906616,-24.1851806640625,18.707275390625,-0.3204345703125
18.5299999,-9.725247383117676,0.44771572947502136,2.403778553009033,-27.862548828125,20.4315185546875,-1.739501953125
18.5499999,-9.792284965515137,0.4213795065879822,2.0015525817871094,-21.0418701171875,14.6484375,-2.3193359375
18.5699999,-9.955090522766113,0.11252748221158981,1.3527239561080933,-0.518798828125,3.326416015625,-5.279541015625
18.589999900000002,-10.050858497619629,-0.13407529890537262,0.8475474119186401,31.402587890625,-11.0015869140625,-8.453369140625
18.609999900000002,-10.062829971313477,-0.363918662071228,0.6057330369949341,42.5262451171875,-17.02880859375,-10.1470947265625
18.6299999,-9.983820915222168,-0.3711012601852417,0.8092401623725891,28.3050537109375,-12.908935546875,-10.284423828125
18.6499999,-9.837775230407715,-0.22026655077934265,1.3766659498214722,5.2642822265625,-4.1961669921875,-8.2550048828125
18.6699999,-9.682151794433594,-0.07661445438861847,2.049436569213867,-13.8397216796875,4.9896240234375,-5.2947998046875
18.6899999,-9.583989143371582,-0.033518824726343155,2.583343744277954,-22.674560546875,11.2457275390625,-3.1890869140625
18.7099999,-9.560047149658203,-0.11971008777618408,2.8203697204589844,-22.613525390625,14.3585205078125,-2.13623046875
18.7299999,-9.607931137084961,-0.2992752194404602,2.7485435009002686,-16.3421630859375,15.716552734375,-0.396728515625
18.749999900000002,-9.684545516967773,-0.49799394607543945,2.456450939178467,-6.5155029296875,14.739990234375,1.251220703125
18.769999900000002,-9.84495735168457,-0.6344634294509888,2.0685901641845703,2.4871826171875,12.908935546875,2.227783203125
18.7899999,-9.950302124023438,-0.6703764796257019,1.6615760326385498,7.4615478515625,9.1705322265625,1.40380859375
18.8099999,-10.256759643554688,-0.5506663918495178,1.3311761617660522,9.5062255859375,6.134033203125,3.23486328125
18.8299999,-10.532093048095703,-0.38067805767059326,1.1061211824417114,10.6658935546875,3.2501220703125,-0.2593994140625
18.8499999,-10.8505220413208,-0.15083470940589905,0.9672574996948242,10.4827880859375,-0.579833984375,-11.2152099609375
18.8699999,-11.05402946472168,0.016759412363171577,0.8906430602073669,12.0391845703125,-0.0762939453125,-19.04296875
18.8899999,-11.02051067352295,0.10534487664699554,0.8643068075180054,15.411376953125,0.9002685546875,-22.76611328125
18.909999900000003,-10.74996566772461,0.0933738648891449,0.8643068075180054,17.3797607421875,2.5787353515625,-19.3328857421875
18.929999900000002,-10.309432983398438,-0.014365210197865963,0.8954314589500427,17.15087890625,7.62939453125,-11.6729736328125
18.9499999,-9.81143856048584,-0.16759411990642548,0.9696516990661621,14.9078369140625,12.054443359375,-5.859375
18.9699999,-9.351752281188965,-0.3447650372982025,1.072602391242981,10.6201171875,13.214111328125,-3.8299560546875
18.9899999,-8.992621421813965,-0.5099649429321289,1.192312479019165,5.37109375,13.9007568359375,-1.4801025390625
19.0099999,-8.78193187713623,-0.6368576288223267,1.2880805730819702,0.9613037109375,16.11328125,1.8768310546875
19.0299999,-8.667010307312012,-0.7254431247711182,1.3670891523361206,-0.274658203125,14.7552490234375,1.556396484375
19.0499999,-8.633491516113281,-0.7781155705451965,1.4197616577148438,1.434326171875,12.87841796875,0.7476806640625
19.0699999,-8.707711219787598,-0.7565677165985107,1.4628572463989258,3.7384033203125,10.7879638671875,5.31005859375
19.089999900000002,-8.863334655761719,-0.6512228846549988,1.53707754611969,4.69970703125,5.31005859375,9.0179443359375
19.109999900000002,-9.07641887664795,-0.507570743560791,1.6400281190872192,3.47900390625,-1.068115234375,8.575439453125
19.1299999,-9.337387084960938,-0.3232172429561615,1.7884687185287476,0.8087158203125,-5.1116943359375,10.9100341796875
19.1499999,-9.600749015808105,-0.14844051003456116,1.941697597503662,-2.410888671875,-3.0975341796875,14.892578125
19.1699999,-9.849745750427246,-0.028730420395731926,2.030282974243164,-5.401611328125,0.274658203125,14.0228271484375
19.1899999,-10.055646896362305,0.033518824726343155,2.032677173614502,-4.791259765625,-5.1422119140625,9.979248046875
19.2099999,-10.213664054870605,0.0454898327589035,1.9393033981323242,-0.5950927734375,-12.51220703125,7.9498291015625
19.2299999,-10.314221382141113,0.002394201699644327,1.7836803197860718,2.99072265625,-13.4429931640625,8.209228515625
19.249999900000002,-10.342951774597168,-0.05985504388809204,1.625662922859192,4.974365234375,-16.3421630859375,7.537841796875
19.269999900000002,-10.287884712219238,-0.15083470940589905,1.4987702369689941,7.5531005859375,-20.843505859375,3.2806396484375
19.2899999,-10.18493366241455,-0.23942017555236816,1.4197616577148438,10.8489990234375,-19.4091796875,0.8697509765625
19.3099999,-10.070012092590332,-0.3016694188117981,1.3958195447921753,12.1917724609375,-16.11328125,1.1749267578125
19.3299999,-9.914389610290527,-0.3447650372982025,1.4221558570861816,10.4827880859375,-16.6015625,-1.2054443359375
19.3499999,-9.758766174316406,-0.3447650372982025,1.5059528350830078,8.2550048828125,-12.2528076171875,-3.6163330078125
19.3699999,-9.588777542114258,-0.30885201692581177,1.5969325304031372,6.0577392578125,-0.30517578125,-1.251220703125
19.3899999,-9.607931137084961,-0.23942017555236816,1.699883222579956,2.593994140625,5.7220458984375,4.5166015625
19.409999900000003,-9.6989107131958,-0.24660277366638184,1.7286136150360107,-1.6937255859375,3.35693359375,-1.434326171875
19.429999900000002,-9.888052940368652,-0.181959331035614,1.7142484188079834,-3.8299560546875,1.3275146484375,-11.688232421875
19.4499999,-10.153809547424316,-0.2322375625371933,1.6328455209732056,-1.0986328125,-0.8697509765625,-0.3204345703125
19.4699999,-10.196905136108398,-0.2585737705230713,1.5059528350830078,1.40380859375,-2.7008056640625,5.9051513671875
19.4899999,-10.182539939880371,-0.31124621629714966,1.357512354850769,4.4097900390625,-5.859375,7.62939453125
19.5099999,-10.098742485046387,-0.33758243918418884,1.3120225667953491,9.6282958984375,-10.833740234375,7.7362060546875
19.5299999,-9.816226959228516,-0.1364694982767105,1.5490485429763794,2.99072265625,-7.7056884765625,7.0343017578125
19.5499999,-9.691728591918945,0.016759412363171577,1.778891921043396,-0.2899169921875,-5.889892578125,4.9285888671875
19.5699999,-9.607931137084961,0.19153612852096558,1.98958158493042,0.030517578125,-5.79833984375,3.997802734375
19.589999900000002,-9.57441234588623,0.3902548849582672,2.073378562927246,0.5340576171875,-4.5623779296875,2.3193359375
19.609999900000002,-9.624691009521484,0.5339069962501526,1.9991583824157715,5.096435546875,-5.615234375,-3.173828125
19.6299999,-9.730035781860352,0.6272808313369751,1.900996208190918,13.6566162109375,-10.0250244140625,-7.5836181640625
19.6499999,-9.775525093078613,0.5770025849342346,1.7573440074920654,19.073486328125,-13.275146484375,-7.8125
19.6699999,-9.837775230407715,0.4429273009300232,1.7357962131500244,20.56884765625,-13.2293701171875,-7.38525390625
19.6899999,-9.84495735168457,0.21547815203666687,1.944091796875,19.775390625,-11.9476318359375,-7.14111328125
19.7099999,-9.787496566772461,0.035913024097681046,2.319981336593628,8.85009765625,-6.9580078125,-2.99072265625
19.7299999,-9.730035781860352,-0.11971008777618408,2.715024709701538,-9.796142578125,3.2501220703125,2.50244140625
19.749999900000002,-9.648633003234863,-0.16998831927776337,3.0621838569641113,-20.904541015625,9.735107421875,4.913330078125
19.769999900000002,-9.679757118225098,-0.35673606395721436,3.0406360626220703,-20.0958251953125,11.90185546875,5.5694580078125
19.7899999,-9.63187313079834,-0.33758243918418884,2.8395233154296875,-11.3677978515625,10.3912353515625,6.988525390625
19.8099999,-9.77791976928711,-0.3423708379268646,2.2457611560821533,2.01416015625,3.5552978515625,6.622314453125
19.8299999,-9.849745750427246,-0.22266076505184174,1.7262194156646729,13.1072998046875,-3.7994384765625,4.486083984375
19.8499999,-9.983820915222168,-0.035913024097681046,1.314416766166687,13.153076171875,-6.9580078125,3.6163330078125
19.8699999,-9.979032516479492,0.22744916379451752,1.1468225717544556,2.9754638671875,-7.0343017578125,5.7830810546875
19.8899999,-9.923966407775879,0.4429273009300232,1.2497732639312744,-6.1492919921875,-8.0413818359375,5.340576171875
19.909999900000003,-9.849745750427246,0.5602431893348694,1.5610195398330688,-6.378173828125,-8.4381103515625,2.3345947265625
19.929999900000002,-9.727641105651855,0.6177040338516235,1.9153614044189453,-2.685546875,-10.009765625,-0.457763671875
19.9499999,-9.684545516967773,0.47405192255973816,2.209848165512085,3.1890869140625,-9.124755859375,-2.7008056640625
19.9699999,-9.655815124511719,0.3423708379268646,2.535459518432617,7.8887939453125,-6.6070556640625,-5.0048828125
19.9899999,-9.59835433959961,0.1867477297782898,2.698265314102173,5.584716796875,0.1068115234375,-4.8828125
20.0099999,-9.555258750915527,0.15322890877723694,2.75812029838562,-2.01416015625,6.3323974609375,-2.62451171875
20.0299999,-9.564835548400879,0.21787235140800476,2.741360902786255,-7.171630859375,5.8441162109375,-2.2735595703125
20.0499999,-9.62947940826416,0.2777273952960968,2.564189910888672,-6.591796875,3.0517578125,-2.105712890625
