# Time (seconds),Accel_X,Accel_Y,Accel_Z,Gyro_X,Gyro_Y,Gyro_Z
0.0099999,-6.598419666290283,-6.856993675231934,1.2856862545013428,9.0484619140625,55.23681640625,107.3150634765625
0.029999900000000003,-7.127538681030273,-6.507440090179443,1.2282254695892334,4.08935546875,31.768798828125,93.9483642578125
0.0499999,-7.965508937835693,-6.01423454284668,1.2282254695892334,11.3525390625,8.48388671875,100.8148193359375
0.0699999,-8.185775756835938,-5.868188381195068,1.359906554222107,11.4898681640625,3.2806396484375,87.8143310546875
0.08999990000000001,-8.200140953063965,-5.779603004455566,1.5514427423477173,11.3677978515625,5.5084228515625,79.8492431640625
0.10999990000000001,-8.10437297821045,-5.731719017028809,1.723825216293335,9.6588134765625,7.5225830078125,81.7718505859375
0.1299999,-7.9415669441223145,-5.702988624572754,1.8698714971542358,7.720947265625,8.056640625,88.2720947265625
0.14999990000000002,-7.850587368011475,-5.626373767852783,1.9297266006469727,6.1187744140625,13.3819580078125,89.8284912109375
0.1699999,-7.910442352294922,-5.475539207458496,1.9081788063049316,4.5623779296875,20.5078125,86.85302734375
0.1899999,-8.125920295715332,-5.231330871582031,1.7908629179000854,4.39453125,24.6124267578125,86.24267578125
0.20999990000000002,-8.497021675109863,-4.972756862640381,1.6136919260025024,3.84521484375,22.9949951171875,79.2388916015625
0.2299999,-8.944737434387207,-4.699818134307861,1.3623007535934448,4.1351318359375,22.491455078125,67.7337646484375
0.2499999,-9.354146003723145,-4.513070106506348,1.115697979927063,4.0740966796875,20.782470703125,61.737060546875
0.2699999,-9.744400978088379,-4.347870349884033,0.8403648138046265,2.4566650390625,17.4713134765625,64.0716552734375
0.28999990000000003,-10.005369186401367,-4.2329487800598145,0.5793967843055725,2.6397705078125,12.1002197265625,62.19482421875
0.3099999,-10.137049674987793,-4.1180267333984375,0.3471592366695404,6.1187744140625,8.9569091796875,53.3599853515625
0.3299999,-10.139444351196289,-3.9863457679748535,0.1364694982767105,11.2457275390625,10.5133056640625,47.4853515625
0.34999990000000003,-9.952696800231934,-3.821146011352539,-0.014365210197865963,15.899658203125,8.5601806640625,48.1109619140625
0.3699999,-9.607931137084961,-3.643975019454956,-0.08619125932455063,17.7001953125,6.9427490234375,51.483154296875
0.3899999,-9.215282440185547,-3.4524388313293457,-0.09576806426048279,17.425537109375,11.0321044921875,54.5654296875
0.40999990000000003,-8.868123054504395,-3.2369606494903564,-0.028730420395731926,16.265869140625,13.9923095703125,58.837890625
0.4299999,-8.681375503540039,-2.9975404739379883,0.08379705995321274,13.580322265625,14.2364501953125,59.9822998046875
0.4499999,-8.65743350982666,-2.7437551021575928,0.21787235140800476,9.58251953125,15.655517578125,52.6885986328125
0.4699999,-8.777143478393555,-2.5043349266052246,0.3471592366695404,4.8980712890625,19.5770263671875,42.5262451171875
0.4899999,-8.99740982055664,-2.3127987384796143,0.42377370595932007,0.7171630859375,21.4385986328125,38.2537841796875
0.5099999,-9.23443603515625,-2.1811177730560303,0.4429273009300232,-2.044677734375,16.3421630859375,37.90283203125
0.5299999,-9.44752025604248,-2.123656988143921,0.40462008118629456,-3.662109375,10.9710693359375,34.088134765625
0.5499999,-9.619902610778809,-2.078166961669922,0.33518823981285095,-4.39453125,11.3983154296875,27.8167724609375
0.5699999,-9.708487510681152,-2.030282974243164,0.23702596127986908,-4.2572021484375,13.18359375,21.6217041015625
0.5899998999999999,-9.703699111938477,-1.9967641830444336,0.15801730751991272,-3.082275390625,10.162353515625,18.00537109375
0.6099998999999999,-9.718064308166504,-1.9393033981323242,0.07900865375995636,-1.800537109375,5.889892578125,17.1661376953125
0.6299999,-9.768342971801758,-1.8986018896102905,0.023942016065120697,0.18310546875,1.5411376953125,15.2740478515625
0.6499999,-9.880870819091797,-1.86508309841156,0.028730420395731926,1.9073486328125,-5.950927734375,15.2587890625
0.6699999,-10.065223693847656,-1.7836803197860718,0.08140286058187485,0.91552734375,-12.420654296875,16.0369873046875
0.6899999,-10.469843864440918,-1.647210717201233,0.14604631066322327,-2.166748046875,-11.077880859375,8.4991455078125
0.7099999,-10.795455932617188,-1.556231141090393,0.19153612852096558,-6.16455078125,2.86865234375,-7.232666015625
0.7299998999999999,-11.061211585998535,-1.4053963422775269,0.1173158809542656,-10.284423828125,5.0811767578125,-7.476806640625
0.7499998999999999,-11.003750801086426,-1.338358759880066,-0.014365210197865963,-12.2833251953125,0.0457763671875,-4.5166015625
0.7699999,-10.675745010375977,-1.3192051649093628,-0.1867477297782898,-11.016845703125,-1.4801025390625,-2.6092529296875
0.7899999,-10.220847129821777,-1.3335703611373901,-0.304063618183136,-8.331298828125,-1.922607421875,1.4801025390625
0.8099999,-9.890447616577148,-1.4197616577148438,-0.3208230137825012,-5.889892578125,-2.74658203125,5.5694580078125
0.8299999,-9.763554573059082,-1.4987702369689941,-0.2561795711517334,-6.256103515625,-3.2806396484375,8.8653564453125
0.8499998999999999,-9.773131370544434,-1.534683346748352,-0.15322890877723694,-8.6822509765625,-2.6092529296875,11.1846923828125
0.8699998999999999,-9.864110946655273,-1.5155296325683594,-0.031124621629714966,-12.2222900390625,-2.5177001953125,12.5274658203125
0.8899999,-9.95748519897461,-1.460463047027588,0.090979665517807,-19.4549560546875,-2.4871826171875,16.143798828125
0.9099999,-9.971850395202637,-1.3910311460494995,0.19632454216480255,-27.862548828125,0.244140625,19.95849609375
0.9299999,-9.952696800231934,-1.3335703611373901,0.2753331959247589,-30.6549072265625,1.9378662109375,23.0865478515625
0.9499999,-9.904812812805176,-1.235408067703247,0.31124621629714966,-28.3203125,1.77001953125,23.5443115234375
0.9699998999999999,-9.861717224121094,-1.0749965906143188,0.28969839215278625,-25.8331298828125,2.6702880859375,21.8353271484375
0.9899998999999999,-9.943120002746582,-0.9145850539207458,0.22505496442317963,-22.0947265625,1.9378662109375,17.7154541015625
1.0099999,-9.904812812805176,-0.7733271718025208,0.1843535304069519,-14.892578125,-8.5906982421875,9.735107421875
1.0299999,-9.773131370544434,-0.6584054827690125,0.15801730751991272,-8.3465576171875,-10.0860595703125,6.1187744140625
1.0499999,-9.761159896850586,-0.5482721924781799,0.12928688526153564,-4.5928955078125,3.326416015625,10.5133056640625
1.0699999,-9.66539192199707,-0.4884171485900879,0.10055647045373917,-1.9683837890625,9.2315673828125,11.7950439453125
1.0899999,-9.813833236694336,-0.3926490843296051,0.040701430290937424,-2.960205078125,6.622314453125,12.8021240234375
1.1099999,-9.955090522766113,-0.31842881441116333,-0.07900865375995636,-5.706787109375,5.9356689453125,13.7939453125
1.1299999,-10.031704902648926,-0.22266076505184174,-0.16519992053508759,-6.866455078125,5.3558349609375,10.7421875
1.1499999,-10.041281700134277,-0.12210428714752197,-0.20350714027881622,-8.6669921875,4.150390625,6.4544677734375
1.1699998999999999,-10.019734382629395,-0.05506663769483566,-0.20111294090747833,-13.580322265625,4.6539306640625,4.4097900390625
1.1899998999999999,-9.998186111450195,-0.040701430290937424,-0.16519992053508759,-19.04296875,5.5999755859375,4.9896240234375
1.2099999,-9.967061996459961,-0.1173158809542656,-0.09816227108240128,-21.42333984375,5.7525634765625,5.523681640625
1.2299999,-9.864110946655273,-0.2346317619085312,-0.10055647045373917,-21.8963623046875,6.16455078125,7.3699951171875
1.2499999,-9.950302124023438,-0.3902548849582672,-0.19632454216480255,-17.15087890625,4.4097900390625,5.3558349609375
1.2699999,-9.940725326538086,-0.6344634294509888,-0.31603461503982544,-7.6904296875,3.173828125,6.9580078125
1.2899999,-10.050858497619629,-0.7613561153411865,-0.3711012601852417,-6.8817138671875,0.8087158203125,13.519287109375
1.3099999,-10.062829971313477,-0.8738836050033569,-0.4429273009300232,-19.0277099609375,0.152587890625,15.6707763671875
1.3299999,-10.02452278137207,-0.8595184087753296,-0.4572925269603729,-24.688720703125,0.244140625,15.167236328125
1.3499999,-10.017339706420898,-0.7613561153411865,-0.5482721924781799,-15.4571533203125,-3.7689208984375,15.594482421875
1.3699999,-10.029311180114746,-0.5889736413955688,-0.6727706789970398,-4.5318603515625,-7.720947265625,16.998291015625
1.3899999,-10.074800491333008,-0.3208230137825012,-0.8738836050033569,4.3487548828125,-10.19287109375,16.11328125
1.4099999,-10.108319282531738,-0.035913024097681046,-0.9672574996948242,15.228271484375,-12.26806640625,11.993408203125
1.4299998999999999,-10.043676376342773,0.22505496442317963,-0.9361328482627869,18.9971923828125,-14.9078369140625,10.1318359375
1.4499999,-9.995792388916016,0.5123591423034668,-0.706289529800415,13.0157470703125,-15.7928466796875,8.8653564453125
1.4699999,-9.916783332824707,0.6009446382522583,-0.3711012601852417,7.0343017578125,-13.2598876953125,7.3394775390625
1.4899999,-9.923966407775879,0.6751648783683777,0.1388636976480484,4.7454833984375,-12.0849609375,7.3394775390625
1.5099999,-9.86650562286377,0.7086837291717529,0.6416460275650024,-0.6866455078125,-10.3302001953125,7.2021484375
1.5299999,-9.86889934539795,0.727837324142456,1.0749965906143188,-7.476806640625,-4.425048828125,-0.3509521484375
1.5499999,-9.828198432922363,0.7182605266571045,1.3455413579940796,-7.293701171875,2.197265625,-6.8206787109375
1.5699999,-9.806650161743164,0.6775590777397156,1.4269442558288574,-5.4473876953125,10.9710693359375,-6.683349609375
1.5899999,-9.775525093078613,0.6200982332229614,1.3024457693099976,-10.0860595703125,18.2342529296875,-5.5389404296875
1.6099999,-9.785101890563965,0.5626373887062073,1.0558429956436157,-15.6402587890625,19.683837890625,-6.3018798828125
1.6299999,-9.86650562286377,0.43095630407333374,0.689530074596405,-14.7705078125,20.904541015625,-6.6375732421875
1.6499999,-9.93593692779541,0.29209262132644653,0.24420857429504395,-10.498046875,18.7530517578125,-2.9449462890625
1.6699999,-10.077195167541504,0.06464344263076782,-0.3208230137825012,-7.6751708984375,8.331298828125,-4.486083984375
1.6899998999999999,-10.105925559997559,-0.3064578175544739,-0.8738836050033569,0.2288818359375,0.762939453125,-7.0343017578125
1.7099999,-10.14902114868164,-0.6775590777397156,-1.3479355573654175,15.594482421875,-0.06103515625,-2.44140625
1.7299999,-10.098742485046387,-0.8571242094039917,-1.5131354331970215,25.726318359375,-4.974365234375,4.94384765625
1.7499999,-10.072406768798828,-0.8882488012313843,-1.4413094520568848,21.7132568359375,-7.8125,5.4473876953125
1.7699999,-10.017339706420898,-0.6009446382522583,-1.1803414821624756,14.6636962890625,-7.354736328125,5.828857421875
1.7899999,-10.105925559997559,-0.17956513166427612,-0.7469909191131592,10.589599609375,-7.0953369140625,9.490966796875
1.8099999,-10.002974510192871,0.304063618183136,-0.31364041566848755,2.1514892578125,-10.833740234375,6.1492919921875
1.8299999,-10.036493301391602,0.6512228846549988,0.10534487664699554,-10.650634765625,-12.3443603515625,-3.0364990234375
1.8499999,-9.914389610290527,0.727837324142456,0.40222588181495667,-13.9007568359375,-4.9285888671875,-6.4849853515625
1.8699999,-9.864110946655273,0.6392518281936646,0.6655880808830261,-7.4462890625,0.152587890625,-1.28173828125
1.8899999,-9.818621635437012,0.5003881454467773,0.8307880163192749,-9.6588134765625,5.9661865234375,-0.152587890625
1.9099999,-9.770736694335938,0.3495534360408783,0.8762778043746948,-15.56396484375,10.19287109375,-1.312255859375
1.9299998999999999,-9.864110946655273,0.395043283700943,0.8379706144332886,-15.167236328125,12.39013671875,-0.2288818359375
1.9499999,-9.890447616577148,0.40701428055763245,0.6655880808830261,-11.474609375,12.6953125,0.8087158203125
1.9699999,-9.940725326538086,0.3519476354122162,0.40701428055763245,-9.9334716796875,6.7596435546875,-9.246826171875
1.9899999,-9.99100399017334,0.14365209639072418,0.090979665517807,-7.50732421875,8.2550048828125,-11.4593505859375
2.0099999,-9.916783332824707,-0.1173158809542656,-0.17956513166427612,1.0986328125,11.8408203125,-6.4849853515625
2.0299999,-9.888052940368652,-0.3998316824436188,-0.49320554733276367,4.3487548828125,8.819580078125,6.4544677734375
2.0499999,-9.847352027893066,-0.45250412821769714,-0.6607996821403503,-3.5247802734375,4.669189453125,2.5787353515625
2.0699999,-9.923966407775879,-0.3232172429561615,-0.7134721279144287,-15.5181884765625,3.9520263671875,3.4332275390625
2.0899999,-10.038887977600098,0.0454898327589035,-0.4620809257030487,-32.5164794921875,6.6680908203125,5.889892578125
2.1099999,-10.06043529510498,0.22744916379451752,-0.4405331015586853,-48.4619140625,10.0860595703125,2.25830078125
2.1299999,-10.156203269958496,0.20350714027881622,-0.5291185975074768,-23.712158203125,-0.5645751953125,-1.9378662109375
2.1499999,-10.192116737365723,-0.2777273952960968,-1.0989385843276978,21.453857421875,-10.8184814453125,-5.2490234375
2.1699999,-10.285490036010742,-0.6368576288223267,-1.479616641998291,56.1370849609375,-19.378662109375,3.0059814453125
2.1899999,-10.247182846069336,-0.7637503147125244,-1.6519991159439087,46.6766357421875,-16.7694091796875,11.65771484375
2.2099999,-10.127472877502441,-0.5434837937355042,-1.3024457693099976,15.9149169921875,-15.7623291015625,7.781982421875
2.2299999,-10.04846477508545,-0.10773907601833344,-0.7637503147125244,-0.3814697265625,-15.8233642578125,4.6234130859375
2.2499999,-9.928754806518555,0.26575639843940735,-0.21308395266532898,3.60107421875,-19.622802734375,7.2479248046875
2.2699999,-9.888052940368652,0.5051765441894531,0.2298433631658554,8.7432861328125,-18.9971923828125,8.8348388671875
2.2899999,-9.835380554199219,0.6105214357376099,0.6823474764823914,2.3651123046875,-13.97705078125,1.800537109375
2.3099999,-9.782708168029785,0.586579442024231,0.9313444495201111,-5.0811767578125,-4.7607421875,-5.340576171875
2.3299999,-9.739612579345703,0.6560112833976746,1.2737152576446533,3.7994384765625,0.8544921875,-0.42724609375
2.3499999,-9.746794700622559,0.7374141216278076,1.4676456451416016,-6.8206787109375,11.23046875,0.3662109375
2.3699999,-9.739612579345703,0.8331822156906128,1.4915876388549805,-33.0657958984375,17.669677734375,-4.1351318359375
2.3899999,-9.835380554199219,0.8810662031173706,1.3431471586227417,-39.031982421875,20.294189453125,-6.3018798828125
2.4099999,-9.856928825378418,0.6368576288223267,0.8092401623725891,-18.9971923828125,16.5557861328125,-4.8370361328125
2.4299999,-10.089165687561035,0.181959331035614,-0.004788403399288654,11.71875,6.04248046875,-5.92041015625
2.4499999,-10.129867553710938,-0.2561795711517334,-0.751779317855835,28.86962890625,-1.5869140625,-6.1492919921875
2.4699999,-10.177751541137695,-0.608127236366272,-1.314416766166687,30.548095703125,-2.8076171875,-5.92041015625
2.4899999,-10.055646896362305,-0.49799394607543945,-1.2330138683319092,28.13720703125,-5.218505859375,-2.5787353515625
2.5099999,-9.962273597717285,-0.22744916379451752,-0.790086567401886,-2.532958984375,-1.5716552734375,4.8828125
2.5299999,-9.835380554199219,0.22505496442317963,-0.10055647045373917,-46.142578125,11.29150390625,0.091552734375
2.5499999,-9.816226959228516,0.6631938815116882,0.6200982332229614,-54.0924072265625,14.862060546875,-0.152587890625
2.5699999,-9.749189376831055,0.7134721279144287,0.7852981686592102,-45.745849609375,15.8843994140625,-4.3792724609375
2.5899999,-9.950302124023438,0.5434837937355042,0.6200982332229614,-24.1241455078125,9.58251953125,-6.89697265625
2.6099999,-9.964667320251465,0.12928688526153564,0.08619125932455063,-9.002685546875,3.60107421875,-2.7313232421875
2.6299999,-10.077195167541504,-0.3519476354122162,-0.4692635238170624,2.899169921875,1.3580322265625,-1.4801025390625
2.6499999,-10.031704902648926,-0.7541735172271729,-0.8523358106613159,5.462646484375,0.7171630859375,4.5318603515625
2.6699999,-10.053253173828125,-0.8834604024887085,-0.9672574996948242,-7.568359375,-0.1373291015625,6.04248046875
2.6899999,-9.99100399017334,-0.8020575642585754,-0.9600749015808105,-11.5509033203125,-6.2713623046875,12.115478515625
2.7099999,-10.098742485046387,-0.6344634294509888,-1.048660397529602,-7.01904296875,-6.134033203125,8.3770751953125
2.7299999,-10.18493366241455,-0.24420857429504395,-0.9768342971801758,22.0489501953125,-14.2059326171875,8.97216796875
2.7499999,-10.139444351196289,0.1604115068912506,-0.8906430602073669,24.9481201171875,-18.61572265625,10.80322265625
2.7699999,-10.132261276245117,0.5578489899635315,-0.5674257874488831,3.7994384765625,-14.6636962890625,1.739501953125
2.7899999,-9.986215591430664,0.9193734526634216,-0.1149216815829277,-11.383056640625,-10.68115234375,-4.8065185546875
2.8099999,-9.823410034179688,1.0797849893569946,0.3998316824436188,-15.9454345703125,-6.744384765625,-3.1585693359375
2.8299999,-9.691728591918945,1.0869675874710083,0.8667010068893433,-22.064208984375,-1.0528564453125,-6.2255859375
2.8499999,-9.715670585632324,1.0534487962722778,1.455674648284912,-30.8990478515625,9.033203125,-4.8980712890625
2.8699999,-9.68933391571045,0.811634361743927,1.721431016921997,-55.938720703125,21.2860107421875,-2.99072265625
2.8899999,-9.821015357971191,0.23942017555236816,1.3646949529647827,-55.145263671875,27.0843505859375,-2.532958984375
2.9099999,-9.995792388916016,-0.5027823448181152,0.33039984107017517,1.7852783203125,6.7596435546875,2.44140625
2.9299999,-10.199298858642578,-1.1659762859344482,-1.1971008777618408,68.084716796875,-15.594482421875,9.6588134765625
2.9499999,-10.333374977111816,-1.3694833517074585,-2.3702597618103027,91.8731689453125,-29.327392578125,11.2152099609375
2.9699999,-10.350133895874023,-0.8595184087753296,-2.63362193107605,71.3958740234375,-32.958984375,3.0059814453125
2.9899999,-10.146626472473145,0.31124621629714966,-1.6543933153152466,34.0728759765625,-25.7110595703125,0.5950927734375
3.0099999,-9.852140426635742,1.5059528350830078,0.033518824726343155,-21.8658447265625,-7.110595703125,-9.8876953125
3.0299999,-9.667786598205566,2.408566951751709,1.8626888990402222,-74.4476318359375,15.2740478515625,-14.0838623046875
3.0499999,-9.53849983215332,2.2385785579681396,2.647987127304077,-97.3052978515625,34.8968505859375,-13.885498046875
3.0699999,-9.581595420837402,1.2449848651885986,2.4157495498657227,-44.830322265625,26.153564453125,-7.38525390625
3.0899999,-9.864110946655273,-0.3734954595565796,0.8690952062606812,29.1290283203125,2.13623046875,1.739501953125
3.1099999,-10.101137161254883,-1.6376339197158813,-0.8331822156906128,82.763671875,-16.082763671875,12.02392578125
3.1299999,-10.228029251098633,-2.03507137298584,-2.03507137298584,91.12548828125,-26.79443359375,11.5509033203125
3.1499999,-10.311826705932617,-1.2832920551300049,-2.0685901641845703,63.0035400390625,-22.186279296875,3.1280517578125
3.1699999,-10.034099578857422,0.05027823522686958,-1.0893617868423462,6.805419921875,-9.9639892578125,-2.6702880859375
3.1899999,-9.888052940368652,1.4221558570861816,0.42856210470199585,-50.140380859375,7.8125,-12.5274658203125
3.2099999,-9.622296333312988,2.118868589401245,1.7310078144073486,-77.484130859375,17.0135498046875,-11.71875
3.2299999,-9.667786598205566,1.702277421951294,2.013523578643799,-65.4144287109375,26.6876220703125,-9.979248046875
3.2499999,-9.765948295593262,0.706289529800415,1.501164436340332,-8.23974609375,11.260986328125,-1.4190673828125
3.2699999,-10.019734382629395,-0.5051765441894531,0.22505496442317963,31.31103515625,-5.8746337890625,3.9520263671875
3.2899999,-10.158597946166992,-1.1755530834197998,-0.9074024558067322,45.2423095703125,-14.95361328125,6.7291259765625
3.3099999,-10.235212326049805,-1.1803414821624756,-1.5203180313110352,38.177490234375,-16.0064697265625,-0.152587890625
3.3299999000000002,-10.158597946166992,-0.5746083855628967,-1.3263877630233765,18.9056396484375,-13.5498046875,-2.9296875
3.3499999,-9.998186111450195,0.047884032130241394,-0.7182605266571045,-7.293701171875,-6.0577392578125,-3.90625
3.3699999,-9.911994934082031,0.7182605266571045,0.3495534360408783,-21.148681640625,-1.1138916015625,-5.0201416015625
3.3899999,-9.761159896850586,0.7876923680305481,0.9481038451194763,-33.3709716796875,6.1798095703125,-5.462646484375
3.4099999,-9.813833236694336,0.608127236366272,1.2449848651885986,-18.2952880859375,11.1236572265625,-4.3182373046875
3.4299999,-9.821015357971191,0.10055647045373917,1.0247182846069336,6.622314453125,-0.4425048828125,2.716064453125
3.4499999,-10.000580787658691,-0.4189853072166443,0.5123591423034668,16.0064697265625,-5.3558349609375,2.7313232421875
3.4699999,-9.981427192687988,-0.7422025203704834,-0.038307227194309235,19.9432373046875,-3.662109375,1.28173828125
3.4899999,-10.043676376342773,-0.730231523513794,-0.2825157940387726,22.7508544921875,-4.791259765625,-0.8087158203125
3.5099999,-9.926360130310059,-0.47405192255973816,-0.22505496442317963,13.641357421875,-4.364013671875,1.89208984375
3.5299999,-9.911994934082031,0.10055647045373917,0.14604631066322327,-9.4451904296875,2.1209716796875,-1.007080078125
3.5499999,-9.81143856048584,0.6129156351089478,0.6823474764823914,-33.1573486328125,5.8441162109375,-3.11279296875
3.5699999,-9.892841339111328,0.7876923680305481,0.8259995579719543,-43.3349609375,14.5111083984375,-5.828857421875
3.5899999,-9.96945571899414,0.6200982332229614,0.6272808313369751,-15.6097412109375,6.9427490234375,-0.9002685546875
3.6099999,-10.120290756225586,0.11013327538967133,0.10773907601833344,13.275146484375,-7.049560546875,1.251220703125
3.6299999,-10.213664054870605,-0.4141969084739685,-0.4692635238170624,23.9410400390625,-10.6353759765625,0.1983642578125
3.6499999,-10.201693534851074,-0.6751648783683777,-0.730231523513794,28.1982421875,-9.8876953125,-1.0528564453125
3.6699999,-10.11550235748291,-0.5530605912208557,-0.545877993106842,27.1759033203125,-10.4827880859375,-0.244140625
3.6899999,-10.000580787658691,-0.2561795711517334,-0.090979665517807,8.148193359375,-5.1116943359375,0.5035400390625
3.7099999,-9.8784761428833,0.2537853717803955,0.7134721279144287,-18.7835693359375,2.0294189453125,-1.0833740234375
3.7299999,-9.832986831665039,0.5578489899635315,1.3024457693099976,-42.3431396484375,13.0615234375,-0.457763671875
3.7499999,-9.895236015319824,0.586579442024231,1.525106430053711,-35.6292724609375,18.310546875,0.335693359375
3.7699999,-9.981427192687988,0.26815059781074524,1.235408067703247,-9.58251953125,9.735107421875,2.3193359375
3.7899999,-10.113107681274414,-0.23942017555236816,0.5817909836769104,13.3514404296875,2.0751953125,1.9073486328125
3.8099999,-10.187328338623047,-0.6248866319656372,-0.13168109953403473,26.0772705078125,0.6561279296875,3.1890869140625
3.8299999000000002,-10.098742485046387,-0.7541735172271729,-0.849941611289978,60.9588623046875,-10.5743408203125,3.173828125
3.8499999,-10.019734382629395,-0.40462008118629456,-0.6943184733390808,49.6063232421875,-10.80322265625,2.6092529296875
3.8699999,-9.938331604003906,0.19153612852096558,-0.1843535304069519,20.2789306640625,-3.662109375,-0.7781982421875
3.8899999,-9.928754806518555,0.7469909191131592,0.4405331015586853,-4.852294921875,3.35693359375,-4.730224609375
3.9099999,-9.835380554199219,1.0654197931289673,0.8858546018600464,-16.3726806640625,9.033203125,-8.026123046875
3.9299999,-10.017339706420898,1.0749965906143188,0.9792284965515137,-16.4794921875,15.411376953125,-1.007080078125
3.9499999,-10.232817649841309,0.7805097699165344,0.7565677165985107,-11.2152099609375,9.796142578125,1.15966796875
3.9699999,-10.63743782043457,0.3687070608139038,0.3471592366695404,-3.8604736328125,3.4942626953125,-9.7198486328125
3.9899999,-11.092336654663086,-0.06703764945268631,-0.08619125932455063,5.1422119140625,0.885009765625,-6.988525390625
4.0099999,-11.370063781738281,-0.3878606855869293,-0.3878606855869293,14.068603515625,-3.4637451171875,-4.39453125
4.029999900000001,-11.45146656036377,-0.5267243981361389,-0.5554547905921936,18.829345703125,-5.5694580078125,0.06103515625
4.0499999,-11.322179794311523,-0.4668693244457245,-0.6033388376235962,19.2718505859375,-6.256103515625,2.349853515625
4.069999900000001,-10.96304988861084,-0.28730419278144836,-0.5530605912208557,17.8070068359375,-8.6212158203125,-0.4730224609375
4.0899999000000005,-10.488997459411621,-0.10295066982507706,-0.4596867263317108,14.404296875,-6.134033203125,-5.4473876953125
4.1099999,-9.950302124023438,-0.014365210197865963,-0.3471592366695404,10.19287109375,1.983642578125,-9.46044921875
4.1299999000000005,-9.397241592407227,-0.07900865375995636,-0.22744916379451752,5.37109375,9.0484619140625,-12.237548828125
4.1499999,-8.93037223815918,-0.2801215946674347,-0.1412578970193863,0.885009765625,15.13671875,-13.4124755859375
4.1699999000000005,-8.635885238647461,-0.5339069962501526,-0.12210428714752197,-2.166748046875,19.6685791015625,-12.14599609375
4.1899999,-8.492233276367188,-0.790086567401886,-0.15801730751991272,-3.6773681640625,20.9197998046875,-11.260986328125
4.209999900000001,-8.51138687133789,-1.0031704902648926,-0.24181437492370605,-3.35693359375,19.0582275390625,-10.4522705078125
4.2299999,-8.652645111083984,-1.137245774269104,-0.3208230137825012,-0.823974609375,15.5181884765625,-8.575439453125
4.249999900000001,-8.83699893951416,-1.2090718746185303,-0.363918662071228,2.2125244140625,15.3045654296875,-9.58251953125
4.2699999,-9.045293807983398,-1.213860273361206,-0.35434186458587646,4.547119140625,17.4102783203125,-12.115478515625
4.289999900000001,-9.251194953918457,-1.1516109704971313,-0.2992752194404602,6.3323974609375,17.9290771484375,-13.580322265625
4.3099999,-9.433155059814453,-1.0558429956436157,-0.21787235140800476,7.6446533203125,16.082763671875,-13.6260986328125
4.329999900000001,-9.605537414550781,-0.933738648891449,-0.10055647045373917,7.080078125,12.8936767578125,-10.986328125
4.3499999,-9.768342971801758,-0.8164227604866028,0.028730420395731926,4.8980712890625,12.3138427734375,-10.19287109375
4.369999900000001,-9.895236015319824,-0.7158663272857666,0.18914192914962769,2.62451171875,9.735107421875,-12.0086669921875
4.3899999,-9.983820915222168,-0.6320692300796509,0.33518823981285095,0.1220703125,4.21142578125,-13.4429931640625
4.409999900000001,-10.005369186401367,-0.5817909836769104,0.4596867263317108,-2.288818359375,-0.8392333984375,-13.7176513671875
4.4299999,-9.967061996459961,-0.5506663918495178,0.545877993106842,-5.0811767578125,-3.875732421875,-11.77978515625
4.449999900000001,-9.876082420349121,-0.5434837937355042,0.6009446382522583,-8.85009765625,-4.5318603515625,-9.368896484375
4.4699999,-9.801861763000488,-0.5626373887062073,0.6129156351089478,-12.542724609375,-3.5247802734375,-6.28662109375
4.489999900000001,-9.78989028930664,-0.5626373887062073,0.5817909836769104,-15.1824951171875,-6.1492919921875,-1.434326171875
4.5099999,-9.840168952941895,-0.5650315880775452,0.49799394607543945,-16.3116455078125,-8.4381103515625,0.3814697265625
4.529999900000001,-9.940725326538086,-0.5434837937355042,0.3734954595565796,-15.533447265625,-8.148193359375,0.762939453125
4.5499999,-10.04846477508545,-0.49559974670410156,0.23942017555236816,-13.5955810546875,-7.8887939453125,2.0904541015625
4.569999900000001,-10.158597946166992,-0.43335050344467163,0.10773907601833344,-12.0086669921875,-7.110595703125,1.953125
4.5899999000000005,-10.256759643554688,-0.37828385829925537,-0.002394201699644327,-10.589599609375,-7.4920654296875,0.274658203125
4.609999900000001,-10.333374977111816,-0.33997663855552673,-0.09816227108240128,-9.46044921875,-9.6588134765625,0.42724609375
4.6299999000000005,-10.35252857208252,-0.33039984107017517,-0.17717093229293823,-8.544921875,-10.3607177734375,3.2196044921875
4.6499999,-10.321403503417969,-0.3495534360408783,-0.2537853717803955,-8.36181640625,-7.5836181640625,4.852294921875
4.6699999000000005,-10.251971244812012,-0.3926490843296051,-0.33279404044151306,-7.965087890625,-5.2490234375,3.2196044921875
4.6899999,-10.15141487121582,-0.4620809257030487,-0.40222588181495667,-6.072998046875,-7.4615478515625,2.166748046875
4.709999900000001,-10.110713958740234,-0.5386953949928284,-0.4572925269603729,-3.2958984375,-7.75146484375,3.6773681640625
4.7299999,-10.105925559997559,-0.629675030708313,-0.5003881454467773,-1.15966796875,-2.6397705078125,2.3193359375
4.749999900000001,-10.189722061157227,-0.7182605266571045,-0.5410895943641663,-0.5645751953125,1.4495849609375,1.3885498046875
4.7699999,-10.249577522277832,-0.7422025203704834,-0.569819986820221,-1.7242431640625,2.62451171875,6.65283203125
4.789999900000001,-10.27591323852539,-0.7230489253997803,-0.5937620401382446,-3.4637451171875,-1.1749267578125,7.62939453125
4.8099999,-10.199298858642578,-0.6727706789970398,-0.5841852426528931,-5.0201416015625,-3.6773681640625,6.9427490234375
4.829999900000001,-10.067618370056152,-0.6224924325942993,-0.5195417404174805,-5.06591796875,-4.69970703125,6.53076171875
4.8499999,-9.976638793945312,-0.6392518281936646,-0.3902548849582672,-2.3193359375,-6.0272216796875,6.5460205078125
4.869999900000001,-9.943120002746582,-0.6991068720817566,-0.22266076505184174,1.373291015625,-6.16455078125,7.2479248046875
4.8899999,-9.945513725280762,-0.7805097699165344,-0.0454898327589035,4.5928955078125,-4.82177734375,8.880615234375
4.909999900000001,-9.971850395202637,-0.8092401623725891,0.10534487664699554,6.256103515625,-4.180908203125,10.7421875
4.9299999,-9.986215591430664,-0.7757213711738586,0.21547815203666687,6.256103515625,-4.241943359375,11.2762451171875
4.949999900000001,-9.974244117736816,-0.6607996821403503,0.272938996553421,4.7760009765625,-2.777099609375,11.199951171875
4.9699999,-9.943120002746582,-0.4812345504760742,0.3280056416988373,3.1585693359375,-1.2359619140625,10.528564453125
4.989999900000001,-9.885659217834473,-0.28969839215278625,0.37828385829925537,1.9683837890625,-0.091552734375,8.6669921875
5.0099999,-9.828198432922363,-0.1173158809542656,0.37828385829925537,0.457763671875,1.678466796875,6.195068359375
5.029999900000001,-9.823410034179688,-0.014365210197865963,0.2944868206977844,0.0762939453125,2.38037109375,3.9215087890625
5.0499999,-9.86889934539795,0.035913024097681046,0.17477671802043915,2.44140625,0.9765625,2.166748046875
5.069999900000001,-9.911994934082031,0.0694318488240242,0.06703764945268631,3.7841796875,-0.1373291015625,1.2359619140625
5.0899999000000005,-9.950302124023438,0.10295066982507706,0.009576806798577309,1.8157958984375,0.91552734375,-0.9307861328125
5.109999900000001,-9.974244117736816,0.1388636976480484,0.0454898327589035,-0.213623046875,1.678466796875,-3.814697265625
5.1299999000000005,-9.974244117736816,0.16519992053508759,0.13407529890537262,-3.11279296875,2.044677734375,-5.096435546875
5.1499999,-9.983820915222168,0.17477671802043915,0.2082955539226532,-9.8419189453125,3.7689208984375,-5.1727294921875
5.1699999000000005,-10.000580787658691,0.10295066982507706,0.2537853717803955,-15.228271484375,5.3863525390625,-6.317138671875
5.1899999,-9.99100399017334,-0.12689268589019775,0.2561795711517334,-13.9007568359375,5.523681640625,-6.805419921875
5.209999900000001,-9.995792388916016,-0.4405331015586853,0.22026655077934265,-8.9874267578125,5.5389404296875,-3.143310546875
5.2299999,-9.99100399017334,-0.8667010068893433,0.10295066982507706,-2.227783203125,5.6610107421875,2.1209716796875
5.249999900000001,-9.773131370544434,-1.1683704853057861,0.0694318488240242,5.279541015625,3.90625,6.2713623046875
5.2699999,-9.801861763000488,-1.292868971824646,-0.038307227194309235,-0.885009765625,2.74658203125,10.0555419921875
5.289999900000001,-9.706093788146973,-1.2306196689605713,0.026336219161748886,-13.5498046875,5.5084228515625,6.3018798828125
5.3099999,-9.799467086791992,-1.0462661981582642,-0.12689268589019775,-19.927978515625,9.94873046875,13.0157470703125
5.329999900000001,-10.019734382629395,-0.849941611289978,-0.3423708379268646,-9.857177734375,5.2337646484375,13.7176513671875
5.3499999,-10.14902114868164,-0.7422025203704834,-0.7254431247711182,10.040283203125,-3.570556640625,19.8822021484375
5.369999900000001,-10.187328338623047,-0.5841852426528931,-1.1037269830703735,23.773193359375,-16.4337158203125,23.01025390625
5.3899999,-10.132261276245117,-0.4165911078453064,-1.3335703611373901,31.1279296875,-23.74267578125,15.167236328125
5.409999900000001,-10.096348762512207,-0.13407529890537262,-1.237802267074585,33.8134765625,-20.5841064453125,10.1470947265625
5.4299999,-9.880870819091797,0.3998316824436188,-0.6272808313369751,18.98193359375,-16.082763671875,6.2713623046875
5.449999900000001,-9.883264541625977,0.9792284965515137,0.18914192914962769,-12.6800537109375,-10.8642578125,6.9122314453125
5.4699999,-9.813833236694336,1.4221558570861816,1.0558429956436157,-31.2042236328125,2.044677734375,1.1138916015625
5.489999900000001,-9.813833236694336,1.5514427423477173,1.7118542194366455,-31.005859375,0.8544921875,-11.6424560546875
5.5099999,-9.80904483795166,1.2545616626739502,1.9033904075622559,-25.5889892578125,6.378173828125,-16.29638671875
5.529999900000001,-9.780313491821289,0.7661445140838623,1.6855180263519287,-24.444580078125,23.0865478515625,-6.439208984375
5.5499999,-9.782708168029785,-0.0454898327589035,1.0630255937576294,-22.8729248046875,21.697998046875,-1.0528564453125
5.569999900000001,-9.947908401489258,-0.5722141861915588,0.31603461503982544,-0.0152587890625,8.9569091796875,0.48828125
5.5899999000000005,-9.967061996459961,-1.036689281463623,-0.44532153010368347,17.3492431640625,-2.3193359375,6.8359375
5.609999900000001,-10.038887977600098,-1.1468225717544556,-0.9648633003234863,19.134521484375,-3.814697265625,-1.3275146484375
5.6299999000000005,-10.20887565612793,-0.7493851184844971,-0.9457096457481384,13.4124755859375,-5.523681640625,-3.6773681640625
5.6499999,-9.979032516479492,-0.2585737705230713,-0.6727706789970398,-20.2484130859375,4.2266845703125,7.6904296875
5.6699999000000005,-10.139444351196289,0.3711012601852417,-0.1388636976480484,-42.999267578125,7.293701171875,0.3662109375
5.6899999,-10.091560363769531,0.42856210470199585,0.15322890877723694,-39.9322509765625,-0.274658203125,-1.9073486328125
5.709999900000001,-9.971850395202637,0.2944868206977844,0.15322890877723694,-17.120361328125,0.396728515625,-0.6256103515625
5.7299999,-9.96945571899414,-0.1388636976480484,-0.12928688526153564,19.287109375,-2.0599365234375,-4.1351318359375
5.749999900000001,-9.914389610290527,-0.49559974670410156,-0.6153098344802856,35.5224609375,-8.9874267578125,9.185791015625
5.7699999,-9.880870819091797,-0.47644615173339844,-0.7422025203704834,36.4227294921875,-13.3819580078125,8.636474609375
5.789999900000001,-9.967061996459961,-0.08619125932455063,-0.33758243918418884,11.90185546875,-14.0838623046875,7.232666015625
5.8099999,-9.923966407775879,0.507570743560791,0.42377370595932007,-53.741455078125,-4.33349609375,-2.960205078125
5.829999900000001,-9.718064308166504,1.1037269830703735,1.4413094520568848,-95.03173828125,16.8304443359375,-12.7105712890625
5.8499999,-9.679757118225098,1.4652514457702637,2.1811177730560303,-92.8802490234375,32.1807861328125,-9.4451904296875
5.869999900000001,-9.605537414550781,1.0893617868423462,2.011129379272461,-88.9434814453125,40.5426025390625,-8.5906982421875
5.8899999,-9.830592155456543,0.1867477297782898,1.039083480834961,-42.7398681640625,29.5867919921875,-5.889892578125
5.909999900000001,-10.120290756225586,-0.8930372595787048,-0.45250412821769714,37.994384765625,3.1890869140625,3.662109375
5.9299999,-10.369287490844727,-1.8148049116134644,-2.1523873805999756,85.9527587890625,-12.6190185546875,2.105712890625
5.949999900000001,-10.405200958251953,-1.723825216293335,-2.8179752826690674,98.1903076171875,-21.6522216796875,-0.42724609375
5.9699999,-10.323798179626465,-1.0295066833496094,-2.6192567348480225,47.42431640625,-16.357421875,1.861572265625
5.989999900000001,-10.163386344909668,-0.002394201699644327,-1.6184803247451782,-20.5841064453125,-3.173828125,-3.814697265625
6.0099999,-10.103530883789062,0.811634361743927,-0.5554547905921936,-27.9083251953125,-8.4075927734375,-9.552001953125
6.029999900000001,-9.892841339111328,0.8451532125473022,0.11013327538967133,-5.828857421875,-14.0533447265625,-7.99560546875
6.0499999,-9.962273597717285,0.6105214357376099,0.3256114423274994,21.9573974609375,-13.397216796875,-8.9263916015625
6.069999900000001,-9.84256362915039,0.10534487664699554,0.5003881454467773,31.7840576171875,-10.6048583984375,-5.67626953125
6.0899999000000005,-9.84256362915039,-0.2561795711517334,0.5817909836769104,5.462646484375,-1.8463134765625,0.54931640625
6.109999900000001,-9.940725326538086,-0.4620809257030487,0.7637503147125244,-8.056640625,-0.7781982421875,0.152587890625
6.1299999000000005,-9.895236015319824,-0.6392518281936646,0.6655880808830261,-2.227783203125,-7.3699951171875,3.0059814453125
6.149999900000001,-9.967061996459961,-0.6751648783683777,0.44532153010368347,6.378173828125,-5.6304931640625,1.2054443359375
6.1699999000000005,-9.950302124023438,-0.5315127968788147,0.3663128614425659,5.6915283203125,-2.349853515625,0.091552734375
6.1899999,-9.907206535339355,-0.3471592366695404,0.3495534360408783,-14.3585205078125,5.8746337890625,4.9591064453125
6.209999900000001,-9.945513725280762,-0.08379705995321274,0.3208230137825012,-19.59228515625,5.096435546875,3.1585693359375
6.2299999,-9.955090522766113,-0.019153613597154617,0.22266076505184174,-3.692626953125,-5.767822265625,-1.007080078125
6.249999900000001,-9.947908401489258,-0.033518824726343155,-0.023942016065120697,11.505126953125,-7.9803466796875,-2.3345947265625
6.2699999,-9.964667320251465,-0.019153613597154617,-0.08379705995321274,15.1519775390625,-4.7760009765625,-6.9580078125
6.289999900000001,-9.895236015319824,-0.002394201699644327,0.12689268589019775,-1.708984375,2.7313232421875,-4.0130615234375
6.3099999,-9.93354320526123,0.090979665517807,0.4692635238170624,-18.646240234375,6.6070556640625,-0.5950927734375
6.329999900000001,-9.950302124023438,0.07900865375995636,0.7015010714530945,-20.1263427734375,3.509521484375,-2.8076171875
6.3499999,-10.005369186401367,-0.1388636976480484,0.4884171485900879,-9.6893310546875,0,-3.753662109375
6.369999900000001,-10.103530883789062,-0.2944868206977844,0.2537853717803955,15.0299072265625,-1.0833740234375,-4.8675537109375
6.3899999,-10.055646896362305,-0.3687070608139038,-0.028730420395731926,20.5535888671875,-0.3662109375,-1.495361328125
6.409999900000001,-10.014945983886719,-0.38307225704193115,-0.07182604819536209,1.9073486328125,4.364013671875,1.5411376953125
6.4299999,-10.019734382629395,-0.11252748221158981,0.20111294090747833,-11.322021484375,4.7607421875,-0.30517578125
6.449999900000001,-9.931148529052734,-0.21308395266532898,0.19871874153614044,-21.66748046875,-0.0762939453125,-4.5166015625
6.4699999,-9.921571731567383,-0.30885201692581177,0.14604631066322327,-5.218505859375,-0.823974609375,-5.2642822265625
6.489999900000001,-9.892841339111328,-0.5913678407669067,-0.06703764945268631,17.63916015625,-1.617431640625,-2.197265625
6.5099999,-9.84256362915039,-0.6871358752250671,-0.2298433631658554,19.6075439453125,-2.50244140625,6.16455078125
6.529999900000001,-9.9000244140625,-0.49799394607543945,0.019153613597154617,8.7738037109375,-2.3956298828125,6.6070556640625
6.5499999,-9.93354320526123,0.05506663769483566,0.6033388376235962,-32.5469970703125,0.7781982421875,5.340576171875
6.569999900000001,-9.835380554199219,0.6105214357376099,1.1899182796478271,-87.7685546875,12.63427734375,-3.23486328125
6.5899999000000005,-9.78989028930664,0.8379706144332886,1.644816517829895,-103.21044921875,26.8707275390625,-11.2762451171875
6.609999900000001,-9.77791976928711,0.5889736413955688,1.5610195398330688,-78.91845703125,32.9132080078125,-6.927490234375
6.6299999000000005,-9.785101890563965,-0.17477671802043915,0.7996633648872375,-40.3900146484375,28.3660888671875,2.5482177734375
6.649999900000001,-10.067618370056152,-1.072602391242981,-0.21308395266532898,7.7362060546875,10.3607177734375,8.6212158203125
6.6699999000000005,-10.17296314239502,-1.745373010635376,-1.455674648284912,49.3621826171875,-4.0435791015625,13.3209228515625
6.6899999,-10.323798179626465,-1.6950948238372803,-2.31758713722229,62.713623046875,-12.0086669921875,4.8065185546875
6.709999900000001,-10.251971244812012,-1.115697979927063,-2.3295583724975586,56.182861328125,-20.4315185546875,2.13623046875
6.7299999,-10.134655952453613,-0.10055647045373917,-1.5897499322891235,5.4473876953125,-10.223388671875,-2.5634765625
6.749999900000001,-10.074800491333008,0.6727706789970398,-0.5937620401382446,-39.1387939453125,3.7384033203125,-6.9427490234375
6.7699999,-9.99100399017334,0.9313444495201111,0.27054479718208313,-26.1993408203125,-1.007080078125,-3.875732421875
6.789999900000001,-9.95748519897461,0.47644615173339844,0.3878606855869293,11.932373046875,-10.55908203125,-1.1749267578125
6.8099999,-10.010157585144043,-0.07661445438861847,0.07182604819536209,51.2542724609375,-13.73291015625,-4.8065185546875
6.829999900000001,-9.93593692779541,-0.6440402865409851,-0.19871874153614044,60.9283447265625,-14.4500732421875,0.0457763671875
6.8499999,-9.885659217834473,-0.7661445140838623,-0.17956513166427612,38.75732421875,-12.725830078125,3.84521484375
6.869999900000001,-9.825803756713867,-0.4381389021873474,0.2801215946674347,10.162353515625,-7.0343017578125,3.936767578125
6.8899999,-9.765948295593262,-0.033518824726343155,0.9624691009521484,-28.2440185546875,-2.960205078125,2.86865234375
6.909999900000001,-9.639056205749512,0.5578489899635315,1.6615760326385498,-66.497802734375,11.749267578125,-6.0882568359375
6.9299999,-9.751583099365234,0.8188169598579407,1.9943699836730957,-80.963134765625,24.6124267578125,-8.331298828125
6.949999900000001,-9.696516990661621,0.6416460275650024,1.8291701078414917,-78.2623291015625,30.9295654296875,-1.6937255859375
6.9699999,-10.096348762512207,-0.16519992053508759,0.6248866319656372,-45.928955078125,26.0162353515625,1.2969970703125
6.989999900000001,-10.228029251098633,-1.115697979927063,-0.8068459630012512,32.28759765625,-1.3580322265625,7.26318359375
7.0099999,-10.505757331848145,-1.7836803197860718,-2.3558945655822754,81.1614990234375,-24.0631103515625,13.48876953125
7.029999900000001,-10.409989356994629,-1.7980455160140991,-2.9017724990844727,88.0584716796875,-31.5093994140625,6.53076171875
7.0499999,-10.168174743652344,-0.7948749661445618,-2.126051187515259,56.5032958984375,-25.1312255859375,2.4871826171875
7.069999900000001,-9.921571731567383,0.27054479718208313,-0.8523358106613159,-17.5933837890625,-1.8157958984375,-7.080078125
7.0899999000000005,-9.720458984375,1.0319008827209473,0.6727706789970398,-40.5120849609375,7.537841796875,-6.561279296875
7.109999900000001,-9.737217903137207,1.216254472732544,1.3096283674240112,-19.1192626953125,-2.9296875,-4.8370361328125
7.1299999000000005,-9.80904483795166,0.6584054827690125,1.2976573705673218,3.570556640625,-4.8828125,-8.575439453125
7.149999900000001,-9.883264541625977,0.06703764945268631,1.0630255937576294,20.233154296875,-0.213623046875,-4.791259765625
7.1699999000000005,-9.823410034179688,-0.47405192255973816,0.8092401623725891,7.4462890625,5.035400390625,1.3885498046875
7.1899999,-9.888052940368652,-0.5746083855628967,1.0654197931289673,-14.190673828125,12.87841796875,5.31005859375
7.209999900000001,-9.821015357971191,-0.45010992884635925,1.0534487962722778,-41.2750244140625,19.10400390625,6.28662109375
7.2299999,-9.955090522766113,-0.1628057211637497,0.8978256583213806,-59.87548828125,16.7083740234375,0.4425048828125
7.249999900000001,-9.926360130310059,-0.031124621629714966,0.43095630407333374,-46.7681884765625,14.34326171875,-6.805419921875
7.2699999,-10.065223693847656,-0.0933738648891449,-0.26575639843940735,-19.2108154296875,10.6658935546875,-4.1961669921875
7.289999900000001,-10.053253173828125,-0.608127236366272,-1.0821791887283325,4.302978515625,3.4027099609375,1.7852783203125
7.3099999,-10.254365921020508,-1.1109095811843872,-1.6950948238372803,43.1365966796875,-10.7574462890625,7.8277587890625
7.329999900000001,-10.230423927307129,-1.41257905960083,-2.0159177780151367,69.4427490234375,-27.89306640625,9.796142578125
7.3499999,-10.259154319763184,-1.0342950820922852,-1.7693150043487549,62.6068115234375,-28.01513671875,4.6844482421875
7.369999900000001,-10.079588890075684,-0.16759411990642548,-0.4429273009300232,26.6265869140625,-15.7928466796875,-5.126953125
7.3899999,-9.847352027893066,0.7374141216278076,0.9720458984375,-41.9769287109375,9.429931640625,-10.4827880859375
7.409999900000001,-9.799467086791992,1.1109095811843872,1.987187385559082,-70.6024169921875,31.494140625,-6.2408447265625
7.4299999,-9.684545516967773,0.6631938815116882,2.0183119773864746,-29.47998046875,17.8680419921875,2.838134765625
7.449999900000001,-9.8784761428833,-0.10773907601833344,0.9074024558067322,22.0794677734375,-2.0294189453125,1.7852783203125
7.4699999,-9.914389610290527,-0.8188169598579407,-0.19632454216480255,48.5076904296875,-8.2855224609375,1.3885498046875
7.489999900000001,-9.99339771270752,-0.8810662031173706,-0.6727706789970398,26.5960693359375,-4.9896240234375,1.46484375
7.5099999,-10.06043529510498,-0.849941611289978,-0.7134721279144287,-17.791748046875,8.36181640625,1.5869140625
7.529999900000001,-10.077195167541504,-0.524330198764801,-0.33039984107017517,-17.9290771484375,8.9263916015625,8.514404296875
7.5499999,-10.096348762512207,-0.33758243918418884,-0.13168109953403473,26.4739990234375,-8.72802734375,1.3275146484375
7.569999900000001,-10.007762908935547,-0.21308395266532898,0.20111294090747833,21.97265625,-1.0223388671875,-0.152587890625
7.5899999000000005,-9.981427192687988,-0.08140286058187485,0.4357447028160095,-5.828857421875,11.8255615234375,2.7008056640625
7.609999900000001,-9.93593692779541,-0.08858546614646912,0.5961562395095825,-9.552001953125,15.2435302734375,9.3994140625
7.6299999000000005,-9.914389610290527,-0.2753331959247589,0.4189853072166443,7.6446533203125,3.387451171875,10.833740234375
7.649999900000001,-9.99339771270752,-0.5434837937355042,-0.19153612852096558,21.1639404296875,-3.448486328125,6.0272216796875
7.6699999000000005,-10.08198356628418,-0.8259995579719543,-0.6560112833976746,37.0025634765625,-5.096435546875,7.415771484375
7.6899999,-10.156203269958496,-0.7757213711738586,-0.9074024558067322,58.1207275390625,-11.65771484375,14.404296875
7.709999900000001,-10.235212326049805,-0.586579442024231,-0.7422025203704834,55.3131103515625,-12.542724609375,19.378662109375
7.7299999,-10.144232749938965,0.016759412363171577,-0.2322375625371933,27.52685546875,-1.9989013671875,13.5498046875
7.749999900000001,-10.26394271850586,0.7852981686592102,0.4381389021873474,-5.9356689453125,5.3863525390625,3.6163330078125
7.7699999,-10.38844108581543,1.3646949529647827,1.0103530883789062,-28.717041015625,8.697509765625,-10.223388671875
7.789999900000001,-10.733205795288086,1.6208745241165161,1.2449848651885986,-39.6728515625,16.9677734375,-12.39013671875
7.8099999,-11.063606262207031,1.4173674583435059,1.0223240852355957,-38.1622314453125,19.287109375,-9.429931640625
7.829999900000001,-11.257535934448242,0.9074024558067322,0.44771572947502136,-23.101806640625,12.39013671875,-9.674072265625
7.8499999,-11.307814598083496,0.38546648621559143,-0.27054479718208313,0.0762939453125,3.6163330078125,-12.1917724609375
7.869999900000001,-11.262324333190918,-0.0071826050989329815,-0.9074024558067322,21.240234375,1.3275146484375,-18.0206298828125
7.8899999,-11.075576782226562,-0.17238251864910126,-1.2737152576446533,33.6151123046875,1.2359619140625,-30.029296875
7.909999900000001,-10.826580047607422,-0.10773907601833344,-1.3096283674240112,38.2080078125,-1.46484375,-32.196044921875
7.9299999,-10.493785858154297,0.10295066982507706,-1.0678139925003052,38.177490234375,-1.8310546875,-25.238037109375
7.949999900000001,-10.098742485046387,0.38067805767059326,-0.6799532771110535,34.97314453125,2.5787353515625,-20.7672119140625
7.9699999,-9.708487510681152,0.6584054827690125,-0.2585737705230713,31.158447265625,7.7362060546875,-21.3470458984375
7.989999900000001,-9.366117477416992,0.8475474119186401,0.0694318488240242,29.2205810546875,14.0838623046875,-25.115966796875
8.0099999,-9.133879661560059,0.9074024558067322,0.24420857429504395,30.5633544921875,21.1334228515625,-31.5093994140625
8.0299999,-8.999804496765137,0.8092401623725891,0.2561795711517334,34.5916748046875,24.444580078125,-39.0472412109375
8.049999900000001,-8.947132110595703,0.5506663918495178,0.15562310814857483,39.5660400390625,20.9197998046875,-41.3665771484375
8.069999900000001,-8.932766914367676,0.16998831927776337,-0.004788403399288654,44.5098876953125,13.214111328125,-33.8134765625
8.0899999,-8.887276649475098,-0.2968810200691223,-0.1388636976480484,49.5147705078125,5.9814453125,-22.0184326171875
8.1099999,-8.808267593383789,-0.7829039692878723,-0.19871874153614044,53.6346435546875,1.89208984375,-12.5274658203125
8.129999900000001,-8.7268648147583,-1.216254472732544,-0.17477671802043915,54.9774169921875,-1.068115234375,-7.3089599609375
8.149999900000001,-8.65982723236084,-1.558625340461731,-0.0694318488240242,52.6580810546875,-4.82177734375,-5.7373046875
8.1699999,-8.609549522399902,-1.8291701078414917,0.090979665517807,46.6461181640625,-8.819580078125,-3.7078857421875
8.1899999,-8.621520042419434,-2.0159177780151367,0.2753331959247589,37.2314453125,-13.031005859375,1.2664794921875
8.2099999,-8.662221908569336,-2.169146776199341,0.4596867263317108,25.5279541015625,-15.6707763671875,3.9825439453125
8.229999900000001,-8.762778282165527,-2.300827741622925,0.6392518281936646,13.24462890625,-14.6026611328125,4.852294921875
8.2499999,-8.954314231872559,-2.3918075561523438,0.7469909191131592,1.8310546875,-9.552001953125,6.34765625
8.2699999,-9.217676162719727,-2.456450939178467,0.7781155705451965,-7.0343017578125,-4.69970703125,5.7830810546875
8.2899999,-9.548076629638672,-2.4875755310058594,0.689530074596405,-13.36669921875,-1.5869140625,4.3182373046875
8.309999900000001,-9.909601211547852,-2.4899697303771973,0.4908113479614258,-16.326904296875,-0.4119873046875,4.2877197265625
8.3299999,-10.256759643554688,-2.434903144836426,0.22266076505184174,-15.9149169921875,-1.2969970703125,3.5247802734375
8.3499999,-10.51054573059082,-2.3582887649536133,-0.05985504388809204,-12.8631591796875,-0.6103515625,-3.11279296875
8.3699999,-10.668562889099121,-2.27209734916687,-0.31842881441116333,-7.87353515625,2.197265625,-9.1552734375
8.389999900000001,-10.733205795288086,-2.169146776199341,-0.5099649429321289,-2.197265625,0.8087158203125,-8.636474609375
8.4099999,-10.682928085327148,-2.0853497982025146,-0.6105214357376099,2.899169921875,-3.4332275390625,-7.7972412109375
8.4299999,-10.541669845581055,-1.98958158493042,-0.6200982332229614,6.40869140625,-4.3792724609375,-7.171630859375
8.4499999,-10.338163375854492,-1.8555063009262085,-0.5363011956214905,7.4462890625,-2.3193359375,-2.3956298828125
8.469999900000001,-10.125079154968262,-1.6855180263519287,-0.40940847992897034,6.3018798828125,-0.54931640625,2.655029296875
8.4899999,-9.945513725280762,-1.4915876388549805,-0.2513911724090576,5.035400390625,-3.5552978515625,3.9825439453125
8.5099999,-9.823410034179688,-1.2832920551300049,-0.07900865375995636,2.716064453125,-7.5531005859375,6.4239501953125
8.5299999,-9.758766174316406,-1.0869675874710083,0.09576806426048279,-2.1514892578125,-6.134033203125,11.0321044921875
8.549999900000001,-9.739612579345703,-0.8978256583213806,0.2561795711517334,-8.331298828125,-1.129150390625,12.6190185546875
8.569999900000001,-9.737217903137207,-0.7589619159698486,0.38067805767059326,-13.519287109375,3.1890869140625,6.2713623046875
8.5899999,-9.770736694335938,-0.6943184733390808,0.4381389021873474,-16.845703125,5.8135986328125,1.495361328125
8.6099999,-9.832986831665039,-0.6967126727104187,0.40940847992897034,-19.2108154296875,5.523681640625,4.69970703125
8.629999900000001,-9.854534149169922,-0.790086567401886,0.33279404044151306,-19.5159912109375,3.84521484375,6.7901611328125
8.649999900000001,-9.847352027893066,-0.9409212470054626,0.21308395266532898,-17.486572265625,4.5166015625,7.080078125
8.6699999,-9.821015357971191,-1.0965443849563599,0.0933738648891449,-14.09912109375,4.2724609375,9.9334716796875
8.6899999,-9.830592155456543,-1.235408067703247,-0.002394201699644327,-10.345458984375,2.3651123046875,10.6964111328125
8.709999900000001,-9.907206535339355,-1.3239935636520386,-0.06224924325942993,-7.50732421875,-0.6103515625,5.9814453125
8.729999900000001,-9.995792388916016,-1.3670891523361206,-0.05746084079146385,-6.1798095703125,-6.2255859375,1.0223388671875
8.7499999,-10.046070098876953,-1.3623007535934448,-0.014365210197865963,-5.950927734375,-9.429931640625,4.1046142578125
8.7699999,-9.99100399017334,-1.3263877630233765,0.05746084079146385,-5.2642822265625,-9.5062255859375,12.8631591796875
8.7899999,-9.837775230407715,-1.2258312702178955,0.12928688526153564,-4.180908203125,-8.1024169921875,17.303466796875
8.809999900000001,-9.658209800720215,-1.0773907899856567,0.181959331035614,-3.96728515625,-4.08935546875,14.312744140625
8.8299999,-9.500192642211914,-0.8834604024887085,0.2059013396501541,-5.2490234375,0.2899169921875,12.8021240234375
8.8499999,-9.402029991149902,-0.6823474764823914,0.22026655077934265,-7.4615478515625,3.96728515625,18.646240234375
8.8699999,-9.873687744140625,-0.6105214357376099,0.24420857429504395,-10.1165771484375,5.0811767578125,23.49853515625
8.889999900000001,-10.055646896362305,-0.6560112833976746,0.15801730751991272,-12.603759765625,-1.4495849609375,4.21142578125
8.9099999,-10.697293281555176,-0.7469909191131592,0.11252748221158981,-13.1988525390625,6.53076171875,3.082275390625
8.9299999,-10.754754066467285,-0.8355764150619507,-0.009576806798577309,-9.8724365234375,4.3487548828125,13.9312744140625
8.9499999,-10.656591415405273,-0.8236053586006165,-0.1364694982767105,-8.2550048828125,1.312255859375,12.908935546875
8.969999900000001,-10.371682167053223,-0.8355764150619507,-0.2537853717803955,-3.875732421875,-2.4871826171875,11.0626220703125
8.9899999,-10.11550235748291,-0.9457096457481384,-0.28969839215278625,1.0833740234375,-5.279541015625,15.5792236328125
9.0099999,-9.923966407775879,-1.05105459690094,-0.2801215946674347,0.823974609375,-3.936767578125,21.54541015625
9.0299999,-9.849745750427246,-1.1204863786697388,-0.20111294090747833,-2.3651123046875,-2.716064453125,24.3377685546875
9.049999900000001,-9.816226959228516,-1.0127472877502441,-0.10295066982507706,-5.6915283203125,-3.7994384765625,23.01025390625
9.069999900000001,-9.816226959228516,-0.6631938815116882,-0.07422025501728058,-10.0250244140625,-4.5928955078125,21.6522216796875
9.0899999,-9.892841339111328,-0.21787235140800476,-0.09576806426048279,-12.5732421875,-6.5460205078125,18.7835693359375
9.1099999,-9.974244117736816,0.2106897532939911,-0.15083470940589905,-9.4146728515625,-9.033203125,13.1988525390625
9.129999900000001,-10.046070098876953,0.5650315880775452,-0.20350714027881622,-3.173828125,-11.077880859375,9.0179443359375
9.149999900000001,-10.065223693847656,0.9313444495201111,-0.026336219161748886,1.861572265625,-13.0157470703125,5.645751953125
9.1699999,-10.04846477508545,1.0869675874710083,0.23702596127986908,-7.8582763671875,-9.368896484375,-1.1138916015625
9.1899999,-10.005369186401367,1.161187767982483,0.5817909836769104,-19.8822021484375,-3.6163330078125,-7.598876953125
9.209999900000001,-9.890447616577148,1.0007762908935547,0.9409212470054626,-24.1546630859375,0,-6.7138671875
9.229999900000001,-9.90241813659668,0.5841852426528931,0.9720458984375,-22.2930908203125,3.35693359375,1.0223388671875
9.2499999,-9.864110946655273,0.011971008032560349,0.9193734526634216,-12.3291015625,1.617431640625,8.7432861328125
9.2699999,-9.837775230407715,-0.7134721279144287,0.5746083855628967,0.9307861328125,-2.6092529296875,5.3558349609375
9.2899999,-9.873687744140625,-1.2425906658172607,0.26815059781074524,19.83642578125,-4.39453125,3.0670166015625
9.309999900000001,-9.84256362915039,-1.3192051649093628,0.181959331035614,23.62060546875,-0.732421875,14.6484375
9.3299999,-9.895236015319824,-0.9097966551780701,0.1843535304069519,-0.7781982421875,3.7994384765625,16.0980224609375
9.3499999,-10.034099578857422,-0.15801730751991272,0.40940847992897034,-15.869140625,2.105712890625,8.8043212890625
9.3699999,-10.007762908935547,0.730231523513794,0.5410895943641663,-20.6298828125,-1.068115234375,0.06103515625
9.389999900000001,-10.096348762512207,1.094150185585022,0.5267243981361389,-17.7764892578125,6.1187744140625,-6.927490234375
9.4099999,-10.065223693847656,1.1683704853057861,0.4189853072166443,-7.4920654296875,8.331298828125,-8.270263671875
9.4299999,-10.019734382629395,0.8403648138046265,0.20350714027881622,-7.0037841796875,7.293701171875,-2.7008056640625
9.4499999,-10.129867553710938,0.35913026332855225,0.07422025501728058,-1.190185546875,4.1351318359375,4.1961669921875
9.469999900000001,-10.036493301391602,-0.033518824726343155,-0.05027823522686958,4.57763671875,-5.8135986328125,0.823974609375
9.4899999,-10.005369186401367,-0.33279404044151306,-0.05027823522686958,1.77001953125,-7.904052734375,-5.37109375
9.5099999,-9.921571731567383,-0.4357447028160095,0.06224924325942993,3.7078857421875,1.190185546875,-0.9613037109375
9.5299999,-9.806650161743164,-0.23702596127986908,0.3447650372982025,-5.828857421875,7.75146484375,3.326416015625
9.549999900000001,-9.907206535339355,-0.031124621629714966,0.6248866319656372,-21.6217041015625,8.6669921875,3.326416015625
9.569999900000001,-9.849745750427246,0.24660277366638184,0.8236053586006165,-24.9786376953125,8.209228515625,0.946044921875
9.5899999,-9.979032516479492,0.3758896589279175,0.7996633648872375,-16.265869140625,10.4522705078125,-4.974365234375
9.6099999,-9.904812812805176,0.3998316824436188,0.7158663272857666,-3.204345703125,10.6964111328125,-12.2528076171875
9.629999900000001,-9.916783332824707,0.40940847992897034,0.5434837937355042,-8.9569091796875,14.6942138671875,-1.8157958984375
9.649999900000001,-9.93354320526123,0.33279404044151306,0.35673606395721436,-25.421142578125,21.6522216796875,-2.105712890625
9.6699999,-10.02452278137207,0.2944868206977844,0.10055647045373917,-20.782470703125,10.4827880859375,-6.5155029296875
9.6899999,-9.921571731567383,0.028730420395731926,-0.1388636976480484,-9.6435546875,-0.4425048828125,-4.364013671875
9.709999900000001,-10.043676376342773,-0.19153612852096558,-0.49799394607543945,-2.5634765625,8.3465576171875,-6.9427490234375
9.729999900000001,-9.976638793945312,-0.40701428055763245,-0.40701428055763245,-2.593994140625,7.32421875,-4.5166015625
9.7499999,-9.99339771270752,-0.45489832758903503,-0.5267243981361389,-18.4783935546875,9.0484619140625,5.0048828125
9.7699999,-10.122684478759766,-0.5315127968788147,-0.40940847992897034,-16.1895751953125,8.758544921875,5.5694580078125
9.7899999,-10.105925559997559,-0.4644751250743866,-0.5626373887062073,2.7008056640625,-6.7596435546875,3.5247802734375
9.809999900000001,-10.105925559997559,-0.4908113479614258,-0.5937620401382446,15.289306640625,-5.9967041015625,-0.0762939453125
9.8299999,-10.110713958740234,-0.22266076505184174,-0.6416460275650024,13.2598876953125,3.448486328125,-2.2430419921875
9.8499999,-9.988609313964844,-0.028730420395731926,-0.40462008118629456,-3.2806396484375,0,4.4403076171875
9.8699999,-10.129867553710938,0.24420857429504395,-0.2944868206977844,-12.603759765625,-1.220703125,4.0435791015625
9.889999900000001,-9.981427192687988,0.21547815203666687,-0.08858546614646912,-6.0272216796875,-5.4473876953125,3.4332275390625
9.9099999,-10.036493301391602,0.10773907601833344,-0.15801730751991272,5.401611328125,-10.4522705078125,-0.335693359375
9.9299999,-10.019734382629395,-0.10055647045373917,-0.07422025501728058,18.12744140625,-4.8828125,-4.1351318359375
9.9499999,-9.919178009033203,-0.06703764945268631,0.002394201699644327,8.5906982421875,2.685546875,2.288818359375
9.969999900000001,-9.931148529052734,-0.026336219161748886,0.2585737705230713,-7.9345703125,1.77001953125,2.410888671875
9.9899999,-9.962273597717285,0.1388636976480484,0.4572925269603729,-13.214111328125,2.532958984375,1.7547607421875
10.0099999,-9.835380554199219,0.10773907601833344,0.5410895943641663,-12.0086669921875,1.89208984375,-1.6632080078125
10.0299999,-9.909601211547852,0.15083470940589905,0.40940847992897034,-0.1983642578125,4.45556640625,-7.62939453125
10.049999900000001,-9.873687744140625,0.05746084079146385,0.26575639843940735,2.2125244140625,10.7574462890625,-3.265380859375
10.069999900000001,-9.90241813659668,0.12210428714752197,0,-8.209228515625,11.0321044921875,-0.4730224609375
10.0899999,-10.098742485046387,0.12689268589019775,-0.0454898327589035,-8.30078125,3.11279296875,-0.5645751953125
10.1099999,-10.041281700134277,0.09576806426048279,-0.17956513166427612,-10.1318359375,-2.9449462890625,-1.739501953125
10.129999900000001,-10.08198356628418,-0.07182604819536209,-0.29209262132644653,-7.720947265625,0.7171630859375,-5.31005859375
10.149999900000001,-10.043676376342773,-0.05985504388809204,-0.21547815203666687,2.7313232421875,3.8909912109375,-6.5460205078125
10.1699999,-9.847352027893066,-0.1388636976480484,-0.14365209639072418,-8.7738037109375,3.3416748046875,2.3345947265625
10.1899999,-9.81143856048584,0.15083470940589905,0.26575639843940735,-31.1279296875,7.537841796875,1.3427734375
10.209999900000001,-9.730035781860352,0.5171475410461426,0.727837324142456,-57.586669921875,14.83154296875,0.42724609375
10.229999900000001,-9.619902610778809,0.8020575642585754,1.0582371950149536,-95.1690673828125,23.162841796875,-5.9051513671875
10.2499999,-9.583989143371582,1.1563993692398071,1.3958195447921753,-108.0322265625,34.3017578125,-13.885498046875
10.2699999,-9.651026725769043,0.7829039692878723,1.0678139925003052,-109.1156005859375,44.1741943359375,-7.354736328125
10.2899999,-9.880870819091797,-0.08140286058187485,0.13407529890537262,-75.3936767578125,47.7752685546875,-0.8697509765625
10.309999900000001,-10.14902114868164,-1.381454348564148,-1.644816517829895,19.22607421875,11.8865966796875,7.781982421875
10.3299999,-10.474632263183594,-2.540247917175293,-3.555389642715454,118.011474609375,-23.9715576171875,18.4173583984375
10.3499999,-10.577583312988281,-2.760514497756958,-5.078101634979248,158.0810546875,-40.985107421875,15.3350830078125
10.3699999,-10.517727851867676,-1.7501614093780518,-5.011064052581787,134.674072265625,-51.2847900390625,7.3089599609375
10.389999900000001,-10.232817649841309,-0.011971008032560349,-3.4787750244140625,49.591064453125,-34.942626953125,6.53076171875
10.4099999,-9.983820915222168,1.6328455209732056,-1.2090718746185303,-34.3017578125,-11.474609375,-4.2266845703125
10.4299999,-9.8784761428833,2.477998733520508,0.730231523513794,-48.03466796875,-9.6435546875,-11.260986328125
10.4499999,-9.670180320739746,2.1164743900299072,1.6950948238372803,-15.07568359375,-8.2244873046875,-10.986328125
10.469999900000001,-9.744400978088379,1.1994950771331787,1.6112977266311646,27.83203125,-10.1165771484375,-9.7808837890625
10.4899999,-9.653421401977539,0.1843535304069519,1.3958195447921753,43.0145263671875,-11.3677978515625,-1.8768310546875
10.5099999,-9.682151794433594,-0.5434837937355042,0.9481038451194763,4.8828125,2.227783203125,5.4779052734375
10.5299999,-9.68694019317627,-0.790086567401886,0.8954314589500427,-21.2554931640625,6.5155029296875,4.852294921875
10.549999900000001,-9.84495735168457,-0.9385270476341248,0.5410895943641663,-21.42333984375,1.6632080078125,5.5999755859375
10.569999900000001,-9.964667320251465,-0.8547300100326538,0.023942016065120697,0.6866455078125,-0.640869140625,3.4332275390625
10.5899999,-10.079588890075684,-0.6847416758537292,-0.33758243918418884,22.003173828125,-2.86865234375,4.1656494140625
10.6099999,-10.165780067443848,-0.26096799969673157,-0.5937620401382446,13.336181640625,-2.74658203125,8.1939697265625
10.629999900000001,-10.237606048583984,0.08379705995321274,-0.5291185975074768,-3.631591796875,0.54931640625,4.3487548828125
10.649999900000001,-10.170568466186523,0.45489832758903503,-0.42377370595932007,-4.486083984375,-8.4686279296875,3.8909912109375
10.6699999,-10.089165687561035,0.5003881454467773,-0.3495534360408783,-1.3885498046875,-10.25390625,-0.0152587890625
10.6899999,-9.988609313964844,0.4357447028160095,-0.22505496442317963,5.9356689453125,-7.0037841796875,-5.1422119140625
10.709999900000001,-9.821015357971191,0.3878606855869293,0.0071826050989329815,-0.2899169921875,-0.946044921875,-0.8392333984375
10.729999900000001,-9.607931137084961,0.26815059781074524,0.5434837937355042,-8.270263671875,1.8157958984375,2.4871826171875
10.7499999,-9.701305389404297,0.5363011956214905,1.213860273361206,-30.1971435546875,7.4615478515625,2.9449462890625
10.7699999,-9.62947940826416,0.6440402865409851,1.6112977266311646,-82.9315185546875,22.7508544921875,-1.861572265625
10.7899999,-9.787496566772461,0.727837324142456,1.5610195398330688,-98.44970703125,34.4085693359375,-8.6669921875
10.809999900000001,-9.907206535339355,0.3878606855869293,0.9792284965515137,-60.943603515625,26.0009765625,-8.087158203125
10.8299999,-10.036493301391602,-0.4357447028160095,-0.21547815203666687,-10.0860595703125,19.866943359375,1.1749267578125
10.8499999,-10.287884712219238,-1.4652514457702637,-1.6735470294952393,39.794921875,5.2947998046875,12.3291015625
10.8699999,-10.417171478271484,-2.145204782485962,-2.9712042808532715,103.5003662109375,-26.031494140625,17.9290771484375
10.889999900000001,-10.465055465698242,-2.0398597717285156,-3.60566782951355,126.708984375,-43.1060791015625,18.2952880859375
10.9099999,-10.32858657836914,-0.8882488012313843,-3.1435868740081787,90.2557373046875,-37.811279296875,9.918212890625
10.9299999,-9.928754806518555,0.8020575642585754,-1.4724340438842773,17.7459716796875,-21.6827392578125,-3.3111572265625
10.9499999,-9.751583099365234,2.1715409755706787,0.2944868206977844,-51.055908203125,1.3275146484375,-11.7034912109375
10.969999900000001,-9.624691009521484,2.6886885166168213,1.6543933153152466,-57.830810546875,10.4827880859375,-11.6424560546875
10.9899999,-9.62947940826416,1.987187385559082,1.922544002532959,-19.683837890625,-1.007080078125,-9.368896484375
11.0099999,-9.804255485534668,0.8212111592292786,1.335964560508728,19.4549560546875,-6.988525390625,-6.7901611328125
11.0299999,-9.849745750427246,-0.24660277366638184,0.9624691009521484,31.5093994140625,-3.143310546875,2.288818359375
11.049999900000001,-9.890447616577148,-0.7445967197418213,0.6607996821403503,-3.8909912109375,7.843017578125,3.662109375
11.069999900000001,-10.031704902648926,-0.9457096457481384,0.5267243981361389,-24.8870849609375,17.1356201171875,5.0811767578125
11.0899999,-9.976638793945312,-0.7637503147125244,0.3064578175544739,-5.9661865234375,5.401611328125,7.659912109375
11.1099999,-10.067618370056152,-0.6368576288223267,-0.2585737705230713,18.7225341796875,-5.340576171875,5.0811767578125
11.129999900000001,-10.103530883789062,-0.11013327538967133,-0.42856210470199585,28.1219482421875,-5.5389404296875,1.2664794921875
11.149999900000001,-9.923966407775879,0.49559974670410156,-0.2561795711517334,-8.575439453125,3.814697265625,-4.2572021484375
11.1699999,-9.986215591430664,0.8690952062606812,0.040701430290937424,-45.6390380859375,16.05224609375,-7.01904296875
11.1899999,-9.895236015319824,0.9911994934082031,0.22026655077934265,-31.6162109375,9.674072265625,-3.021240234375
11.209999900000001,-9.911994934082031,0.31603461503982544,-0.1867477297782898,-3.0364990234375,-1.800537109375,-1.6937255859375
11.229999900000001,-10.043676376342773,-0.043095629662275314,-0.5291185975074768,34.1033935546875,-8.5601806640625,-1.3885498046875
11.2499999,-9.883264541625977,-0.2106897532939911,-0.09576806426048279,-15.045166015625,4.0435791015625,0.335693359375
11.2699999,-9.835380554199219,0.2825157940387726,0.7254431247711182,-36.92626953125,14.7552490234375,0.946044921875
11.2899999,-9.813833236694336,0.3208230137825012,0.8906430602073669,-57.8460693359375,15.93017578125,0.9613037109375
11.309999900000001,-9.943120002746582,0.05506663769483566,0.5602431893348694,-38.330078125,16.6473388671875,-6.317138671875
11.3299999,-10.139444351196289,-0.20111294090747833,-0.15562310814857483,33.599853515625,-0.0457763671875,3.875732421875
11.3499999,-10.122684478759766,-0.5530605912208557,-0.6919242739677429,50.6439208984375,-8.392333984375,8.087158203125
11.3699999,-10.33098030090332,-0.5817909836769104,-1.1420341730117798,23.5443115234375,2.3040771484375,3.8604736328125
11.389999900000001,-10.153809547424316,-0.19632454216480255,-0.8403648138046265,22.1710205078125,-2.8839111328125,5.218505859375
11.4099999,-10.182539939880371,0.11013327538967133,-0.6177040338516235,19.6990966796875,-8.4991455078125,-0.79345703125
11.4299999,-10.050858497619629,0.5626373887062073,-0.0454898327589035,18.1427001953125,0.946044921875,-10.5743408203125
11.4499999,-9.890447616577148,0.9457096457481384,0.8044517636299133,0.030517578125,11.0321044921875,-10.223388671875
11.469999900000001,-9.828198432922363,0.9768342971801758,1.2545616626739502,-36.6668701171875,27.5115966796875,-6.072998046875
11.4899999,-9.883264541625977,0.5674257874488831,1.0965443849563599,-33.843994140625,32.257080078125,-2.716064453125
11.5099999,-9.96945571899414,-0.20111294090747833,0.16759411990642548,16.082763671875,10.4522705078125,2.7923583984375
11.5299999,-10.113107681274414,-0.950498104095459,-1.0893617868423462,59.326171875,-11.0015869140625,8.60595703125
11.549999900000001,-10.180145263671875,-1.2713210582733154,-1.8938134908676147,60.9283447265625,-15.533447265625,10.406494140625
11.569999900000001,-10.11789608001709,-0.950498104095459,-1.8483237028121948,33.5693359375,-10.711669921875,9.0484619140625
11.5899999,-10.017339706420898,-0.2753331959247589,-1.1851298809051514,1.6326904296875,-4.33349609375,5.9967041015625
11.6099999,-9.916783332824707,0.4118026793003082,-0.33758243918418884,-16.937255859375,1.3275146484375,3.9825439453125
11.629999900000001,-9.907206535339355,0.8068459630012512,0.28969839215278625,-21.66748046875,7.598876953125,4.94384765625
11.649999900000001,-9.926360130310059,0.8259995579719543,0.5410895943641663,-18.85986328125,9.0179443359375,3.8604736328125
11.6699999,-10.11789608001709,0.5889736413955688,0.5003881454467773,-10.8489990234375,5.3253173828125,5.8441162109375
11.6899999,-10.42195987701416,0.2106897532939911,0.3064578175544739,-2.8533935546875,3.8909912109375,3.4942626953125
11.709999900000001,-10.90798282623291,-0.05027823522686958,0.026336219161748886,-0.5035400390625,4.608154296875,2.2735595703125
11.729999900000001,-11.513715744018555,-0.17477671802043915,-0.26815059781074524,-1.6021728515625,4.69970703125,5.340576171875
11.7499999,-11.865663528442383,-0.05985504388809204,-0.6057330369949341,-0.8392333984375,-0.213623046875,-2.86865234375
11.7699999,-12.076353073120117,0.19632454216480255,-0.9313444495201111,2.25830078125,-2.4261474609375,-7.598876953125
11.7899999,-11.78665542602539,0.47884035110473633,-1.1683704853057861,6.2103271484375,-12.7716064453125,-17.1661376953125
11.809999900000001,-11.238382339477539,0.6584054827690125,-1.2449848651885986,7.7972412109375,-12.7410888671875,-26.2451171875
11.8299999,-10.496180534362793,0.667982280254364,-1.1324573755264282,8.270263671875,0.3814697265625,-21.8353271484375
11.8499999,-9.730035781860352,0.5434837937355042,-0.9600749015808105,5.7525634765625,11.6424560546875,-10.0555419921875
11.8699999,-9.07641887664795,0.33279404044151306,-0.7948749661445618,1.312255859375,11.993408203125,0.152587890625
11.889999900000001,-8.671798706054688,0.1364694982767105,-0.7326257228851318,-1.1749267578125,10.4217529296875,5.0506591796875
11.9099999,-8.468291282653809,-0.031124621629714966,-0.7613561153411865,0.1678466796875,13.6260986328125,1.6632080078125
11.9299999,-8.4108304977417,-0.181959331035614,-0.8619126081466675,4.1046142578125,18.9208984375,-5.950927734375
11.9499999,-8.422801971435547,-0.3232172429561615,-0.9911994934082031,8.72802734375,21.0723876953125,-9.7198486328125
11.969999900000001,-8.47547435760498,-0.4620809257030487,-1.1228805780410767,13.2904052734375,20.111083984375,-8.1024169921875
11.9899999,-8.544905662536621,-0.5913678407669067,-1.194706678390503,17.0745849609375,17.15087890625,-2.7313232421875
12.0099999,-8.676587104797363,-0.6703764796257019,-1.1755530834197998,18.157958984375,13.9007568359375,3.662109375
12.0299999,-8.856152534484863,-0.6943184733390808,-1.0582371950149536,17.5933837890625,14.1448974609375,3.204345703125
12.049999900000001,-9.083600997924805,-0.6631938815116882,-0.8451532125473022,16.54052734375,17.1051025390625,-3.173828125
12.069999900000001,-9.32541561126709,-0.6033388376235962,-0.5985504388809204,15.1824951171875,20.20263671875,-8.48388671875
12.0899999,-9.5408935546875,-0.5219359993934631,-0.33997663855552673,13.0767822265625,19.1497802734375,-11.1846923828125
12.1099999,-9.725247383117676,-0.4596867263317108,-0.11971008777618408,8.6517333984375,16.6473388671875,-14.190673828125
12.129999900000001,-9.854534149169922,-0.43095630407333374,0.040701430290937424,3.47900390625,12.603759765625,-14.7857666015625
12.149999900000001,-9.945513725280762,-0.42856210470199585,0.13407529890537262,-0.396728515625,6.072998046875,-10.528564453125
12.1699999,-9.995792388916016,-0.45250412821769714,0.14365209639072418,-2.0751953125,2.3193359375,-6.7291259765625
12.1899999,-9.998186111450195,-0.49559974670410156,0.07661445438861847,-2.288818359375,1.40380859375,-4.82177734375
12.209999900000001,-9.988609313964844,-0.5099649429321289,-0.0454898327589035,-2.410888671875,-1.617431640625,-0.4425048828125
12.229999900000001,-9.99339771270752,-0.47165772318840027,-0.20111294090747833,-2.2430419921875,-5.06591796875,2.288818359375
12.2499999,-10.012551307678223,-0.3878606855869293,-0.3471592366695404,-1.9989013671875,-5.0506591796875,-0.244140625
12.2699999,-10.070012092590332,-0.2753331959247589,-0.4596867263317108,-3.1280517578125,-3.5247802734375,-1.983642578125
12.289999900000002,-10.153809547424316,-0.16998831927776337,-0.5410895943641663,-4.4708251953125,-3.4942626953125,-0.4119873046875
12.309999900000001,-10.228029251098633,-0.10055647045373917,-0.6009446382522583,-4.8675537109375,-4.8675537109375,0.48828125
12.3299999,-10.278307914733887,-0.08379705995321274,-0.6775590777397156,-4.547119140625,-4.180908203125,-1.3275146484375
12.3499999,-10.309432983398438,-0.10534487664699554,-0.7805097699165344,-2.7008056640625,-3.0670166015625,-2.1209716796875
12.3699999,-10.299856185913086,-0.1388636976480484,-0.8738836050033569,-0.3814697265625,-4.913330078125,-0.885009765625
12.389999900000001,-10.247182846069336,-0.19393034279346466,-0.9457096457481384,0.762939453125,-4.1046142578125,-1.251220703125
12.4099999,-10.182539939880371,-0.2298433631658554,-0.9744400978088379,1.4190673828125,-1.953125,-0.6103515625
12.4299999,-10.108319282531738,-0.24420857429504395,-0.9576807022094727,1.46484375,-4.33349609375,2.2125244140625
12.4499999,-10.038887977600098,-0.24181437492370605,-0.9217676520347595,0.1068115234375,-7.1258544921875,2.38037109375
12.469999900000001,-9.96945571899414,-0.2346317619085312,-0.8667010068893433,-1.739501953125,-8.0718994140625,0.2593994140625
12.4899999,-9.890447616577148,-0.24420857429504395,-0.8068459630012512,-3.5247802734375,-6.8817138671875,1.0223388671875
12.5099999,-9.821015357971191,-0.2801215946674347,-0.7541735172271729,-5.0201416015625,-3.875732421875,4.94384765625
12.5299999,-9.794678688049316,-0.3232172429561615,-0.7158663272857666,-6.34765625,-0.91552734375,5.06591796875
12.549999900000001,-9.80904483795166,-0.37828385829925537,-0.706289529800415,-6.6986083984375,1.7242431640625,-2.13623046875
12.569999900000001,-9.861717224121094,-0.4381389021873474,-0.727837324142456,-5.31005859375,2.1820068359375,-6.3323974609375
12.5899999,-9.921571731567383,-0.49559974670410156,-0.7613561153411865,-2.6397705078125,-1.0833740234375,-1.6937255859375
12.6099999,-9.955090522766113,-0.5363011956214905,-0.790086567401886,-0.335693359375,-5.8135986328125,3.448486328125
12.629999900000001,-10.067618370056152,-0.5171475410461426,-0.7876923680305481,0.1373291015625,-6.4697265625,3.1890869140625
12.649999900000001,-10.247182846069336,-0.4572925269603729,-0.8020575642585754,-0.091552734375,1.312255859375,1.5106201171875
12.6699999,-10.398017883300781,-0.3423708379268646,-0.8236053586006165,0.1678466796875,2.0599365234375,8.4991455078125
12.6899999,-10.474632263183594,-0.2059013396501541,-0.8738836050033569,0.4730224609375,-2.44140625,11.6424560546875
12.709999900000001,-10.359710693359375,-0.090979665517807,-0.9241618514060974,0.701904296875,-4.7454833984375,11.8255615234375
12.729999900000001,-10.220847129821777,-0.019153613597154617,-0.9217676520347595,-0.7781982421875,-0.91552734375,11.5814208984375
12.7499999,-10.000580787658691,0.035913024097681046,-0.8571242094039917,-2.899169921875,-2.166748046875,6.0577392578125
12.7699999,-9.840168952941895,0.0454898327589035,-0.7493851184844971,-4.0740966796875,-3.9520263671875,3.387451171875
12.789999900000002,-9.797073364257812,0.05506663769483566,-0.6200982332229614,-3.0975341796875,-1.1749267578125,2.13623046875
12.809999900000001,-9.715670585632324,0.023942016065120697,-0.5147533416748047,-1.52587890625,-2.3345947265625,-3.0670166015625
12.8299999,-9.828198432922363,-0.07182604819536209,-0.48602294921875,-0.91552734375,-0.7781982421875,-1.678466796875
12.8499999,-9.895236015319824,-0.2082955539226532,-0.5195417404174805,0.54931640625,0.244140625,5.2642822265625
12.8699999,-9.979032516479492,-0.2968810200691223,-0.5841852426528931,-0.0762939453125,-1.03759765625,6.65283203125
12.889999900000001,-10.017339706420898,-0.28969839215278625,-0.6799532771110535,-3.3111572265625,-1.373291015625,4.9896240234375
12.9099999,-10.007762908935547,-0.21308395266532898,-0.768538773059845,-6.0577392578125,-2.38037109375,3.2958984375
12.9299999,-10.010157585144043,-0.06224924325942993,-0.7924807667732239,-4.9896240234375,-4.1351318359375,2.960205078125
12.9499999,-10.000580787658691,0.0694318488240242,-0.7493851184844971,-1.9989013671875,-4.3792724609375,2.1820068359375
12.969999900000001,-9.988609313964844,0.16998831927776337,-0.6536170840263367,-0.79345703125,-3.448486328125,0.06103515625
12.9899999,-9.988609313964844,0.19871874153614044,-0.5434837937355042,-0.640869140625,-2.288818359375,-1.953125
13.0099999,-9.986215591430664,0.181959331035614,-0.5003881454467773,-1.0223388671875,-1.7547607421875,-1.9683837890625
13.0299999,-10.012551307678223,0.15801730751991272,-0.5099649429321289,-1.6021728515625,-2.4261474609375,-1.5411376953125
13.049999900000001,-10.029311180114746,0.10055647045373917,-0.5746083855628967,-1.861572265625,-3.5400390625,-3.173828125
13.069999900000001,-10.031704902648926,0.05267243832349777,-0.6440402865409851,-0.885009765625,-4.180908203125,-4.180908203125
13.0899999,-10.005369186401367,-0.011971008032560349,-0.6751648783683777,2.410888671875,-5.615234375,-3.60107421875
13.1099999,-9.983820915222168,-0.10534487664699554,-0.7038952708244324,4.0130615234375,-7.14111328125,-3.72314453125
13.129999900000001,-9.983820915222168,-0.1843535304069519,-0.6440402865409851,3.3721923828125,-7.781982421875,-4.6539306640625
13.149999900000001,-9.981427192687988,-0.272938996553421,-0.6512228846549988,3.5400390625,-8.6669921875,-3.936767578125
13.1699999,-10.007762908935547,-0.33758243918418884,-0.5386953949928284,6.9732666015625,-9.246826171875,-1.7852783203125
13.1899999,-9.95748519897461,-0.43335050344467163,-0.48602294921875,10.07080078125,-8.5296630859375,1.007080078125
13.209999900000001,-9.952696800231934,-0.4620809257030487,-0.37828385829925537,7.9345703125,-4.7607421875,1.5106201171875
13.229999900000001,-9.895236015319824,-0.40222588181495667,-0.2849099934101105,5.5084228515625,-3.4942626953125,1.7852783203125
13.2499999,-9.909601211547852,-0.2106897532939911,-0.14365209639072418,2.7923583984375,-3.5552978515625,2.655029296875
13.2699999,-9.962273597717285,0.002394201699644327,-0.08858546614646912,0.152587890625,-2.9144287109375,2.8228759765625
13.289999900000002,-10.019734382629395,0.17717093229293823,-0.05027823522686958,-0.152587890625,-5.615234375,-1.0986328125
13.309999900000001,-10.019734382629395,0.2106897532939911,-0.05746084079146385,3.448486328125,-9.124755859375,-4.486083984375
13.3299999,-9.988609313964844,0.14365209639072418,-0.06224924325942993,6.04248046875,-4.5318603515625,-6.134033203125
13.3499999,-9.959878921508789,-0.026336219161748886,-0.07422025501728058,1.3427734375,0.7171630859375,-5.55419921875
13.3699999,-9.911994934082031,-0.17238251864910126,-0.040701430290937424,-3.2196044921875,4.119873046875,-3.7841796875
13.389999900000001,-9.983820915222168,-0.3687070608139038,-0.05027823522686958,-2.9296875,2.4261474609375,2.0751953125
13.4099999,-10.031704902648926,-0.49799394607543945,-0.07661445438861847,-0.3509521484375,-0.7781982421875,7.904052734375
13.4299999,-9.998186111450195,-0.5554547905921936,-0.15801730751991272,1.5411376953125,-6.0272216796875,2.7313232421875
13.4499999,-9.931148529052734,-0.5674257874488831,-0.2106897532939911,3.3721923828125,-4.82177734375,-3.509521484375
13.469999900000001,-9.921571731567383,-0.4213795065879822,-0.3016694188117981,5.31005859375,3.0670166015625,1.0223388671875
13.4899999,-9.871294021606445,-0.26336219906806946,-0.18914192914962769,-0.8697509765625,4.1351318359375,4.3487548828125
13.5099999,-9.971850395202637,0.05506663769483566,-0.004788403399288654,-13.5345458984375,3.11279296875,4.669189453125
13.5299999,-9.964667320251465,0.18914192914962769,0.17717093229293823,-25.0701904296875,2.74658203125,3.6468505859375
13.549999900000001,-9.947908401489258,0.26815059781074524,0.2968810200691223,-26.2451171875,5.7373046875,-3.60107421875
13.569999900000001,-9.981427192687988,0.07182604819536209,0.07422025501728058,-16.9830322265625,8.4686279296875,-5.828857421875
13.5899999,-9.938331604003906,-0.26815059781074524,-0.2825157940387726,-6.500244140625,9.7198486328125,3.0670166015625
13.6099999,-10.113107681274414,-0.5051765441894531,-0.7182605266571045,5.55419921875,1.3427734375,7.843017578125
13.629999900000001,-10.146626472473145,-0.7110779285430908,-1.1085153818130493,16.4337158203125,-9.7198486328125,9.002685546875
13.649999900000001,-10.134655952453613,-0.6655880808830261,-1.278503656387329,23.956298828125,-16.9219970703125,3.1585693359375
13.6699999,-10.129867553710938,-0.3998316824436188,-1.161187767982483,27.03857421875,-15.594482421875,-2.5787353515625
13.6899999,-10.043676376342773,-0.19871874153614044,-0.9097966551780701,15.2130126953125,-7.14111328125,-0.5950927734375
13.709999900000001,-9.8784761428833,0.26815059781074524,-0.24420857429504395,-0.030517578125,-6.6680908203125,4.7760009765625
13.729999900000001,-9.823410034179688,0.586579442024231,0.43335050344467163,-21.66748046875,-4.0740966796875,7.110595703125
13.7499999,-9.691728591918945,0.9074024558067322,1.1468225717544556,-51.1322021484375,6.7901611328125,1.1138916015625
13.7699999,-9.425971984863281,1.1444283723831177,1.8195933103561401,-65.521240234375,17.7764892578125,-12.0849609375
13.789999900000002,-9.5624418258667,1.0773907899856567,1.9847931861877441,-78.91845703125,35.94970703125,-6.4849853515625
13.809999900000001,-9.526528358459473,0.5530605912208557,1.558625340461731,-85.14404296875,41.4581298828125,-5.67626953125
13.8299999,-9.768342971801758,-0.19153612852096558,0.5123591423034668,-37.017822265625,17.3492431640625,-1.2664794921875
13.8499999,-10.146626472473145,-0.9193734526634216,-0.8762778043746948,23.3917236328125,6.5765380859375,10.8184814453125
13.8699999,-10.022128105163574,-1.1061211824417114,-1.8291701078414917,22.491455078125,-5.889892578125,9.5062255859375
13.889999900000001,-10.036493301391602,-0.3256114423274994,-1.647210717201233,-16.4642333984375,-4.669189453125,-5.096435546875
13.9099999,-9.921571731567383,0.11971008777618408,-1.5634137392044067,-84.442138671875,28.350830078125,-13.2904052734375
13.9299999,-10.014945983886719,0.524330198764801,-1.1444283723831177,-65.460205078125,24.3682861328125,-7.5531005859375
13.9499999,-10.17296314239502,0.2513911724090576,-1.170764684677124,4.302978515625,-12.908935546875,1.373291015625
13.969999900000001,-10.383652687072754,-0.667982280254364,-1.900996208190918,24.169921875,-12.237548828125,1.7547607421875
13.9899999,-10.285490036010742,-1.0845733880996704,-2.0638017654418945,45.95947265625,-9.7198486328125,5.4931640625
14.0099999,-10.266336441040039,-1.0414776802062988,-1.8124107122421265,53.0242919921875,-22.2625732421875,5.1727294921875
14.0299999,-10.098742485046387,-0.8834604024887085,-1.53707754611969,16.876220703125,-10.8184814453125,2.8076171875
14.049999900000001,-10.0580415725708,-0.2968810200691223,-0.7948749661445618,14.556884765625,-10.2691650390625,8.3465576171875
14.069999900000001,-10.029311180114746,0.11971008777618408,-0.3016694188117981,27.03857421875,-19.012451171875,7.1258544921875
14.0899999,-9.940725326538086,0.3711012601852417,-0.0071826050989329815,16.17431640625,-14.923095703125,-2.471923828125
14.1099999,-9.830592155456543,0.8595184087753296,0.49559974670410156,11.2152099609375,-8.9569091796875,-7.232666015625
14.129999900000001,-9.821015357971191,0.9145850539207458,0.689530074596405,-13.671875,4.5166015625,-7.6446533203125
14.149999900000001,-9.823410034179688,0.7565677165985107,0.6847416758537292,-26.4739990234375,8.85009765625,-5.950927734375
14.1699999,-9.883264541625977,0.2585737705230713,0.45250412821769714,-1.8157958984375,1.64794921875,1.15966796875
14.1899999,-9.974244117736816,-0.3974374830722809,-0.27054479718208313,21.3623046875,-6.8206787109375,0.244140625
14.209999900000001,-10.002974510192871,-0.6727706789970398,-0.6153098344802856,38.0859375,-10.498046875,-1.4801025390625
14.229999900000001,-10.02691650390625,-0.42616790533065796,-0.6320692300796509,21.209716796875,-5.2032470703125,-2.3193359375
14.2499999,-10.046070098876953,-0.08858546614646912,-0.4620809257030487,-19.744873046875,4.8065185546875,-6.2103271484375
14.2699999,-10.034099578857422,0.2801215946674347,-0.11252748221158981,-19.8822021484375,2.166748046875,-2.2430419921875
14.289999900000002,-10.086771965026855,0.2585737705230713,-0.22026655077934265,2.2735595703125,-6.9427490234375,-3.8299560546875
14.309999900000001,-10.098742485046387,0.047884032130241394,-0.4189853072166443,20.9808349609375,-11.2762451171875,-7.4005126953125
14.3299999,-9.981427192687988,0.10534487664699554,-0.2585737705230713,19.22607421875,-9.979248046875,-6.89697265625
14.3499999,-9.998186111450195,-0.1843535304069519,-0.19393034279346466,-15.1824951171875,6.011962890625,-7.415771484375
14.3699999,-9.923966407775879,-0.2106897532939911,0.10534487664699554,-13.85498046875,2.655029296875,0.030517578125
14.389999900000001,-9.940725326538086,-0.5889736413955688,0.1149216815829277,8.36181640625,-6.7596435546875,4.1046142578125
14.4099999,-9.964667320251465,-0.8379706144332886,-0.18914192914962769,20.69091796875,-8.6669921875,2.3193359375
14.4299999,-9.883264541625977,-0.6416460275650024,-0.08619125932455063,21.7742919921875,-8.11767578125,0.0152587890625
14.4499999,-9.928754806518555,-0.4812345504760742,-0.13168109953403473,-10.8795166015625,5.2032470703125,0.823974609375
14.469999900000001,-9.943120002746582,-0.12210428714752197,-0.05506663769483566,-12.5579833984375,5.31005859375,1.7242431640625
14.4899999,-10.005369186401367,-0.07661445438861847,-0.07182604819536209,11.566162109375,-8.7127685546875,5.43212890625
14.5099999,-10.101137161254883,-0.12689268589019775,-0.4357447028160095,18.00537109375,-12.908935546875,2.838134765625
14.5299999,-9.96945571899414,-0.09576806426048279,-0.31603461503982544,18.829345703125,-10.4522705078125,-4.3792724609375
14.549999900000001,-10.000580787658691,-0.05267243832349777,-0.24420857429504395,0.396728515625,-4.241943359375,-2.349853515625
14.569999900000001,-9.792284965515137,-0.09816227108240128,0.0694318488240242,-12.14599609375,2.7313232421875,0.9613037109375
14.5899999,-9.967061996459961,-0.10773907601833344,0.3687070608139038,2.777099609375,-2.3193359375,4.0435791015625
14.6099999,-9.971850395202637,-0.2777273952960968,0.2537853717803955,1.8463134765625,-5.7220458984375,3.8299560546875
14.629999900000001,-9.856928825378418,-0.4429273009300232,0.18914192914962769,6.34765625,-5.584716796875,-0.91552734375
14.649999900000001,-10.077195167541504,-0.2346317619085312,0.16519992053508759,21.6064453125,-4.364013671875,1.3580322265625
14.6699999,-9.9000244140625,-0.2585737705230713,0.047884032130241394,4.7454833984375,1.1444091796875,3.6468505859375
14.6899999,-9.897629737854004,0.021547814831137657,0.33758243918418884,-7.598876953125,0.3204345703125,-0.06103515625
14.709999900000001,-10.02452278137207,0.23702596127986908,0.42616790533065796,-20.1873779296875,1.2054443359375,1.77001953125
14.729999900000001,-9.847352027893066,0.17477671802043915,0.524330198764801,-41.0308837890625,9.2620849609375,-3.875732421875
14.7499999,-9.967061996459961,0.4596867263317108,1.0079588890075684,-23.284912109375,6.011962890625,-3.84521484375
14.7699999,-9.940725326538086,0.15322890877723694,0.8954314589500427,-39.2303466796875,22.216796875,-0.701904296875
14.789999900000002,-10.012551307678223,-0.08619125932455063,0.6919242739677429,-32.989501953125,25.4364013671875,-0.5035400390625
14.809999900000001,-10.108319282531738,-0.4405331015586853,0.17956513166427612,18.37158203125,4.6539306640625,6.7138671875
14.8299999,-10.187328338623047,-0.6584054827690125,-0.7996633648872375,26.8707275390625,-4.364013671875,6.1492919921875
14.8499999,-10.144232749938965,-0.6344634294509888,-1.235408067703247,17.15087890625,-1.9989013671875,-5.37109375
14.8699999,-10.110713958740234,-0.08140286058187485,-1.1420341730117798,12.3443603515625,-3.72314453125,-6.0882568359375
14.889999900000001,-9.93354320526123,0.0454898327589035,-0.8738836050033569,-11.29150390625,4.638671875,-3.3111572265625
14.9099999,-9.909601211547852,0.11252748221158981,-0.014365210197865963,12.0391845703125,-4.4097900390625,-2.1514892578125
14.9299999,-9.909601211547852,-0.090979665517807,-0.05267243832349777,13.671875,-0.0762939453125,-3.7384033203125
14.9499999,-9.945513725280762,-0.12689268589019775,-0.019153613597154617,15.6402587890625,1.52587890625,-5.5389404296875
14.969999900000001,-9.916783332824707,-0.24899697303771973,-0.31364041566848755,-0.732421875,3.6163330078125,-1.739501953125
14.9899999,-9.883264541625977,-0.3758896589279175,-0.3280056416988373,2.8228759765625,-2.3193359375,-1.2359619140625
15.0099999,-10.053253173828125,-0.40462008118629456,-0.30885201692581177,9.3994140625,-9.1400146484375,2.593994140625
15.0299999,-9.921571731567383,-0.49320554733276367,-0.21787235140800476,-14.312744140625,-5.8746337890625,3.11279296875
15.049999900000001,-9.998186111450195,-0.2825157940387726,0.2825157940387726,-19.7296142578125,-1.0528564453125,-3.4027099609375
15.069999900000001,-10.029311180114746,-0.17717093229293823,0.4429273009300232,-31.6162109375,8.697509765625,-1.1444091796875
15.0899999,-9.986215591430664,-0.2849099934101105,0.47884035110473633,-35.369873046875,14.251708984375,5.3253173828125
15.1099999,-10.098742485046387,-0.49559974670410156,0.2106897532939911,4.2877197265625,1.0986328125,6.072998046875
15.129999900000001,-10.15141487121582,-0.6392518281936646,-0.45010992884635925,35.888671875,-5.3558349609375,2.8076171875
15.149999900000001,-10.029311180114746,-0.5770025849342346,-0.7350199222564697,44.1131591796875,-8.4686279296875,1.6632080078125
15.1699999,-10.010157585144043,-0.011971008032560349,-0.5530605912208557,27.1759033203125,-7.3699951171875,-7.232666015625
15.1899999,-9.919178009033203,0.3016694188117981,-0.33997663855552673,-12.9241943359375,6.5765380859375,-8.0413818359375
15.209999900000001,-9.840168952941895,0.5027823448181152,0.13168109953403473,-17.4102783203125,4.180908203125,-1.8463134765625
15.229999900000001,-9.923966407775879,0.3280056416988373,0.13168109953403473,-3.90625,-2.593994140625,-3.021240234375
15.2499999,-9.950302124023438,-0.09576806426048279,-0.08379705995321274,7.9345703125,-3.509521484375,-5.645751953125
15.2699999,-9.967061996459961,-0.17717093229293823,-0.06464344263076782,13.763427734375,-3.6163330078125,-6.4697265625
15.289999900000002,-10.014945983886719,-0.42377370595932007,-0.08619125932455063,-6.6070556640625,5.1116943359375,-4.4097900390625
15.309999900000001,-10.038887977600098,-0.507570743560791,-0.014365210197865963,-7.1868896484375,4.6539306640625,1.068115234375
15.3299999,-10.086771965026855,-0.6248866319656372,-0.031124621629714966,9.429931640625,-4.39453125,6.591796875
15.3499999,-10.02452278137207,-0.7637503147125244,-0.2322375625371933,13.3819580078125,-8.2550048828125,0.885009765625
15.3699999,-10.014945983886719,-0.47884035110473633,-0.17717093229293823,10.5743408203125,-6.6986083984375,-4.33349609375
15.389999900000001,-9.938331604003906,-0.3256114423274994,-0.09816227108240128,-13.3056640625,3.509521484375,-3.0670166015625
15.4099999,-9.914389610290527,-0.0933738648891449,0.06224924325942993,-21.5911865234375,6.77490234375,0.42724609375
15.4299999,-10.041281700134277,-0.1388636976480484,0.07661445438861847,-5.4473876953125,-3.8604736328125,3.9520263671875
15.4499999,-10.012551307678223,-0.3064578175544739,-0.009576806798577309,6.1492919921875,-5.218505859375,1.9989013671875
15.469999900000001,-10.086771965026855,-0.2585737705230713,0.07661445438861847,11.8408203125,-3.265380859375,-1.922607421875
15.4899999,-10.034099578857422,-0.2513911724090576,0.38067805767059326,-4.119873046875,6.7291259765625,-1.5106201171875
15.5099999,-10.019734382629395,-0.10773907601833344,0.4908113479614258,-19.6533203125,16.7236328125,0.396728515625
15.5299999,-10.067618370056152,-0.23942017555236816,0.5937620401382446,-10.25390625,8.6669921875,7.5836181640625
15.549999900000001,-10.086771965026855,-0.4118026793003082,0.20111294090747833,-5.43212890625,1.1749267578125,8.4991455078125
15.569999900000001,-10.125079154968262,-0.7541735172271729,-0.2753331959247589,-0.54931640625,3.23486328125,5.096435546875
15.5899999,-10.067618370056152,-0.8643068075180054,-0.6631938815116882,21.8658447265625,-0.4119873046875,5.035400390625
15.6099999,-10.050858497619629,-0.8331822156906128,-0.7637503147125244,40.46630859375,-5.7373046875,9.2010498046875
15.629999900000001,-9.988609313964844,-0.5219359993934631,-0.5889736413955688,28.8543701171875,-2.4261474609375,7.4462890625
15.649999900000001,-9.928754806518555,-0.011971008032560349,-0.1412578970193863,3.0975341796875,0.8697509765625,5.157470703125
15.6699999,-9.871294021606445,0.4836287498474121,0.29209262132644653,-18.6309814453125,6.1187744140625,1.556396484375
15.6899999,-9.873687744140625,0.790086567401886,0.5219359993934631,-28.6102294921875,11.9476318359375,-0.5340576171875
15.709999900000001,-9.99100399017334,0.8259995579719543,0.5003881454467773,-27.9998779296875,16.357421875,-1.6021728515625
15.729999900000001,-10.144232749938965,0.6009446382522583,0.304063618183136,-21.4996337890625,9.1705322265625,4.08935546875
15.7499999,-10.409989356994629,0.2753331959247589,0.014365210197865963,-12.6495361328125,6.7138671875,-1.8310546875
15.7699999,-10.647014617919922,-0.08858546614646912,-0.2968810200691223,0.1220703125,9.613037109375,-8.9263916015625
15.789999900000002,-10.924742698669434,-0.3471592366695404,-0.5746083855628967,13.0157470703125,3.0975341796875,-4.1046142578125
15.809999900000001,-11.183316230773926,-0.5602431893348694,-0.871489405632019,21.484375,-4.2572021484375,-3.143310546875
15.8299999,-11.401188850402832,-0.5913678407669067,-1.0534487962722778,27.2369384765625,-5.6610107421875,-6.6680908203125
15.8499999,-11.487380027770996,-0.47644615173339844,-1.0223240852355957,31.280517578125,-6.866455078125,-9.490966796875
15.869999900000002,-11.480196952819824,-0.2059013396501541,-0.8259995579719543,31.951904296875,0.4425048828125,-18.49365234375
15.889999900000001,-11.353304862976074,0.1628057211637497,-0.4884171485900879,28.3050537109375,9.7198486328125,-30.3497314453125
15.9099999,-11.133037567138672,0.5315127968788147,-0.12689268589019775,21.9268798828125,9.6588134765625,-36.0565185546875
15.9299999,-10.81700325012207,0.8188169598579407,0.14844051003456116,16.357421875,7.99560546875,-36.3922119140625
15.9499999,-10.390835762023926,0.9624691009521484,0.304063618183136,14.251708984375,9.6588134765625,-35.0799560546875
15.969999900000001,-9.943120002746582,0.9840168952941895,0.33997663855552673,15.716552734375,12.5885009765625,-32.2723388671875
15.9899999,-9.567230224609375,0.9265560507774353,0.272938996553421,19.6075439453125,13.1988525390625,-31.4788818359375
16.0099999,-9.311050415039062,0.811634361743927,0.1412578970193863,23.8494873046875,9.70458984375,-35.0189208984375
16.0299999,-9.191340446472168,0.6488286852836609,-0.011971008032560349,28.1219482421875,5.2337646484375,-37.7349853515625
16.0499999,-9.155426979064941,0.45010992884635925,-0.14365209639072418,32.4249267578125,1.7242431640625,-37.2467041015625
16.0699999,-9.141061782836914,0.19393034279346466,-0.2346317619085312,36.56005859375,0.3204345703125,-39.48974609375
16.089999900000002,-9.148244857788086,-0.08379705995321274,-0.2944868206977844,40.252685546875,-1.251220703125,-45.7000732421875
16.109999900000002,-9.136273384094238,-0.36152446269989014,-0.33039984107017517,43.4722900390625,-6.1492919921875,-53.0853271484375
16.1299999,-9.059659004211426,-0.6536170840263367,-0.33997663855552673,46.4324951171875,-10.9405517578125,-58.3038330078125
16.1499999,-8.927978515625,-0.9792284965515137,-0.33997663855552673,49.407958984375,-9.5367431640625,-56.57958984375
16.1699999,-8.75080680847168,-1.3096283674240112,-0.3016694188117981,51.7578125,-7.904052734375,-49.49951171875
16.1899999,-8.611943244934082,-1.6184803247451782,-0.24899697303771973,53.0548095703125,-8.8348388671875,-46.1273193359375
16.2099999,-8.542511940002441,-1.8746598958969116,-0.1843535304069519,52.6275634765625,-11.077880859375,-47.2412109375
16.2299999,-8.523358345031738,-2.0877439975738525,-0.0933738648891449,50.96435546875,-13.0615234375,-47.1649169921875
16.249999900000002,-8.523358345031738,-2.2912509441375732,0.009576806798577309,49.25537109375,-11.77978515625,-44.158935546875
16.269999900000002,-8.516175270080566,-2.5234885215759277,0.1364694982767105,47.760009765625,-9.613037109375,-40.771484375
16.2899999,-8.547300338745117,-2.7317841053009033,0.26096799969673157,45.196533203125,-9.0179443359375,-38.8031005859375
16.3099999,-8.628703117370605,-2.9328970909118652,0.363918662071228,41.50390625,-9.4451904296875,-41.412353515625
16.3299999,-8.753201484680176,-3.093308687210083,0.4572925269603729,38.1011962890625,-12.39013671875,-45.2423095703125
16.3499999,-8.904036521911621,-3.1962592601776123,0.5410895943641663,34.7137451171875,-14.5263671875,-48.15673828125
16.3699999,-9.016563415527344,-3.3063924312591553,0.629675030708313,31.341552734375,-12.9547119140625,-54.107666015625
16.3899999,-9.07641887664795,-3.406949043273926,0.7374141216278076,27.6947021484375,-11.260986328125,-59.8602294921875
16.4099999,-9.026140213012695,-3.5458126068115234,0.8379706144332886,23.8800048828125,-10.0555419921875,-63.4002685546875
16.429999900000002,-8.875306129455566,-3.7277719974517822,0.9552865028381348,19.83642578125,-10.009765625,-64.2852783203125
16.4499999,-8.671798706054688,-3.9480385780334473,1.0199298858642578,14.739990234375,-11.8560791015625,-64.727783203125
16.4699999,-8.425195693969727,-4.180276393890381,1.0893617868423462,10.467529296875,-18.4783935546875,-66.4825439453125
16.4899999,-8.20492935180664,-4.417302131652832,1.1827356815338135,7.4920654296875,-21.30126953125,-69.854736328125
16.5099999,-8.054094314575195,-4.623203277587891,1.292868971824646,3.753662109375,-13.671875,-75.25634765625
16.5299999,-7.996633529663086,-4.845864295959473,1.3862427473068237,0.8392333984375,-7.9345703125,-82.5653076171875
16.5499999,-8.01339340209961,-5.044582843780518,1.4221558570861816,2.6092529296875,-17.3797607421875,-85.8154296875
16.5699999,-8.039729118347168,-5.2480902671813965,1.400607943534851,6.04248046875,-30.7464599609375,-86.3037109375
16.589999900000002,-8.018181800842285,-5.4444146156311035,1.359906554222107,6.439208984375,-32.8826904296875,-86.761474609375
16.609999900000002,-7.90086555480957,-5.6191911697387695,1.3407529592514038,4.3487548828125,-28.25927734375,-87.982177734375
16.6299999,-7.5848307609558105,-5.822698593139648,1.4053963422775269,2.655029296875,-26.3519287109375,-89.29443359375
16.6499999,-7.1490864753723145,-6.026205539703369,1.5658079385757446,-0.0762939453125,-16.7083740234375,-85.87646484375
16.6699999,-6.653486728668213,-6.3973069190979,1.678335428237915,-4.57763671875,9.2315673828125,-80.657958984375
16.6899999,-6.3063273429870605,-6.806715488433838,1.7693150043487549,-5.401611328125,16.845703125,-68.359375
16.7099999,-6.1770405769348145,-7.261613845825195,1.7621324062347412,-2.6397705078125,3.23486328125,-56.33544921875
16.7299999,-6.291962146759033,-7.632715225219727,1.6759412288665771,0.701904296875,-5.218505859375,-52.8106689453125
16.749999900000002,-6.478709697723389,-7.848193168640137,1.580173134803772,4.791259765625,-3.6773681640625,-56.182861328125
16.769999900000002,-6.517016887664795,-7.939172744750977,1.5155296325683594,11.8255615234375,-6.103515625,-61.9659423828125
16.7899999,-6.361393928527832,-7.951143741607666,1.4939818382263184,22.39990234375,-11.2152099609375,-67.7337646484375
16.8099999,-6.028599739074707,-7.955932140350342,1.525106430053711,27.801513671875,-14.9383544921875,-71.71630859375
16.8299999,-5.6191911697387695,-7.9846625328063965,1.6112977266311646,30.8990478515625,-13.0462646484375,-71.47216796875
16.8499999,-5.2049946784973145,-8.02536392211914,1.7764976024627686,33.660888671875,-14.556884765625,-66.7724609375
16.8699999,-4.843470096588135,-8.087613105773926,1.9919757843017578,34.5916748046875,-17.4102783203125,-63.323974609375
16.8899999,-4.520252704620361,-8.145073890686035,2.2194249629974365,33.294677734375,-14.068603515625,-61.5234375
16.9099999,-4.2760443687438965,-8.209717750549316,2.4612393379211426,30.94482421875,-11.871337890625,-56.9305419921875
16.929999900000002,-4.127603530883789,-8.267178535461426,2.652775526046753,28.38134765625,-15.19775390625,-49.2706298828125
16.9499999,-4.077325344085693,-8.334216117858887,2.829946517944336,25.4669189453125,-23.5443115234375,-43.3502197265625
16.9699999,-4.067748546600342,-8.396465301513672,2.9688100814819336,20.4925537109375,-24.810791015625,-41.4581298828125
16.9899999,-4.036623954772949,-8.504204750061035,3.071760892868042,15.777587890625,-17.608642578125,-41.015625
17.0099999,-3.9911341667175293,-8.635885238647461,3.1531636714935303,13.85498046875,-14.8162841796875,-35.5072021484375
17.0299999,-3.952826976776123,-8.779537200927734,3.1483752727508545,13.5040283203125,-14.4500732421875,-32.89794921875
17.0499999,-3.9432501792907715,-8.973467826843262,3.0597896575927734,15.19775390625,-11.29150390625,-39.459228515625
17.0699999,-3.9169139862060547,-9.167398452758789,2.911349296569824,20.0347900390625,-12.51220703125,-42.266845703125
17.089999900000002,-3.801992416381836,-9.375694274902344,2.8179752826690674,25.848388671875,-14.862060546875,-37.53662109375
17.109999900000002,-3.6990416049957275,-9.617507934570312,2.784456491470337,27.4200439453125,-4.1046142578125,-35.9954833984375
17.1299999,-3.624821424484253,-9.828198432922363,2.8347349166870117,28.9764404296875,4.2724609375,-39.1998291015625
17.1499999,-3.6176388263702393,-9.99100399017334,2.9903578758239746,34.0728759765625,-7.1258544921875,-37.17041015625
17.1699999,-3.6391866207122803,-10.005369186401367,3.2082302570343018,36.4837646484375,-19.622802734375,-29.96826171875
17.1899999,-3.552995204925537,-9.86650562286377,3.5003228187561035,30.70068359375,-14.862060546875,-33.7677001953125
17.2099999,-3.3662476539611816,-9.648633003234863,3.7924153804779053,20.050048828125,-2.838134765625,-43.4722900390625
17.2299999,-3.134010076522827,-9.421183586120605,4.036623954772949,12.451171875,-6.256103515625,-37.8875732421875
17.249999900000002,-2.889801502227783,-9.229647636413574,4.216189384460449,7.01904296875,-20.0347900390625,-22.125244140625
17.269999900000002,-2.719813108444214,-9.131484985351562,4.307168960571289,-1.6326904296875,-17.9901123046875,-19.34814453125
17.2899999,-2.5929205417633057,-9.066842079162598,4.3406877517700195,-9.33837890625,-10.3302001953125,-23.651123046875
17.3099999,-2.52109432220459,-9.040505409240723,4.326322555541992,-10.07080078125,-12.8326416015625,-19.0887451171875
17.3299999,-2.5234885215759277,-9.047688484191895,4.228160381317139,-8.026123046875,-15.3350830078125,-12.1612548828125
17.3499999,-2.851494312286377,-9.062053680419922,4.065354347229004,-6.40869140625,-11.9476318359375,-15.7470703125
17.3699999,-2.892195701599121,-9.004592895507812,3.8594532012939453,-2.6092529296875,-9.82666015625,-23.651123046875
17.3899999,-3.1866824626922607,-9.016563415527344,3.7636849880218506,2.4871826171875,-6.072998046875,-16.1895751953125
17.409999900000003,-3.023876667022705,-8.999804496765137,3.73016619682312,4.57763671875,-5.31005859375,-12.5732421875
17.429999900000002,-2.808398485183716,-9.105149269104004,3.84269380569458,3.082275390625,-2.3651123046875,-11.627197265625
17.4499999,-2.559401512145996,-9.255983352661133,4.036623954772949,2.3040771484375,-0.8544921875,-6.439208984375
17.4699999,-2.3774423599243164,-9.373299598693848,4.199429988861084,2.5634765625,-2.166748046875,-7.0037841796875
17.4899999,-2.296039342880249,-9.41400146484375,4.256890773773193,2.3956298828125,-1.4801025390625,-10.3759765625
17.5099999,-2.2194249629974365,-9.370905876159668,4.247313976287842,2.9754638671875,-2.74658203125,-10.7269287109375
17.5299999,-2.2026655673980713,-9.27034854888916,4.1180267333984375,4.3487548828125,-0.3509521484375,-6.7138671875
17.5499999,-2.1499931812286377,-9.150638580322266,3.9600095748901367,7.2784423828125,-0.152587890625,-2.0294189453125
17.5699999,-2.164358377456665,-9.071630477905273,3.825934410095215,9.429931640625,-1.8157958984375,-2.044677734375
17.589999900000002,-2.1763293743133545,-8.949525833129883,3.7421371936798096,7.4615478515625,-2.6092529296875,-3.7384033203125
17.609999900000002,-2.140416383743286,-8.786720275878906,3.751713991165161,2.7923583984375,-2.4871826171875,-4.3182373046875
17.6299999,-2.094926595687866,-8.650250434875488,3.8283286094665527,-2.01416015625,-1.15966796875,-4.0740966796875
17.6499999,-2.013523578643799,-8.549694061279297,3.907337188720703,-5.401611328125,-1.46484375,-4.4708251953125
17.6699999,-1.9512743949890137,-8.578424453735352,3.928884983062744,-6.683349609375,-3.143310546875,-7.38525390625
17.6899999,-1.941697597503662,-8.700529098510742,3.890577793121338,-5.2947998046875,-4.82177734375,-7.4310302734375
17.7099999,-1.9153614044189453,-8.829815864562988,3.8307228088378906,-3.3721923828125,-5.4931640625,-6.317138671875
17.7299999,-1.9297266006469727,-8.96149730682373,3.8067808151245117,-4.33349609375,-5.6610107421875,-5.6915283203125
17.749999900000002,-1.9584569931030273,-9.026140213012695,3.804386615753174,-7.049560546875,-5.7373046875,-5.4779052734375
17.769999900000002,-1.946485996246338,-9.062053680419922,3.8594532012939453,-8.5296630859375,-7.0343017578125,-6.9122314453125
17.7899999,-1.9345149993896484,-9.11233139038086,3.890577793121338,-9.3231201171875,-6.53076171875,-5.035400390625
17.8099999,-1.8602946996688843,-9.167398452758789,3.936067581176758,-8.941650390625,-5.4931640625,-2.1209716796875
17.8299999,-1.7956513166427612,-9.246406555175781,4.022258758544922,-9.185791015625,-4.6234130859375,-1.1138916015625
17.8499999,-1.764526605606079,-9.318233489990234,4.1156325340271,-11.7645263671875,-2.7313232421875,0.9613037109375
17.8699999,-1.7477672100067139,-9.32541561126709,4.177882194519043,-14.404296875,-0.640869140625,2.5177001953125
17.8899999,-1.7980455160140991,-9.287108421325684,4.1611223220825195,-13.4429931640625,0.6256103515625,4.2266845703125
17.909999900000003,-1.8579005002975464,-9.184157371520996,4.01268196105957,-9.27734375,0.4730224609375,3.5247802734375
17.929999900000002,-1.9512743949890137,-9.107542991638184,3.8139634132385254,-3.6468505859375,-0.8392333984375,2.0904541015625
17.9499999,-2.0685901641845703,-9.030928611755371,3.6128504276275635,-0.3204345703125,-2.655029296875,0.640869140625
17.9699999,-2.121262788772583,-9.006986618041992,3.536235809326172,-1.129150390625,-6.317138671875,-2.7618408203125
17.9899999,-2.0661959648132324,-8.983044624328613,3.598485231399536,-5.645751953125,-7.6141357421875,-5.5084228515625
18.0099999,-1.9608511924743652,-8.975862503051758,3.7397429943084717,-12.0697021484375,-1.312255859375,-1.64794921875
18.0299999,-1.843535304069519,-8.992621421813965,3.864241600036621,-15.5792236328125,3.1585693359375,3.1890869140625
18.0499999,-1.7836803197860718,-9.011775016784668,3.866635799407959,-14.5263671875,0.8544921875,1.0833740234375
18.0699999,-1.7166426181793213,-9.02135181427002,3.73016619682312,-9.94873046875,-3.143310546875,-2.9449462890625
18.089999900000002,-1.7166426181793213,-9.011775016784668,3.49314022064209,-4.5013427734375,-0.823974609375,-1.495361328125
18.109999900000002,-1.6879122257232666,-9.006986618041992,3.248931646347046,2.6092529296875,-0.4730224609375,0.2899169921875
18.1299999,-1.6903064250946045,-8.992621421813965,3.1028854846954346,8.758544921875,-3.2958984375,-2.7923583984375
18.1499999,-1.7549498081207275,-8.944737434387207,3.098097085952759,8.148193359375,-4.8828125,-5.3558349609375
18.1699999,-1.8052281141281128,-8.825027465820312,3.2178070545196533,0.701904296875,-4.241943359375,-6.5460205078125
18.1899999,-1.821987509727478,-8.635885238647461,3.4165258407592773,-7.3394775390625,-2.777099609375,-9.58251953125
18.2099999,-1.7932571172714233,-8.456320762634277,3.6176388263702393,-13.85498046875,-1.983642578125,-13.671875
18.2299999,-1.7501614093780518,-8.429984092712402,3.73016619682312,-20.1568603515625,-1.2969970703125,-16.0980224609375
18.249999900000002,-1.6615760326385498,-8.597578048706055,3.7229835987091064,-23.590087890625,-0.701904296875,-16.0369873046875
18.269999900000002,-1.6184803247451782,-8.908824920654297,3.5458126068115234,-21.30126953125,-1.556396484375,-13.9007568359375
18.2899999,-1.5610195398330688,-9.282320022583008,3.220201253890991,-12.3443603515625,-4.791259765625,-13.1072998046875
18.3099999,-1.5203180313110352,-9.641449928283691,2.889801502227783,0.396728515625,-8.4686279296875,-10.8489990234375
18.3299999,-1.4772224426269531,-9.895236015319824,2.6791117191314697,12.26806640625,-10.4827880859375,-8.4686279296875
18.3499999,-1.4221558570861816,-10.031704902648926,2.7054479122161865,21.1639404296875,-10.5438232421875,-6.3629150390625
18.3699999,-1.3527239561080933,-10.02691650390625,2.9496564865112305,26.4129638671875,-9.0789794921875,-4.730224609375
18.3899999,-1.194706678390503,-9.813833236694336,3.4165258407592773,25.6500244140625,-7.38525390625,-4.1046142578125
18.409999900000003,-1.1994950771331787,-9.423578262329102,3.866635799407959,13.458251953125,-4.6539306640625,-4.0740966796875
18.429999900000002,-1.1037269830703735,-9.047688484191895,4.256890773773193,-3.021240234375,0.3662109375,-8.056640625
18.4499999,-1.1779472827911377,-8.789113998413086,4.335899353027344,-12.0849609375,2.593994140625,-6.1492919921875
18.4699999,-1.2425906658172607,-8.746018409729004,4.122815132141113,-12.3291015625,0.06103515625,-6.591796875
18.4899999,-1.3120225667953491,-8.87291145324707,3.754108190536499,-4.119873046875,-4.6234130859375,-2.74658203125
18.5099999,-1.3024457693099976,-9.224859237670898,3.315969467163086,7.720947265625,-8.331298828125,-1.1749267578125
18.5299999,-1.2737152576446533,-9.57201862335205,3.026270866394043,19.8516845703125,-7.843017578125,-10.2691650390625
18.5499999,-1.039083480834961,-9.782708168029785,3.028665065765381,29.6478271484375,-8.392333984375,-6.4697265625
18.5699999,-0.7541735172271729,-9.615114212036133,3.646369218826294,14.6636962890625,-2.6092529296875,2.349853515625
18.589999900000002,-0.7445967197418213,-9.299078941345215,4.137180328369141,-1.6937255859375,-5.218505859375,4.0283203125
18.609999900000002,-0.8595184087753296,-9.05487060546875,4.410119533538818,-15.6097412109375,-0.152587890625,-0.7476806640625
18.6299999,-0.8212111592292786,-8.966285705566406,4.371812343597412,-15.8843994140625,1.2054443359375,-8.4991455078125
18.6499999,-1.0319008827209473,-9.040505409240723,3.9839515686035156,-10.68115234375,1.251220703125,5.279541015625
18.6699999,-1.161187767982483,-9.217676162719727,3.466804027557373,-3.3111572265625,1.068115234375,7.415771484375
18.6899999,-1.2832920551300049,-9.279925346374512,3.2297780513763428,7.4615478515625,-11.04736328125,2.899169921875
18.7099999,-1.37906014919281,-9.239224433898926,3.28963303565979,4.7760009765625,-16.876220703125,0.2593994140625
18.7299999,-1.41257905960083,-9.105149269104004,3.5266590118408203,-9.09423828125,0.1220703125,-4.3182373046875
18.749999900000002,-1.338358759880066,-9.009381294250488,3.773261785507202,-16.6168212890625,7.5836181640625,-0.885009765625
18.769999900000002,-1.235408067703247,-8.908824920654297,3.8570590019226074,-13.824462890625,-5.035400390625,0.4119873046875
18.7899999,-1.2521674633026123,-9.148244857788086,3.73016619682312,-9.002685546875,-3.23486328125,11.3067626953125
18.8099999,-1.173158884048462,-9.346963882446289,3.603273630142212,-2.8839111328125,-8.636474609375,3.8604736328125
18.8299999,-1.0079588890075684,-9.478644371032715,3.4763808250427246,1.220703125,-10.25390625,-1.89208984375
18.8499999,-0.9911994934082031,-9.651026725769043,3.4524388313293457,1.9989013671875,2.4871826171875,11.65771484375
18.8699999,-0.7948749661445618,-9.533711433410645,3.507505416870117,3.23486328125,-0.5340576171875,2.9296875
18.8899999,-0.7637503147125244,-9.224859237670898,3.5865142345428467,5.340576171875,-10.3759765625,4.913330078125
18.909999900000003,-0.9696516990661621,-9.011775016784668,3.6727054119110107,-2.1209716796875,-2.3040771484375,9.1094970703125
18.929999900000002,-0.9720458984375,-8.729259490966797,3.7876269817352295,-4.7760009765625,-5.9051513671875,-15.106201171875
18.9499999,-1.072602391242981,-8.707711219787598,3.8594532012939453,-5.2947998046875,-4.3182373046875,-2.86865234375
18.9699999,-1.2832920551300049,-8.971074104309082,3.711012601852417,-9.8724365234375,10.498046875,6.89697265625
18.9899999,-1.2832920551300049,-9.093177795410156,3.5673606395721436,0.640869140625,-5.9661865234375,0.457763671875
19.0099999,-1.580173134803772,-9.366117477416992,3.3710360527038574,5.096435546875,-16.54052734375,10.3302001953125
19.0299999,-1.6328455209732056,-9.428366661071777,3.3016040325164795,0.030517578125,-4.1961669921875,-3.173828125
19.0499999,-1.4939818382263184,-9.294290542602539,3.4955344200134277,-2.593994140625,-5.4931640625,-4.1351318359375
19.0699999,-1.4748282432556152,-9.23443603515625,3.5865142345428467,-13.885498046875,4.9285888671875,11.3067626953125
19.089999900000002,-1.316810965538025,-9.066842079162598,3.7038300037384033,-15.6097412109375,-2.1820068359375,0.0762939453125
19.109999900000002,-1.2856862545013428,-8.980650901794434,3.687070608139038,-12.51220703125,-14.83154296875,3.6163330078125
19.1299999,-1.403002142906189,-9.181763648986816,3.600879430770874,-15.56396484375,0.42724609375,3.96728515625
19.1499999,-1.139639973640442,-9.133879661560059,3.5865142345428467,-8.6669921875,-3.173828125,-8.3465576171875
19.1699999,-1.137245774269104,-9.215282440185547,3.4835634231567383,-8.3465576171875,-2.3193359375,9.5977783203125
19.1899999,-1.0534487962722778,-9.208099365234375,3.3662476539611816,-13.85498046875,4.6844482421875,3.35693359375
19.2099999,-1.0247182846069336,-9.126696586608887,3.318363666534424,-7.2174072265625,-11.4288330078125,-2.8533935546875
19.2299999,-1.1540051698684692,-9.334992408752441,3.3446998596191406,-2.2735595703125,-6.1187744140625,-0.7171630859375
19.249999900000002,-1.0247182846069336,-9.330204010009766,3.3518824577331543,-3.5552978515625,0.518798828125,-12.5732421875
19.269999900000002,-1.039083480834961,-9.313444137573242,3.4404678344726562,-5.3253173828125,2.1209716796875,2.044677734375
19.2899999,-1.048660397529602,-9.265560150146484,3.3255462646484375,-5.6610107421875,5.18798828125,3.4942626953125
19.3099999,-0.9959878921508789,-9.14345645904541,3.380612850189209,-0.457763671875,-7.0648193359375,-3.8604736328125
19.3299999,-1.1755530834197998,-9.188945770263672,3.3303346633911133,-2.227783203125,-6.561279296875,-4.1046142578125
19.3499999,-1.0295066833496094,-9.248801231384277,3.3662476539611816,-6.8359375,4.0130615234375,-8.5296630859375
19.3699999,-1.1324573755264282,-9.296685218811035,3.354276657104492,-8.0413818359375,5.4168701171875,-1.0833740234375
19.3899999,-1.1085153818130493,-9.354146003723145,3.1459810733795166,-6.65283203125,-1.6326904296875,3.41796875
19.409999900000003,-1.0821791887283325,-9.361329078674316,3.1028854846954346,-6.34765625,-3.0364990234375,1.3275146484375
19.429999900000002,-1.1540051698684692,-9.48343276977539,2.9688100814819336,-6.683349609375,-2.9449462890625,-3.1280517578125
19.4499999,-0.9169792532920837,-9.586383819580078,3.0095114707946777,-3.2501220703125,-6.53076171875,-7.965087890625
19.4699999,-0.9289502501487732,-9.639056205749512,2.9903578758239746,-4.058837890625,5.706787109375,0.7476806640625
19.4899999,-0.8762778043746948,-9.63187313079834,2.9472622871398926,-0.457763671875,0.79345703125,2.0751953125
19.5099999,-0.912190854549408,-9.469067573547363,2.935291290283203,4.150390625,-9.1094970703125,3.5552978515625
19.5299999,-1.1085153818130493,-9.469067573547363,2.9735984802246094,3.5858154296875,-4.0130615234375,-0.823974609375
19.5499999,-0.9457096457481384,-9.294290542602539,3.1316158771514893,6.683349609375,-9.4451904296875,-11.474609375
19.5699999,-1.0295066833496094,-9.296685218811035,3.339911460876465,1.0986328125,4.8675537109375,1.40380859375
19.589999900000002,-0.9816226959228516,-9.153033256530762,3.375824451446533,-7.0037841796875,7.4615478515625,-0.9918212890625
19.609999900000002,-0.8643068075180054,-9.093177795410156,3.40216064453125,-6.6680908203125,-5.6915283203125,-1.28173828125
19.6299999,-1.0247182846069336,-9.188945770263672,3.2417490482330322,-7.110595703125,-0.701904296875,2.2430419921875
19.6499999,-0.8882488012313843,-9.320627212524414,3.1459810733795166,-4.2877197265625,-3.936767578125,-11.6119384765625
19.6699999,-0.9050082564353943,-9.545681953430176,2.9688100814819336,-5.859375,-1.3580322265625,-1.007080078125
19.6899999,-0.9816226959228516,-9.706093788146973,2.8371291160583496,-8.392333984375,7.62939453125,2.7618408203125
19.7099999,-0.8930372595787048,-9.674968719482422,2.7126305103302,2.288818359375,-8.2550048828125,0.1373291015625
19.7299999,-1.0845733880996704,-9.684545516967773,2.7222073078155518,2.960205078125,-9.9334716796875,9.3536376953125
19.749999900000002,-0.9816226959228516,-9.658209800720215,2.8586769104003906,-2.197265625,-3.2501220703125,-6.28662109375
19.769999900000002,-0.8307880163192749,-9.421183586120605,3.1196448802948,-4.4403076171875,-6.072998046875,-7.26318359375
19.7899999,-0.8379706144332886,-9.478644371032715,3.2082302570343018,-14.5111083984375,9.09423828125,8.9569091796875
19.8099999,-0.7613561153411865,-9.30386734008789,3.224989652633667,-11.932373046875,0.6561279296875,-1.068115234375
19.8299999,-0.8930372595787048,-9.32302188873291,3.0142998695373535,-6.7901611328125,-11.8408203125,5.2337646484375
19.8499999,-1.1659762859344482,-9.47146224975586,2.851494312286377,-6.011962890625,-1.2359619140625,-0.1220703125
19.8699999,-1.01753568649292,-9.437943458557129,2.7700912952423096,-1.5106201171875,-7.2021484375,-11.932373046875
