# Time (seconds),Accel_X,Accel_Y,Accel_Z,Gyro_X,Gyro_Y,Gyro_Z
0.0099999,0.9528923034667969,-9.871294021606445,0.6153098344802856,-0.1068115234375,0.8392333984375,1.1749267578125
0.029999900000000003,0.8571242094039917,-9.86889934539795,0.6320692300796509,0.0457763671875,0.8392333984375,0.18310546875
0.0499999,0.7757213711738586,-9.861717224121094,0.6536170840263367,-0.030517578125,0.7171630859375,-1.861572265625
0.0699999,0.7326257228851318,-9.856928825378418,0.6631938815116882,-0.885009765625,0.30517578125,-3.021240234375
0.08999990000000001,0.7709329724311829,-9.856928825378418,0.667982280254364,-0.8544921875,0.3662109375,-2.3651123046875
0.10999990000000001,0.8667010068893433,-9.859322547912598,0.6512228846549988,-0.2593994140625,0.5950927734375,-0.457763671875
0.1299999,0.9816226959228516,-9.86650562286377,0.6224924325942993,0.213623046875,0.8544921875,1.129150390625
0.14999990000000002,1.0103530883789062,-9.86889934539795,0.6129156351089478,0.152587890625,0.8697509765625,2.105712890625
0.1699999,0.9145850539207458,-9.86650562286377,0.6344634294509888,-0.5950927734375,0.48828125,-0.3204345703125
0.1899999,0.8044517636299133,-9.856928825378418,0.6631938815116882,-0.6866455078125,0.3662109375,-2.9296875
0.20999990000000002,0.7493851184844971,-9.856928825378418,0.667982280254364,-0.5645751953125,0.518798828125,-3.0517578125
0.2299999,0.7757213711738586,-9.861717224121094,0.6512228846549988,-0.030517578125,0.732421875,-2.105712890625
0.2499999,0.871489405632019,-9.864110946655273,0.6392518281936646,0.3204345703125,0.885009765625,-0.9307861328125
0.2699999,0.9672574996948242,-9.86889934539795,0.608127236366272,-0.48828125,0.5645751953125,0.885009765625
0.28999990000000003,1.039083480834961,-9.86650562286377,0.6153098344802856,0.18310546875,0.7781982421875,1.8463134765625
0.3099999,1.0438719987869263,-9.864110946655273,0.6224924325942993,0.42724609375,0.9765625,1.861572265625
0.3299999,0.9816226959228516,-9.864110946655273,0.6224924325942993,-0.396728515625,0.6561279296875,1.1444091796875
0.34999990000000003,0.8834604024887085,-9.859322547912598,0.6536170840263367,0.0152587890625,0.6866455078125,-0.67138671875
0.3699999,0.7948749661445618,-9.856928825378418,0.6607996821403503,-0.3814697265625,0.5645751953125,-2.1820068359375
0.3899999,0.7589619159698486,-9.861717224121094,0.6512228846549988,-1.0528564453125,0.2899169921875,-2.3956298828125
0.40999990000000003,0.7972691655158997,-9.859322547912598,0.6607996821403503,-0.1068115234375,0.6103515625,-1.9378662109375
0.4299999,0.8954314589500427,-9.86889934539795,0.629675030708313,-0.18310546875,0.640869140625,-0.5035400390625
0.4499999,1.01753568649292,-9.8784761428833,0.5985504388809204,-0.0152587890625,0.701904296875,1.40380859375
0.4699999,1.091755986213684,-9.8784761428833,0.608127236366272,1.190185546875,1.373291015625,3.448486328125
0.4899999,1.05105459690094,-9.871294021606445,0.6153098344802856,0.0457763671875,1.0528564453125,4.1351318359375
0.5099999,0.9265560507774353,-9.86889934539795,0.5961562395095825,-1.129150390625,-1.0528564453125,0.91552734375
0.5299999,0.7924807667732239,-9.847352027893066,0.6607996821403503,1.5106201171875,-6.1492919921875,-2.410888671875
0.5499999,0.7206547260284424,-9.849745750427246,0.6488286852836609,0.3662109375,-5.5694580078125,-2.410888671875
0.5699999,0.730231523513794,-9.859322547912598,0.6248866319656372,-1.3427734375,-1.3885498046875,-0.0762939453125
0.5899998999999999,0.8212111592292786,-9.864110946655273,0.6488286852836609,1.46484375,-4.94384765625,0.2288818359375
0.6099998999999999,0.8786720037460327,-9.873687744140625,0.5770025849342346,0.701904296875,-9.33837890625,0.8392333984375
0.6299999,0.9193734526634216,-9.8784761428833,0.5506663918495178,0.640869140625,-16.2353515625,1.3580322265625
0.6499999,0.9385270476341248,-9.873687744140625,0.5315127968788147,1.953125,-21.42333984375,2.1514892578125
0.6699999,0.9289502501487732,-9.8784761428833,0.5219359993934631,2.0904541015625,-21.0723876953125,2.1514892578125
0.6899999,0.912190854549408,-9.876082420349121,0.5793967843055725,2.044677734375,-17.5323486328125,0.9918212890625
0.7099999,0.8619126081466675,-9.86889934539795,0.6488286852836609,0.79345703125,-9.2620849609375,0.2899169921875
0.7299998999999999,0.7852981686592102,-9.854534149169922,0.7445967197418213,-0.30517578125,-2.5634765625,-1.4190673828125
0.7499998999999999,0.7134721279144287,-9.84495735168457,0.811634361743927,-0.5340576171875,0.946044921875,-4.5318603515625
0.7699999,0.6871358752250671,-9.835380554199219,0.8451532125473022,-0.762939453125,1.0223388671875,-6.4849853515625
0.7899999,0.8690952062606812,-9.84495735168457,0.7757213711738586,-1.8157958984375,0.091552734375,-5.0201416015625
0.8099999,1.0749965906143188,-9.876082420349121,0.6631938815116882,0.244140625,0.8544921875,2.471923828125
0.8299999,1.2641384601593018,-9.86650562286377,0.6488286852836609,3.326416015625,2.5787353515625,7.568359375
0.8499998999999999,1.2114660739898682,-9.8784761428833,0.586579442024231,-0.54931640625,1.4801025390625,5.950927734375
0.8699998999999999,0.9576807022094727,-9.864110946655273,0.6129156351089478,-1.922607421875,-0.396728515625,-0.5035400390625
0.8899999,0.8188169598579407,-9.823410034179688,0.7469909191131592,1.8157958984375,0.946044921875,-6.16455078125
0.9099999,0.7805097699165344,-9.873687744140625,0.6057330369949341,-2.197265625,-1.8768310546875,-1.0986328125
0.9299999,0.9217676520347595,-9.837775230407715,0.727837324142456,1.953125,-9.674072265625,5.4931640625
0.9499999,0.9864110946655273,-9.873687744140625,0.6512228846549988,1.0223388671875,-6.0882568359375,3.204345703125
0.9699998999999999,0.912190854549408,-9.84495735168457,0.6847416758537292,-0.9002685546875,-1.8768310546875,-2.960205078125
0.9899998999999999,0.8068459630012512,-9.856928825378418,0.6607996821403503,-0.1068115234375,-2.99072265625,-5.0048828125
1.0099999,0.7924807667732239,-9.86650562286377,0.6272808313369751,-0.0762939453125,-1.03759765625,-0.244140625
1.0299999,0.8954314589500427,-9.885659217834473,0.629675030708313,1.1749267578125,1.8157958984375,3.0517578125
1.0499999,0.9720458984375,-9.880870819091797,0.6344634294509888,-1.678466796875,1.3427734375,4.6234130859375
1.0699999,0.9744400978088379,-9.864110946655273,0.6823474764823914,-0.67138671875,2.3956298828125,-1.03759765625
1.0899999,0.8355764150619507,-9.86650562286377,0.5889736413955688,0.79345703125,-4.608154296875,-3.173828125
1.1099999,0.5985504388809204,-9.859322547912598,0.44771572947502136,3.7841796875,-25.5889892578125,-1.0986328125
1.1299999,0.5195417404174805,-9.897629737854004,0.4189853072166443,6.6986083984375,-45.6085205078125,-7.5531005859375
1.1499999,0.3758896589279175,-9.971850395202637,0.40940847992897034,1.3885498046875,-44.4183349609375,-14.0838623046875
1.1699998999999999,0.29209262132644653,-10.127472877502441,0.5674257874488831,3.814697265625,-33.8287353515625,-24.1241455078125
1.1899998999999999,0.1364694982767105,-10.36449909210205,0.6967126727104187,12.451171875,-22.735595703125,-44.281005859375
1.2099999,0.033518824726343155,-10.606313705444336,0.8403648138046265,21.209716796875,-1.03759765625,-70.953369140625
1.2299999,0.12210428714752197,-10.78587818145752,1.1109095811843872,20.8740234375,30.33447265625,-90.9881591796875
1.2499999,0.49559974670410156,-10.922348022460938,1.3646949529647827,1.220703125,49.8504638671875,-93.3380126953125
1.2699999,1.1827356815338135,-10.884040832519531,1.702277421951294,-18.6920166015625,45.0592041015625,-80.9478759765625
1.2899999,1.8052281141281128,-10.805032730102539,1.7597382068634033,-29.8614501953125,28.1982421875,-69.7784423828125
1.3099999,2.387019157409668,-10.66137981414795,1.6041151285171509,-30.8990478515625,9.4146728515625,-69.976806640625
1.3299999,2.779668092727661,-10.474632263183594,1.2761094570159912,-23.8800048828125,-7.4920654296875,-71.9757080078125
1.3499999,3.047818660736084,-10.283096313476562,0.8331822156906128,-16.1895751953125,-14.2974853515625,-66.5435791015625
1.3699999,3.2561142444610596,-10.041281700134277,0.43095630407333374,-10.223388671875,-23.62060546875,-56.0760498046875
1.3899999,3.4620156288146973,-9.780313491821289,0.1604115068912506,-6.9732666015625,-34.088134765625,-47.6226806640625
1.4099999,3.6774938106536865,-9.433155059814453,0.028730420395731926,-6.805419921875,-25.9246826171875,-41.2750244140625
1.4299998999999999,3.8522706031799316,-9.148244857788086,0.019153613597154617,-7.9803466796875,-8.087158203125,-33.8134765625
1.4499999,3.9863457679748535,-8.89685344696045,0.004788403399288654,-7.293701171875,-4.5166015625,-27.89306640625
1.4699999,3.9839515686035156,-8.746018409729004,-0.033518824726343155,-2.960205078125,-12.5274658203125,-27.5115966796875
1.4899999,3.9264907836914062,-8.635885238647461,-0.1412578970193863,2.6702880859375,-13.8397216796875,-33.3404541015625
1.5099999,3.8594532012939453,-8.65743350982666,-0.23702596127986908,8.1024169921875,-8.2550048828125,-37.4908447265625
1.5299999,3.8786067962646484,-8.645462036132812,-0.2825157940387726,10.7574462890625,-3.6773681640625,-36.895751953125
1.5499999,4.000710964202881,-8.724471092224121,-0.24899697303771973,12.786865234375,-1.0986328125,-35.369873046875
1.5699999,4.163516521453857,-8.767566680908203,-0.15322890877723694,15.9149169921875,2.349853515625,-36.3922119140625
1.5899999,4.400542736053467,-8.767566680908203,0.019153613597154617,14.6484375,3.082275390625,-37.628173828125
1.6099999,4.620809078216553,-8.793902397155762,0.24181437492370605,12.26806640625,2.3040771484375,-37.7197265625
1.6299999,4.819528102874756,-8.71489429473877,0.44771572947502136,9.70458984375,1.3580322265625,-37.90283203125
1.6499999,4.975151062011719,-8.69334602355957,0.6272808313369751,6.866455078125,-2.1514892578125,-38.818359375
1.6699999,5.054159641265869,-8.604761123657227,0.7326257228851318,3.936767578125,-4.1656494140625,-40.95458984375
1.6899998999999999,5.094861030578613,-8.528146743774414,0.7661445140838623,1.77001953125,-3.3416748046875,-43.548583984375
1.7099999,5.094861030578613,-8.492233276367188,0.768538773059845,0.3204345703125,-3.11279296875,-46.4630126953125
1.7299999,5.07570743560791,-8.42040729522705,0.7086837291717529,-0.42724609375,-4.058837890625,-51.483154296875
1.7499999,5.049371242523193,-8.398859977722168,0.629675030708313,-1.1444091796875,-8.0718994140625,-57.12890625
1.7699999,5.051765441894531,-8.317456245422363,0.545877993106842,-2.7923583984375,-15.31982421875,-61.09619140625
1.7899999,5.12119722366333,-8.195352554321289,0.4644751250743866,-5.0506591796875,-17.822265625,-64.2547607421875
1.8099999,5.236119270324707,-8.073247909545898,0.4141969084739685,-7.4005126953125,-19.0277099609375,-66.192626953125
1.8299999,5.442020416259766,-7.8960771560668945,0.3878606855869293,-10.43701171875,-16.9525146484375,-65.8111572265625
1.8499999,5.628767967224121,-7.7213006019592285,0.33279404044151306,-13.5955810546875,-14.8162841796875,-63.3697509765625
1.8699999,5.853823184967041,-7.4986395835876465,0.28969839215278625,-16.17431640625,-21.4080810546875,-60.333251953125
1.8899999,6.0836663246154785,-7.240066051483154,0.23702596127986908,-19.04296875,-23.2086181640625,-58.16650390625
1.9099999,6.258443355560303,-6.998251438140869,0.12689268589019775,-22.1405029296875,-14.312744140625,-54.62646484375
1.9299998999999999,6.440402507781982,-6.756437301635742,-0.002394201699644327,-22.5372314453125,-7.537841796875,-49.98779296875
1.9499999,6.588842868804932,-6.62236213684082,-0.17956513166427612,-19.439697265625,-6.591796875,-47.943115234375
1.9699999,6.694188117980957,-6.4834980964660645,-0.3974374830722809,-15.4571533203125,-5.92041015625,-46.234130859375
1.9899999,6.8162922859191895,-6.428431510925293,-0.5770025849342346,-11.871337890625,-6.0577392578125,-41.2445068359375
2.0099999,6.947973251342773,-6.361393928527832,-0.7206547260284424,-7.6446533203125,-9.124755859375,-35.919189453125
2.0299999,7.402871608734131,-6.279991149902344,-0.6823474764823914,-3.7994384765625,-10.0250244140625,-33.538818359375
2.0499999,7.795520782470703,-6.289567947387695,-0.6488286852836609,-2.685546875,0.3509521484375,-35.6597900390625
2.0699999,8.238448143005371,-6.335057735443115,-0.5937620401382446,-3.509521484375,3.41796875,-31.5399169921875
2.0899999,8.394071578979492,-6.440402507781982,-0.6177040338516235,-3.2196044921875,-8.6669921875,-20.965576171875
2.1099999,8.14028549194336,-6.5265936851501465,-0.7781155705451965,-0.823974609375,-11.688232421875,-18.2037353515625
2.1299999,7.7213006019592285,-6.48828649520874,-0.9026140570640564,2.3193359375,-6.9732666015625,-24.47509765625
2.1499999,7.338228225708008,-6.339846134185791,-0.993593692779541,4.638671875,0.9307861328125,-33.3404541015625
2.1699999,7.103596210479736,-6.138733386993408,-0.950498104095459,6.2103271484375,7.720947265625,-38.4979248046875
2.1899999,7.12035608291626,-5.937620162963867,-0.8738836050033569,5.950927734375,10.345458984375,-38.787841796875
2.2099999,7.309497833251953,-5.770026206970215,-0.7350199222564697,5.126953125,12.02392578125,-38.3453369140625
2.2299999,7.553706169128418,-5.614402770996094,-0.6105214357376099,4.974365234375,12.969970703125,-40.3900146484375
2.2499999,7.824251174926758,-5.451597213745117,-0.47165772318840027,5.4168701171875,9.6435546875,-41.44287109375
2.2699999,8.039729118347168,-5.284003257751465,-0.3519476354122162,5.2642822265625,7.5531005859375,-39.459228515625
2.2899999,8.154650688171387,-5.1116204261779785,-0.24420857429504395,5.06591796875,10.7421875,-38.7420654296875
2.3099999,8.195352554321289,-4.917690277099609,-0.1628057211637497,5.4931640625,15.0146484375,-40.496826171875
2.3299999,8.145073890686035,-4.716577529907227,-0.13168109953403473,5.6915283203125,17.3187255859375,-40.313720703125
2.3499999,8.054094314575195,-4.527435302734375,-0.10055647045373917,5.126953125,16.357421875,-36.7584228515625
2.3699999,7.943961143493652,-4.343081951141357,-0.1149216815829277,4.302978515625,14.801025390625,-33.3404541015625
2.3899999,7.860164165496826,-4.220977783203125,-0.08379705995321274,3.7384033203125,15.7012939453125,-28.3050537109375
2.4099999,7.872135162353516,-4.173093795776367,-0.05985504388809204,3.60107421875,17.3187255859375,-19.83642578125
2.4299999,7.9631147384643555,-4.199429988861084,0.004788403399288654,3.570556640625,16.2506103515625,-10.80322265625
2.4499999,8.149862289428711,-4.288015365600586,0.07182604819536209,4.3182373046875,10.3607177734375,-4.69970703125
2.4699999,8.370129585266113,-4.405331134796143,0.1412578970193863,5.767822265625,4.7760009765625,-2.3193359375
2.4899999,8.559270858764648,-4.513070106506348,0.20111294090747833,6.2713623046875,3.0059814453125,-1.068115234375
2.5099999,8.669404029846191,-4.584896087646484,0.2537853717803955,5.9051513671875,4.791259765625,-0.8697509765625
2.5299999,8.681375503540039,-4.6471452713012695,0.27054479718208313,6.3018798828125,9.4146728515625,-3.23486328125
2.5499999,8.65982723236084,-4.668693542480469,0.30885201692581177,8.270263671875,11.6729736328125,-5.859375
2.5699999,8.592789649963379,-4.692635536193848,0.3471592366695404,10.7879638671875,10.986328125,-6.7596435546875
2.5899999,8.547300338745117,-4.67827033996582,0.4141969084739685,12.3443603515625,7.110595703125,-4.8980712890625
2.6099999,8.508993148803711,-4.661510944366455,0.4908113479614258,13.61083984375,2.532958984375,-2.6397705078125
2.6299999,8.492233276367188,-4.608838081359863,0.5889736413955688,14.7552490234375,1.8157958984375,-2.349853515625
2.6499999,8.482656478881836,-4.553771495819092,0.6392518281936646,15.31982421875,4.08935546875,-3.3721923828125
2.6699999,8.504204750061035,-4.474762916564941,0.6943184733390808,14.9078369140625,3.7384033203125,-3.4637451171875
2.6899999,8.537723541259766,-4.405331134796143,0.6991068720817566,13.214111328125,0.6866455078125,-1.8310546875
2.7099999,8.597578048706055,-4.352658748626709,0.6991068720817566,10.406494140625,-2.7313232421875,0.3204345703125
2.7299999,8.635885238647461,-4.304774761199951,0.6799532771110535,6.4697265625,-3.204345703125,0.6561279296875
2.7499999,8.662221908569336,-4.268861770629883,0.646434485912323,1.7852783203125,-0.8087158203125,-0.6866455078125
2.7699999,8.671798706054688,-4.240131378173828,0.6057330369949341,-2.899169921875,2.3956298828125,-2.166748046875
2.7899999,8.650250434875488,-4.230554580688477,0.5363011956214905,-6.6375732421875,5.2947998046875,-3.4637451171875
2.8099999,8.640673637390137,-4.23773717880249,0.4692635238170624,-9.2010498046875,7.7056884765625,-5.0506591796875
2.8299999,8.635885238647461,-4.273650169372559,0.4118026793003082,-11.3677978515625,10.528564453125,-7.110595703125
2.8499999,8.643068313598633,-4.323928356170654,0.36152446269989014,-13.427734375,12.4053955078125,-8.575439453125
2.8699999,8.678980827331543,-4.364629745483398,0.3519476354122162,-14.251708984375,14.129638671875,-8.4991455078125
2.8899999,8.695740699768066,-4.400542736053467,0.33997663855552673,-13.7939453125,17.8375244140625,-8.392333984375
2.9099999,8.695740699768066,-4.4077253341674805,0.3447650372982025,-12.3748779296875,19.83642578125,-8.453369140625
2.9299999,8.683769226074219,-4.383783340454102,0.3687070608139038,-10.80322265625,17.8375244140625,-8.331298828125
2.9499999,8.655038833618164,-4.3622355461120605,0.4118026793003082,-9.2315673828125,14.892578125,-7.7362060546875
2.9699999,8.640673637390137,-4.2951979637146,0.4812345504760742,-7.4615478515625,14.434814453125,-5.9967041015625
2.9899999,8.650250434875488,-4.266467571258545,0.5626373887062073,-5.4931640625,15.3656005859375,-3.9825439453125
3.0099999,8.662221908569336,-4.223371982574463,0.6512228846549988,-3.8604736328125,14.9078369140625,-2.1820068359375
3.0299999,8.681375503540039,-4.182670593261719,0.7398083209991455,-2.62451171875,13.5345458984375,-0.7171630859375
3.0499999,8.688557624816895,-4.180276393890381,0.8403648138046265,-1.89208984375,14.312744140625,0.1068115234375
3.0699999,8.698134422302246,-4.170699596405029,0.9409212470054626,-1.556396484375,16.54052734375,0.18310546875
3.0899999,8.69095230102539,-4.199429988861084,1.0534487962722778,-1.46484375,16.998291015625,-0.0457763671875
3.1099999,8.686163902282715,-4.220977783203125,1.1516109704971313,-1.3580322265625,15.8233642578125,0.030517578125
3.1299999,8.65982723236084,-4.244919776916504,1.2234370708465576,-0.79345703125,14.7552490234375,0.274658203125
3.1499999,8.609549522399902,-4.261679172515869,1.2713210582733154,0.30517578125,13.8702392578125,0.0152587890625
3.1699999,8.564059257507324,-4.242525577545166,1.3096283674240112,1.739501953125,11.41357421875,-0.1983642578125
3.1899999,8.518569946289062,-4.23773717880249,1.3335703611373901,2.8228759765625,7.5531005859375,0.1983642578125
3.2099999,8.501810073852539,-4.20421838760376,1.3742717504501343,2.9754638671875,6.3018798828125,1.0223388671875
3.2299999,8.487444877624512,-4.194641590118408,1.4101848602294922,2.3040771484375,6.4544677734375,1.9989013671875
3.2499999,8.487444877624512,-4.165910720825195,1.4484920501708984,1.1444091796875,5.7220458984375,2.2125244140625
3.2699999,8.489839553833008,-4.151545524597168,1.5083470344543457,-0.946044921875,1.434326171875,2.899169921875
3.2899999,8.51138687133789,-4.1180267333984375,1.558625340461731,-5.7830810546875,-0.0152587890625,4.4097900390625
3.3099999,8.520963668823242,-4.113238334655762,1.6065093278884888,-11.6424560546875,2.7313232421875,5.767822265625
3.3299999000000002,8.547300338745117,-4.110844135284424,1.6041151285171509,-15.0299072265625,4.8980712890625,5.584716796875
3.3499999,8.542511940002441,-4.177882194519043,1.558625340461731,-16.632080078125,6.1492919921875,3.875732421875
3.3699999,8.549694061279297,-4.230554580688477,1.4652514457702637,-17.5323486328125,9.5977783203125,2.8533935546875
3.3899999,8.552088737487793,-4.343081951141357,1.3527239561080933,-16.41845703125,11.2457275390625,2.532958984375
3.4099999,8.542511940002441,-4.458003520965576,1.2186486721038818,-13.18359375,8.758544921875,2.349853515625
3.4299999,8.542511940002441,-4.558559894561768,1.115697979927063,-8.7890625,3.1890869140625,1.5716552734375
3.4499999,8.564059257507324,-4.608838081359863,1.0582371950149536,-4.6844482421875,0.79345703125,1.0528564453125
3.4699999,8.56884765625,-4.656722068786621,1.036689281463623,-1.4495849609375,3.936767578125,0.8087158203125
3.4899999,8.609549522399902,-4.596867084503174,1.0797849893569946,1.3580322265625,6.988525390625,1.2969970703125
3.5099999,8.59997272491455,-4.577713489532471,1.1180921792984009,3.662109375,5.4168701171875,2.2125244140625
3.5299999,8.56884765625,-4.525041103363037,1.194706678390503,4.7607421875,0.9918212890625,3.0364990234375
3.5499999,8.518569946289062,-4.522646903991699,1.2282254695892334,3.8299560546875,0.5645751953125,4.119873046875
3.5699999,8.465897560119629,-4.484339714050293,1.3335703611373901,1.1138916015625,3.2806396484375,5.4473876953125
3.5899999,8.389283180236816,-4.534617900848389,1.3407529592514038,-2.349853515625,3.9825439453125,5.9967041015625
3.6099999,8.31985092163086,-4.522646903991699,1.4221558570861816,-6.0577392578125,1.373291015625,5.157470703125
3.6299999,8.212111473083496,-4.570530891418457,1.37906014919281,-9.4451904296875,-1.9683837890625,3.082275390625
3.6499999,8.130708694458008,-4.599261283874512,1.3670891523361206,-11.6729736328125,-3.84521484375,-0.6103515625
3.6699999,8.099584579467773,-4.642356872558594,1.2976573705673218,-11.9476318359375,-2.6702880859375,-6.7901611328125
3.6899999,8.305485725402832,-4.809951305389404,1.1252747774124146,-8.5601806640625,2.8076171875,-15.472412109375
3.7099999,8.497021675109863,-4.879383087158203,1.0630255937576294,-6.5460205078125,1.77001953125,-13.916015625
3.7299999,8.69095230102539,-4.920084476470947,1.0438719987869263,-4.364013671875,0.4425048828125,-11.3677978515625
3.7499999,8.798690795898438,-4.908113479614258,1.0414776802062988,-2.1514892578125,2.5787353515625,-9.7503662109375
3.7699999,8.856152534484863,-4.807557106018066,1.0678139925003052,0.152587890625,4.638671875,-8.270263671875
3.7899999,8.808267593383789,-4.742913722991943,1.0558429956436157,2.6397705078125,4.4403076171875,-7.171630859375
3.8099999,8.7484130859375,-4.608838081359863,1.0749965906143188,4.7454833984375,4.150390625,-6.53076171875
3.8299999000000002,8.650250434875488,-4.484339714050293,1.1109095811843872,6.2103271484375,4.1351318359375,-5.1116943359375
3.8499999,8.56645393371582,-4.376600742340088,1.161187767982483,7.1868896484375,1.9073486328125,-2.99072265625
3.8699999,8.520963668823242,-4.2329487800598145,1.2665326595306396,7.476806640625,-1.15966796875,-1.7852783203125
3.8899999,8.501810073852539,-4.129997730255127,1.3551181554794312,6.805419921875,-1.2969970703125,-2.044677734375
3.9099999,8.528146743774414,-4.039018154144287,1.4484920501708984,5.035400390625,-0.67138671875,-1.5411376953125
3.9299999,8.5903959274292,-3.9695863723754883,1.534683346748352,1.861572265625,-3.5247802734375,0.8544921875
3.9499999,8.664615631103516,-3.9384617805480957,1.5753847360610962,-2.0751953125,-3.35693359375,2.685546875
3.9699999,8.738836288452148,-3.928884983062744,1.5825673341751099,-5.828857421875,0.0152587890625,2.99072265625
3.9899999,8.765172004699707,-3.971980571746826,1.5538369417190552,-8.8043212890625,1.8310546875,3.6468505859375
4.0099999,8.75080680847168,-4.027047157287598,1.4508862495422363,-10.040283203125,-1.7852783203125,4.21142578125
4.029999900000001,8.676587104797363,-4.108449935913086,1.37906014919281,-9.6282958984375,-5.5389404296875,3.662109375
4.0499999,8.5903959274292,-4.211400985717773,1.2449848651885986,-8.23974609375,-4.5166015625,0.396728515625
4.069999900000001,8.513781547546387,-4.273650169372559,1.1420341730117798,-6.256103515625,0.5340576171875,-3.9215087890625
4.0899999000000005,8.487444877624512,-4.335899353027344,1.0534487962722778,-3.570556640625,3.2958984375,-5.645751953125
4.1099999,8.49941635131836,-4.371812343597412,0.9648633003234863,-0.7781982421875,3.173828125,-5.0811767578125
4.1299999000000005,8.554482460021973,-4.381389141082764,0.9576807022094727,1.6937255859375,3.143310546875,-4.7454833984375
4.1499999,8.62391471862793,-4.41969633102417,0.9888052940368652,1.129150390625,4.852294921875,-4.364013671875
4.1699999000000005,8.650250434875488,-4.402936935424805,1.0438719987869263,-0.48828125,5.5084228515625,-3.5400390625
4.1899999,8.645462036132812,-4.410119533538818,1.094150185585022,0.6561279296875,1.9378662109375,-2.8839111328125
4.209999900000001,8.604761123657227,-4.3861775398254395,1.1300631761550903,2.44140625,0.030517578125,-3.7689208984375
4.2299999,8.56645393371582,-4.314351558685303,1.1300631761550903,3.3111572265625,0.9002685546875,-4.241943359375
4.249999900000001,8.53293514251709,-4.311957359313965,1.137245774269104,3.082275390625,-0.8392333984375,-2.4871826171875
4.2699999,8.583212852478027,-4.206612586975098,1.1755530834197998,1.40380859375,-3.021240234375,-0.1983642578125
4.289999900000001,8.611943244934082,-4.180276393890381,1.2090718746185303,-1.3427734375,0.1068115234375,-0.6256103515625
4.3099999,8.681375503540039,-4.10366153717041,1.2449848651885986,-3.9215087890625,5.706787109375,-2.1820068359375
4.329999900000001,8.722076416015625,-4.120420932769775,1.290474772453308,-5.615234375,5.950927734375,-2.532958984375
4.3499999,8.719682693481445,-4.113238334655762,1.2665326595306396,-6.195068359375,1.2054443359375,-2.3651123046875
4.369999900000001,8.719682693481445,-4.170699596405029,1.2617442607879639,-6.011962890625,-2.74658203125,-3.2501220703125
4.3899999,8.674192428588867,-4.197035789489746,1.2425906658172607,-5.37109375,-0.274658203125,-5.706787109375
4.409999900000001,8.645462036132812,-4.223371982574463,1.1875240802764893,-4.7149658203125,2.8076171875,-8.270263671875
4.4299999,8.62391471862793,-4.24970817565918,1.1971008777618408,-3.9520263671875,3.3721923828125,-8.9874267578125
4.449999900000001,8.578424453735352,-4.268861770629883,1.1348515748977661,-3.11279296875,2.4566650390625,-8.7738037109375
4.4699999,8.573636054992676,-4.285621166229248,1.1300631761550903,-1.8310546875,0.244140625,-8.3160400390625
4.489999900000001,8.56645393371582,-4.304774761199951,1.1061211824417114,-0.30517578125,-1.678466796875,-7.9498291015625
4.5099999,8.609549522399902,-4.256890773773193,1.1085153818130493,1.0833740234375,-1.5716552734375,-6.53076171875
4.529999900000001,8.671798706054688,-4.2760443687438965,1.113303780555725,2.13623046875,-2.471923828125,-4.730224609375
4.5499999,8.71489429473877,-4.213795185089111,1.115697979927063,2.6397705078125,-0.8544921875,-3.936767578125
4.569999900000001,8.753201484680176,-4.1611223220825195,1.1276689767837524,2.8533935546875,0.1068115234375,-3.997802734375
4.5899999000000005,8.743624687194824,-4.122815132141113,1.139639973640442,3.0670166015625,-2.899169921875,-4.1961669921875
4.609999900000001,8.760383605957031,-4.0078935623168945,1.1420341730117798,2.227783203125,-3.8604736328125,-4.4097900390625
4.6299999000000005,8.78193187713623,-3.9624037742614746,1.1755530834197998,0.244140625,-1.5869140625,-3.570556640625
4.6499999,8.798690795898438,-3.8977603912353516,1.1635819673538208,-2.2125244140625,-1.1444091796875,-2.4566650390625
4.6699999000000005,8.83699893951416,-3.8283286094665527,1.1779472827911377,-4.1656494140625,-1.5869140625,-2.3040771484375
4.6899999,8.832210540771484,-3.818751811981201,1.1659762859344482,-5.4931640625,-1.1749267578125,-3.387451171875
4.709999900000001,8.825027465820312,-3.7636849880218506,1.139639973640442,-6.0272216796875,2.25830078125,-5.8441162109375
4.7299999,8.83699893951416,-3.773261785507202,1.1180921792984009,-6.04248046875,4.241943359375,-7.3089599609375
4.749999900000001,8.827422142028809,-3.780444383621216,1.0797849893569946,-5.5694580078125,4.45556640625,-7.232666015625
4.7699999,8.860940933227539,-3.773261785507202,1.048660397529602,-4.8065185546875,5.1727294921875,-6.378173828125
4.789999900000001,8.851364135742188,-3.818751811981201,1.0271124839782715,-3.570556640625,4.3792724609375,-4.8370361328125
4.8099999,8.832210540771484,-3.8091750144958496,1.0055646896362305,-2.25830078125,1.373291015625,-3.0364990234375
4.829999900000001,8.834604263305664,-3.797203779220581,1.01753568649292,-1.251220703125,0.4119873046875,-1.8768310546875
4.8499999,8.777143478393555,-3.823540210723877,1.0103530883789062,-0.0152587890625,0.6561279296875,-1.2969970703125
4.869999900000001,8.78432559967041,-3.7636849880218506,1.0199298858642578,1.1749267578125,-1.03759765625,-0.335693359375
4.8899999,8.78432559967041,-3.7924153804779053,1.0438719987869263,1.556396484375,-3.7841796875,0.7781982421875
4.909999900000001,8.779537200927734,-3.751713991165161,1.0582371950149536,0.9613037109375,-3.631591796875,1.2359619140625
4.9299999,8.815450668334961,-3.754108190536499,1.0869675874710083,-0.6103515625,-2.6092529296875,1.4801025390625
4.949999900000001,8.83939266204834,-3.754108190536499,1.139639973640442,-2.44140625,-1.922607421875,1.8310546875
4.9699999,8.844181060791016,-3.7205893993377686,1.1563993692398071,-3.8299560546875,-1.0986328125,1.77001953125
4.989999900000001,8.87051773071289,-3.7229835987091064,1.1875240802764893,-4.364013671875,0.457763671875,0.9307861328125
5.0099999,8.844181060791016,-3.7038300037384033,1.192312479019165,-4.2877197265625,3.0059814453125,-0.091552734375
5.029999900000001,8.825027465820312,-3.6966474056243896,1.1516109704971313,-3.8299560546875,1.7242431640625,-0.335693359375
5.0499999,8.827422142028809,-3.732560396194458,1.1444283723831177,-3.5247802734375,-2.7923583984375,0.6103515625
5.069999900000001,8.80587387084961,-3.799597978591919,1.1013327836990356,-3.41796875,-5.1116943359375,1.7242431640625
5.0899999000000005,8.832210540771484,-3.8379054069519043,1.0821791887283325,-2.899169921875,-4.8065185546875,2.62451171875
5.109999900000001,8.825027465820312,-3.914519786834717,1.0797849893569946,-2.38037109375,-5.615234375,2.838134765625
5.1299999000000005,8.793902397155762,-3.9264907836914062,1.0414776802062988,-2.3651123046875,-5.645751953125,1.64794921875
5.1499999,8.78193187713623,-3.9193081855773926,1.0438719987869263,-2.5634765625,-3.1890869140625,0.1983642578125
5.1699999000000005,8.736441612243652,-3.9624037742614746,1.0031704902648926,-2.471923828125,-1.708984375,0.0457763671875
5.1899999,8.734047889709473,-3.9671921730041504,0.9481038451194763,-2.1820068359375,-2.227783203125,0.7171630859375
5.209999900000001,8.762778282165527,-4.055777549743652,0.8978256583213806,-1.2054443359375,-4.1351318359375,1.953125
5.2299999,8.746018409729004,-4.120420932769775,0.7805097699165344,0.0762939453125,-5.2337646484375,2.960205078125
5.249999900000001,8.796297073364258,-4.141968727111816,0.727837324142456,1.40380859375,-4.69970703125,3.2196044921875
5.2699999,8.798690795898438,-4.2090067863464355,0.6703764796257019,2.044677734375,-4.364013671875,3.0975341796875
5.289999900000001,8.822632789611816,-4.175487995147705,0.6584054827690125,1.8310546875,-5.218505859375,3.96728515625
5.3099999,8.83939266204834,-4.177882194519043,0.6799532771110535,1.52587890625,-3.814697265625,4.33349609375
5.329999900000001,8.834604263305664,-4.153939723968506,0.7158663272857666,1.64794921875,-0.5645751953125,2.777099609375
5.3499999,8.813055992126465,-4.094084739685059,0.7493851184844971,1.8157958984375,0.4730224609375,0.91552734375
5.369999900000001,8.815450668334961,-4.055777549743652,0.811634361743927,1.312255859375,1.6326904296875,-0.6866455078125
5.3899999,8.777143478393555,-3.998316764831543,0.849941611289978,0.5340576171875,4.1351318359375,-2.25830078125
5.409999900000001,8.801085472106934,-3.9193081855773926,0.9241618514060974,0,5.5084228515625,-3.173828125
5.4299999,8.789113998413086,-3.9025487899780273,0.9840168952941895,-0.5950927734375,6.7901611328125,-3.570556640625
5.449999900000001,8.803479194641113,-3.797203779220581,1.036689281463623,-1.2054443359375,8.9263916015625,-3.631591796875
5.4699999,8.815450668334961,-3.7493197917938232,1.1013327836990356,-1.6632080078125,8.9111328125,-2.7313232421875
5.489999900000001,8.803479194641113,-3.663128614425659,1.115697979927063,-1.678466796875,6.3629150390625,-1.0528564453125
5.5099999,8.769960403442383,-3.533841609954834,1.1300631761550903,-1.4495849609375,2.7618408203125,-0.1068115234375
5.529999900000001,8.755595207214355,-3.464409828186035,1.1420341730117798,-1.861572265625,-0.3662109375,0.8392333984375
5.5499999,8.71489429473877,-3.378218650817871,1.1180921792984009,-3.387451171875,-1.8310546875,2.5482177734375
5.569999900000001,8.743624687194824,-3.332728862762451,1.1061211824417114,-5.5694580078125,-2.1514892578125,5.218505859375
5.5899999000000005,8.757989883422852,-3.3854012489318848,1.0582371950149536,-8.2550048828125,-1.708984375,7.75146484375
5.609999900000001,8.796297073364258,-3.423708438873291,0.9840168952941895,-10.6048583984375,-2.74658203125,9.918212890625
5.6299999000000005,8.841787338256836,-3.56017804145813,0.9050082564353943,-13.1683349609375,-8.148193359375,12.9547119140625
5.6499999,8.827422142028809,-3.6942532062530518,0.8092401623725891,-16.4031982421875,-11.4288330078125,16.0064697265625
5.6699999000000005,8.844181060791016,-3.8115692138671875,0.7158663272857666,-19.2413330078125,-7.75146484375,16.3116455078125
5.6899999,8.810662269592285,-3.9671921730041504,0.6440402865409851,-20.538330078125,-0.91552734375,14.0228271484375
5.709999900000001,8.762778282165527,-4.101267337799072,0.5386953949928284,-20.3094482421875,1.8157958984375,11.5814208984375
5.7299999,8.753201484680176,-4.23773717880249,0.4836287498474121,-19.22607421875,1.77001953125,9.7198486328125
5.749999900000001,8.71489429473877,-4.400542736053467,0.4118026793003082,-17.2119140625,3.5400390625,8.3465576171875
5.7699999,8.722076416015625,-4.505887508392334,0.3734954595565796,-14.6636962890625,5.79833984375,7.110595703125
5.789999900000001,8.734047889709473,-4.623203277587891,0.363918662071228,-11.7340087890625,6.683349609375,5.9356689453125
5.8099999,8.71489429473877,-4.707000732421875,0.3471592366695404,-8.97216796875,6.53076171875,5.7830810546875
5.829999900000001,8.702922821044922,-4.7405195236206055,0.3256114423274994,-6.40869140625,6.8817138671875,6.622314453125
5.8499999,8.652645111083984,-4.795586109161377,0.33758243918418884,-3.4637451171875,8.2550048828125,7.32421875
5.869999900000001,8.564059257507324,-4.776432514190674,0.304063618183136,-0.274658203125,7.6904296875,7.598876953125
5.8899999,8.508993148803711,-4.728548526763916,0.33039984107017517,2.38037109375,3.72314453125,8.48388671875
5.909999900000001,8.44195556640625,-4.714183330535889,0.3687070608139038,3.1585693359375,0,9.4757080078125
5.9299999,8.432378768920898,-4.630385875701904,0.40940847992897034,2.1209716796875,0.762939453125,10.6048583984375
5.949999900000001,8.461109161376953,-4.599261283874512,0.49559974670410156,0.3204345703125,2.5634765625,12.1612548828125
5.9699999,8.485051155090332,-4.5825018882751465,0.5554547905921936,-1.8768310546875,2.5787353515625,13.214111328125
5.989999900000001,8.528146743774414,-4.54419469833374,0.6200982332229614,-4.8065185546875,1.3427734375,13.2904052734375
6.0099999,8.552088737487793,-4.584896087646484,0.6919242739677429,-7.50732421875,2.838134765625,12.1612548828125
6.029999900000001,8.554482460021973,-4.577713489532471,0.7254431247711182,-9.09423828125,4.913330078125,10.3912353515625
6.0499999,8.56884765625,-4.606443881988525,0.7709329724311829,-9.735107421875,7.1868896484375,8.6517333984375
6.069999900000001,8.530540466308594,-4.663905143737793,0.7709329724311829,-9.4757080078125,11.0321044921875,6.805419921875
6.0899999000000005,8.497021675109863,-4.6471452713012695,0.7493851184844971,-7.8582763671875,14.373779296875,5.584716796875
6.109999900000001,8.456320762634277,-4.699818134307861,0.7445967197418213,-5.5084228515625,13.6871337890625,6.4697265625
6.1299999000000005,8.38688850402832,-4.726154327392578,0.7086837291717529,-3.41796875,9.6893310546875,9.002685546875
6.149999900000001,8.346187591552734,-4.716577529907227,0.6991068720817566,-1.861572265625,5.18798828125,11.962890625
6.1699999000000005,8.312667846679688,-4.754884719848633,0.730231523513794,-1.3885498046875,4.3487548828125,14.4500732421875
6.1899999,8.24084186553955,-4.757278919219971,0.7182605266571045,-1.678466796875,5.31005859375,16.29638671875
6.209999900000001,8.221688270568848,-4.752490520477295,0.7469909191131592,-1.4190673828125,4.7607421875,17.822265625
6.2299999,8.183381080627441,-4.802768707275391,0.7757213711738586,-1.28173828125,2.0904541015625,19.6533203125
6.249999900000001,8.142680168151855,-4.843470096588135,0.7733271718025208,-2.777099609375,0.3204345703125,21.728515625
6.2699999,8.145073890686035,-4.9368438720703125,0.8140285611152649,-5.096435546875,0.6256103515625,22.705078125
6.289999900000001,8.1139497756958,-5.078101634979248,0.8523358106613159,-6.988525390625,2.3345947265625,22.2015380859375
6.3099999,8.099584579467773,-5.171475887298584,0.8379706144332886,-8.270263671875,2.74658203125,21.4691162109375
6.329999900000001,8.078036308288574,-5.343858242034912,0.8595184087753296,-8.8958740234375,2.471923828125,20.294189453125
6.3499999,8.042123794555664,-5.4444146156311035,0.8355764150619507,-9.1705322265625,2.5787353515625,18.61572265625
6.369999900000001,8.034940719604492,-5.530605792999268,0.8212111592292786,-9.3536376953125,4.5166015625,17.1661376953125
6.3899999,7.999027729034424,-5.674258232116699,0.8164227604866028,-8.97216796875,6.6070556640625,15.31982421875
6.409999900000001,7.979874134063721,-5.688623428344727,0.7972691655158997,-7.6751708984375,7.2021484375,14.2059326171875
6.4299999,7.951143741607666,-5.762843608856201,0.7709329724311829,-6.0577392578125,7.26318359375,13.85498046875
6.449999900000001,7.903259754180908,-5.808333396911621,0.7757213711738586,-4.4708251953125,7.171630859375,14.0838623046875
6.4699999,7.843404769897461,-5.825092792510986,0.727837324142456,-2.960205078125,5.645751953125,14.70947265625
6.489999900000001,7.7763671875,-5.872976779937744,0.7565677165985107,-1.4495849609375,4.608154296875,15.350341796875
6.5099999,7.63989782333374,-5.918466567993164,0.7350199222564697,-0.4730224609375,3.5858154296875,15.899658203125
6.529999900000001,7.55131196975708,-5.906495571136475,0.7398083209991455,0.4119873046875,2.1820068359375,16.387939453125
6.5499999,7.465120792388916,-5.9519853591918945,0.7589619159698486,0.9765625,0.9002685546875,17.1966552734375
6.569999900000001,7.417236804962158,-5.963956356048584,0.7637503147125244,0.4425048828125,-0.152587890625,18.9666748046875
6.5899999000000005,7.46033239364624,-5.978321552276611,0.8092401623725891,-1.2969970703125,-1.52587890625,20.7366943359375
6.609999900000001,7.484274387359619,-6.0836663246154785,0.8475474119186401,-3.509521484375,-1.495361328125,20.8282470703125
6.6299999000000005,7.50582218170166,-6.141127586364746,0.8523358106613159,-5.3253173828125,-0.5950927734375,18.768310546875
6.649999900000001,7.513004779815674,-6.27280855178833,0.8523358106613159,-6.622314453125,0.9002685546875,15.655517578125
6.6699999000000005,7.4770917892456055,-6.3973069190979,0.8259995579719543,-7.6904296875,2.1514892578125,12.481689453125
6.6899999,7.4555439949035645,-6.461950302124023,0.7805097699165344,-8.2244873046875,3.2501220703125,10.284423828125
6.709999900000001,7.445967197418213,-6.57926607131958,0.7637503147125244,-8.2244873046875,3.7841796875,8.7890625
6.7299999,7.417236804962158,-6.6391215324401855,0.7230489253997803,-7.6904296875,4.7149658203125,7.6904296875
6.749999900000001,7.398083209991455,-6.696582317352295,0.6823474764823914,-6.805419921875,4.608154296875,6.4697265625
6.7699999,7.357381820678711,-6.761225700378418,0.667982280254364,-5.279541015625,4.9285888671875,5.157470703125
6.789999900000001,7.309497833251953,-6.720524311065674,0.6440402865409851,-3.0059814453125,5.1116943359375,4.3487548828125
6.8099999,7.283161640167236,-6.691793918609619,0.6488286852836609,-0.5035400390625,4.57763671875,4.33349609375
6.829999900000001,7.237671852111816,-6.643909931182861,0.6775590777397156,1.5106201171875,3.082275390625,4.9285888671875
6.8499999,7.225700855255127,-6.54574728012085,0.6919242739677429,2.2125244140625,2.044677734375,6.4849853515625
6.869999900000001,7.220912456512451,-6.490680694580078,0.7589619159698486,2.2735595703125,1.678466796875,7.7362060546875
6.8899999,7.201758861541748,-6.421248912811279,0.8068459630012512,2.0751953125,1.3580322265625,8.056640625
6.909999900000001,7.216124057769775,-6.354211330413818,0.8427590131759644,1.46484375,0.5645751953125,7.843017578125
6.9299999,7.230489253997803,-6.366182327270508,0.9002198576927185,0.4730224609375,0.7171630859375,7.8277587890625
6.949999900000001,7.2352776527404785,-6.344634532928467,0.9026140570640564,-1.2359619140625,0.762939453125,8.331298828125
6.9699999,7.252037048339844,-6.380547523498535,0.9193734526634216,-3.082275390625,0.213623046875,8.575439453125
6.989999900000001,7.216124057769775,-6.445190906524658,0.9361328482627869,-4.608154296875,-0.30517578125,7.598876953125
7.0099999,7.177816867828369,-6.5050458908081055,0.8954314589500427,-5.37109375,0.42724609375,6.378173828125
7.029999900000001,7.146692276000977,-6.593631267547607,0.8906430602073669,-5.157470703125,1.5411376953125,5.401611328125
7.0499999,7.096413612365723,-6.7277069091796875,0.8355764150619507,-3.4942626953125,1.434326171875,6.04248046875
7.069999900000001,7.096413612365723,-6.782773494720459,0.8068459630012512,-1.03759765625,-1.1749267578125,7.8277587890625
7.0899999000000005,7.046135425567627,-6.936002254486084,0.7996633648872375,1.3427734375,-3.5858154296875,9.2010498046875
7.109999900000001,7.000645637512207,-6.993463039398193,0.8068459630012512,3.936767578125,-5.3558349609375,9.368896484375
7.1299999000000005,6.919242858886719,-7.091625213623047,0.8044517636299133,7.1258544921875,-6.4697265625,8.2550048828125
7.149999900000001,6.84981107711792,-7.1706342697143555,0.8523358106613159,10.3912353515625,-8.636474609375,5.950927734375
7.1699999000000005,6.768408298492432,-7.19936466217041,0.8595184087753296,12.1917724609375,-10.162353515625,3.6468505859375
7.1899999,6.756437301635742,-7.266402244567871,0.8834604024887085,12.51220703125,-10.9100341796875,2.532958984375
7.209999900000001,6.75883150100708,-7.3238630294799805,0.9050082564353943,12.2528076171875,-12.02392578125,2.2430419921875
7.2299999,6.777985095977783,-7.3669586181640625,0.8571242094039917,12.969970703125,-12.6953125,-0.4425048828125
7.249999900000001,6.801927089691162,-7.493851184844971,0.790086567401886,15.0146484375,-14.3280029296875,-4.852294921875
7.2699999,6.821080684661865,-7.592013359069824,0.667982280254364,17.8375244140625,-17.27294921875,-7.843017578125
7.289999900000001,6.871358871459961,-7.673416614532471,0.5554547905921936,20.0347900390625,-18.24951171875,-8.97216796875
7.3099999,6.947973251342773,-7.771578788757324,0.47644615173339844,20.81298828125,-14.8773193359375,-11.810302734375
7.329999900000001,6.993463039398193,-7.793126583099365,0.4189853072166443,20.7977294921875,-10.7574462890625,-15.7012939453125
7.3499999,7.062894821166992,-7.807491779327393,0.40222588181495667,20.8740234375,-10.2996826171875,-18.280029296875
7.369999900000001,7.062894821166992,-7.740454196929932,0.33758243918418884,22.52197265625,-13.6871337890625,-22.4609375
7.3899999,7.041347026824951,-7.659051418304443,0.30885201692581177,24.169921875,-10.406494140625,-26.4434814453125
7.409999900000001,6.995857238769531,-7.513004779815674,0.2513911724090576,25.8026123046875,-10.6048583984375,-29.6478271484375
7.4299999,6.976703643798828,-7.3238630294799805,0.21308395266532898,27.3895263671875,-11.4593505859375,-33.1268310546875
7.449999900000001,6.981492042541504,-7.141903877258301,0.20111294090747833,28.411865234375,-8.4228515625,-37.29248046875
7.4699999,7.015010833740234,-6.88332986831665,0.22026655077934265,28.3660888671875,-3.7689208984375,-41.3360595703125
7.489999900000001,7.122750282287598,-6.63433313369751,0.272938996553421,27.191162109375,-0.213623046875,-44.5098876953125
7.5099999,7.237671852111816,-6.327875137329102,0.40701428055763245,25.2532958984375,3.1890869140625,-46.5545654296875
7.529999900000001,7.38132381439209,-5.942408561706543,0.5434837937355042,22.8424072265625,4.5166015625,-47.821044921875
7.5499999,7.558494567871094,-5.571307182312012,0.7469909191131592,19.95849609375,4.638671875,-48.4619140625
7.569999900000001,7.69735860824585,-5.152322292327881,0.9720458984375,16.448974609375,4.6234130859375,-48.065185546875
7.5899999000000005,7.833827972412109,-4.699818134307861,1.1779472827911377,12.054443359375,5.1727294921875,-46.722412109375
7.609999900000001,7.953537940979004,-4.352658748626709,1.400607943534851,6.500244140625,5.462646484375,-44.6319580078125
7.6299999000000005,8.030152320861816,-3.97916316986084,1.5682021379470825,0.518798828125,8.2550048828125,-42.29736328125
7.649999900000001,8.212111473083496,-3.5865142345428467,1.7501614093780518,-5.2947998046875,9.3536376953125,-38.6810302734375
7.6699999000000005,8.403648376464844,-3.318363666534424,1.9129672050476074,-10.2386474609375,8.4381103515625,-33.416748046875
7.6899999,8.607154846191406,-3.00711727142334,2.0422539710998535,-14.5111083984375,5.5999755859375,-26.55029296875
7.709999900000001,8.827422142028809,-2.7724854946136475,2.1811177730560303,-18.37158203125,0.1983642578125,-19.775390625
7.7299999,8.913613319396973,-2.6575639247894287,2.255337953567505,-20.99609375,-1.220703125,-16.3726806640625
7.749999900000001,8.956708908081055,-2.494758129119873,2.3056161403656006,-22.03369140625,0.8697509765625,-14.404296875
7.7699999,8.899248123168945,-2.470816135406494,2.3271639347076416,-23.0712890625,-1.52587890625,-11.5509033203125
7.789999900000001,8.757989883422852,-2.408566951751709,2.2912509441375732,-24.658203125,-6.77490234375,-9.33837890625
7.8099999,8.628703117370605,-2.365471363067627,2.2457611560821533,-27.740478515625,-13.4735107421875,-6.1492919921875
7.829999900000001,8.559270858764648,-2.4157495498657227,2.1763293743133545,-32.928466796875,-17.63916015625,-0.8544921875
7.8499999,8.611943244934082,-2.4444799423217773,2.0829553604125977,-40.3289794921875,-19.04296875,6.4697265625
7.869999900000001,8.757989883422852,-2.557007312774658,1.9823989868164062,-48.0499267578125,-16.4031982421875,12.2833251953125
7.8899999,8.980650901794434,-2.717418909072876,1.867477297782898,-55.419921875,-13.4735107421875,18.585205078125
7.909999900000001,9.129091262817383,-2.8802247047424316,1.6903064250946045,-63.7664794921875,-7.4920654296875,26.5045166015625
7.9299999,9.227252960205078,-3.1220390796661377,1.5179238319396973,-70.831298828125,-3.326416015625,31.5704345703125
7.949999900000001,9.184157371520996,-3.423708438873291,1.3000515699386597,-72.845458984375,-3.9825439453125,29.11376953125
7.9699999,9.090784072875977,-3.7828385829925537,1.036689281463623,-69.7784423828125,-7.8125,23.37646484375
7.989999900000001,8.971074104309082,-4.220977783203125,0.8068459630012512,-66.7266845703125,-19.317626953125,18.7835693359375
8.0099999,9.004592895507812,-4.608838081359863,0.6177040338516235,-67.5201416015625,-36.62109375,16.448974609375
8.0299999,9.2033109664917,-4.9368438720703125,0.5554547905921936,-72.9217529296875,-37.1246337890625,15.716552734375
8.049999900000001,9.47146224975586,-5.17626428604126,0.5602431893348694,-81.1767578125,-13.7939453125,17.2882080078125
8.069999900000001,9.634267807006836,-5.264849662780762,0.4884171485900879,-86.4105224609375,5.79833984375,23.284912109375
8.0899999,9.567230224609375,-5.360617637634277,0.272938996553421,-84.564208984375,8.6669921875,30.2734375
8.1099999,9.227252960205078,-5.4013190269470215,-0.14365209639072418,-75.927734375,4.8980712890625,32.257080078125
8.129999900000001,8.767566680908203,-5.4444146156311035,-0.7015010714530945,-64.0716552734375,5.0201416015625,30.181884765625
8.149999900000001,8.341399192810059,-5.578489780426025,-1.2425906658172607,-51.9256591796875,12.7410888671875,28.8238525390625
8.1699999,7.972691535949707,-5.7125654220581055,-1.7381904125213623,-38.665771484375,21.4385986328125,30.57861328125
8.1899999,7.807491779327393,-5.8873419761657715,-2.073378562927246,-24.0631103515625,21.392822265625,33.294677734375
8.2099999,7.781155586242676,-6.117185115814209,-2.2026655673980713,-9.9029541015625,19.1497802734375,35.09521484375
8.229999900000001,7.86734676361084,-6.303933143615723,-2.1787235736846924,1.0833740234375,16.66259765625,40.6951904296875
8.2499999,8.04691219329834,-6.478709697723389,-1.9321208000183105,6.7291259765625,8.575439453125,50.96435546875
8.2699999,8.145073890686035,-6.603208065032959,-1.5753847360610962,6.16455078125,0.2899169921875,57.9986572265625
8.2899999,8.11634349822998,-6.62236213684082,-1.1659762859344482,1.2969970703125,1.3885498046875,57.7392578125
8.309999900000001,7.977479934692383,-6.631938934326172,-0.7637503147125244,-5.2490234375,8.331298828125,54.19921875
8.3299999,7.687781810760498,-6.648698329925537,-0.49799394607543945,-10.4522705078125,10.55908203125,50.72021484375
8.3499999,7.371747016906738,-6.720524311065674,-0.4165911078453064,-13.8092041015625,4.180908203125,49.224853515625
8.3699999,7.094019412994385,-6.904877662658691,-0.4668693244457245,-16.90673828125,-2.349853515625,47.54638671875
8.389999900000001,6.912060260772705,-7.072471618652344,-0.6416460275650024,-19.287109375,1.7547607421875,44.9981689453125
8.4099999,6.8593878746032715,-7.261613845825195,-0.8834604024887085,-18.798828125,10.986328125,42.9840087890625
8.4299999,6.852205276489258,-7.448361396789551,-1.1803414821624756,-14.9688720703125,11.199951171875,39.7491455078125
8.4499999,6.878541469573975,-7.594407558441162,-1.556231141090393,-8.8043212890625,1.5716552734375,34.637451171875
8.469999900000001,6.933608055114746,-7.766790390014648,-1.946485996246338,-5.0201416015625,-8.392333984375,29.78515625
8.4899999,6.9910688400268555,-7.888894557952881,-2.3104045391082764,-3.9215087890625,-7.1258544921875,26.9012451171875
8.5099999,7.086836814880371,-7.90086555480957,-2.5689783096313477,-2.5634765625,-0.9307861328125,23.6358642578125
8.5299999,7.122750282287598,-7.841010570526123,-2.7437551021575928,-4.8065185546875,8.0413818359375,15.56396484375
8.549999900000001,7.067683219909668,-7.735665798187256,-2.9233202934265137,-6.988525390625,11.5509033203125,9.4146728515625
8.569999900000001,6.9695210456848145,-7.620744228363037,-3.1316158771514893,-10.7574462890625,5.7373046875,6.28662109375
8.5899999,6.9695210456848145,-7.5201873779296875,-3.313575267791748,-16.9677734375,6.4849853515625,0.3662109375
8.6099999,7.0317702293396,-7.4770917892456055,-3.584120035171509,-24.627685546875,27.40478515625,-6.8359375
8.629999900000001,7.204153060913086,-7.453149795532227,-3.883395195007324,-30.487060546875,41.6717529296875,-7.14111328125
8.649999900000001,7.338228225708008,-7.47230339050293,-4.247313976287842,-31.8603515625,32.3333740234375,-1.3275146484375
8.6699999,7.424419403076172,-7.46033239364624,-4.606443881988525,-29.78515625,27.496337890625,1.2969970703125
8.6899999,7.3693528175354,-7.453149795532227,-4.927267074584961,-23.6358642578125,47.8057861328125,-0.1068115234375
8.709999900000001,7.19936466217041,-7.3238630294799805,-5.070919036865234,-15.5029296875,63.6138916015625,1.15966796875
8.729999900000001,6.94079065322876,-7.137115478515625,-5.027823448181152,-7.904052734375,54.2755126953125,3.4332275390625
8.7499999,6.588842868804932,-6.964732646942139,-4.793191909790039,-2.7618408203125,40.5731201171875,2.349853515625
8.7699999,6.244078159332275,-6.710947513580322,-4.321534156799316,-0.3814697265625,37.7044677734375,1.52587890625
8.7899999,5.935225963592529,-6.473921298980713,-3.7158010005950928,-2.3193359375,40.8477783203125,0.823974609375
8.809999900000001,5.633556365966797,-6.270414352416992,-3.0813376903533936,-8.23974609375,35.0341796875,-1.4190673828125
8.8299999,5.365406036376953,-6.069301128387451,-2.497152328491211,-14.984130859375,22.8118896484375,-5.2642822265625
8.8499999,5.0900726318359375,-5.978321552276611,-2.056619167327881,-21.17919921875,18.2342529296875,-10.6964111328125
8.8699999,4.869806289672852,-5.9088897705078125,-1.7142484188079834,-27.587890625,19.6685791015625,-17.9901123046875
8.889999900000001,4.73573112487793,-5.861005783081055,-1.4700398445129395,-32.9132080078125,16.021728515625,-24.0631103515625
8.9099999,4.680664539337158,-5.861005783081055,-1.3407529592514038,-38.2080078125,1.9378662109375,-26.3519287109375
8.9299999,4.7405195236206055,-5.7987565994262695,-1.280897855758667,-44.2657470703125,-10.6353759765625,-27.4200439453125
8.9499999,4.891354084014893,-5.772420406341553,-1.3431471586227417,-49.98779296875,-12.39013671875,-29.8919677734375
8.969999900000001,5.130774021148682,-5.75326681137085,-1.4724340438842773,-53.497314453125,-11.1541748046875,-31.6925048828125
8.9899999,5.439626216888428,-5.70777702331543,-1.6735470294952393,-53.497314453125,-10.772705078125,-30.059814453125
9.0099999,5.772420406341553,-5.74129581451416,-1.9369091987609863,-50.47607421875,-8.026123046875,-25.4974365234375
9.0299999,6.110002517700195,-5.796362400054932,-2.166752576828003,-43.7164306640625,-4.486083984375,-19.7296142578125
9.049999900000001,6.3949127197265625,-5.875370979309082,-2.408566951751709,-33.5235595703125,0.9307861328125,-14.0533447265625
9.069999900000001,6.629544734954834,-5.937620162963867,-2.5306711196899414,-26.0009765625,3.4332275390625,-9.2010498046875
9.0899999,6.789956092834473,-5.978321552276611,-2.5953147411346436,-17.4560546875,0.9613037109375,-5.37109375
9.1099999,6.938396453857422,-5.9735331535339355,-2.499546527862549,-9.0789794921875,1.2664794921875,-0.5340576171875
9.129999900000001,7.010222434997559,-5.944802761077881,-2.3487119674682617,-2.593994140625,4.3792724609375,7.049560546875
9.149999900000001,7.043741226196289,-5.87776517868042,-2.1523873805999756,1.7852783203125,1.1749267578125,11.3983154296875
9.1699999,7.127538681030273,-5.78678560256958,-1.9057846069335938,1.9378662109375,1.6326904296875,7.6904296875
9.1899999,7.204153060913086,-5.75326681137085,-1.6903064250946045,-2.7008056640625,17.3797607421875,2.9754638671875
9.209999900000001,7.307103633880615,-5.738901615142822,-1.4939818382263184,-8.1024169921875,27.3284912109375,6.7901611328125
9.229999900000001,7.422025203704834,-5.863399982452393,-1.2952631711959839,-10.92529296875,21.1639404296875,11.505126953125
9.2499999,7.47230339050293,-6.011840343475342,-1.1659762859344482,-9.2620849609375,14.801025390625,10.6964111328125
9.2699999,7.51779317855835,-6.19379997253418,-1.0773907899856567,-8.0108642578125,16.0369873046875,8.7890625
9.2899999,7.575253963470459,-6.40927791595459,-0.9888052940368652,-6.6070556640625,16.632080078125,12.39013671875
9.309999900000001,7.615955829620361,-6.619967937469482,-1.0079588890075684,-3.6163330078125,9.2620849609375,19.073486328125
9.3299999,7.63989782333374,-6.821080684661865,-1.0271124839782715,0.640869140625,3.7841796875,22.796630859375
9.3499999,7.539340972900391,-7.046135425567627,-1.1180921792984009,5.462646484375,2.960205078125,23.406982421875
9.3699999,7.343016624450684,-7.134721279144287,-1.2306196689605713,8.636474609375,1.6021728515625,21.91162109375
9.389999900000001,7.0557122230529785,-7.230489253997803,-1.3120225667953491,10.040283203125,0.030517578125,17.120361328125
9.4099999,6.742072105407715,-7.249642848968506,-1.3670891523361206,10.9710693359375,0.7781982421875,10.040283203125
9.4299999,6.490680694580078,-7.225700855255127,-1.3646949529647827,10.2691650390625,4.3487548828125,3.2958984375
9.4499999,6.347028732299805,-7.240066051483154,-1.278503656387329,7.8582763671875,11.4288330078125,-2.50244140625
9.469999900000001,6.313509941101074,-7.182605266571045,-1.170764684677124,4.241943359375,11.0321044921875,-5.43212890625
9.4899999,6.3733649253845215,-7.158663272857666,-1.0558429956436157,0.48828125,3.4332275390625,-4.9591064453125
9.5099999,6.466738700866699,-7.16584587097168,-0.9457096457481384,-2.99072265625,2.197265625,-5.1727294921875
9.5299999,6.584054470062256,-7.158663272857666,-0.8978256583213806,-5.7220458984375,10.92529296875,-6.9580078125
9.549999900000001,6.648698329925537,-7.266402244567871,-0.9074024558067322,-6.0577392578125,15.5029296875,-6.6375732421875
9.569999900000001,6.62236213684082,-7.390900611877441,-0.9888052940368652,-4.0740966796875,10.92529296875,-5.2947998046875
9.5899999,6.557718276977539,-7.457938194274902,-1.0845733880996704,-0.152587890625,4.4708251953125,-5.9051513671875
9.6099999,6.447585105895996,-7.582436561584473,-1.1899182796478271,3.509521484375,3.753662109375,-8.97216796875
9.629999900000001,6.406883716583252,-7.558494567871094,-1.1875240802764893,3.9215087890625,2.8228759765625,-10.31494140625
9.649999900000001,6.44279670715332,-7.529764175415039,-1.1827356815338135,0.67138671875,-1.2359619140625,-8.8043212890625
9.6699999,6.552929878234863,-7.503427982330322,-1.1204863786697388,-3.96728515625,-2.9754638671875,-7.354736328125
9.6899999,6.691793918609619,-7.400477409362793,-1.1037269830703735,-9.307861328125,-1.068115234375,-7.1563720703125
9.709999900000001,6.835445880889893,-7.352593421936035,-1.139639973640442,-13.4429931640625,-0.335693359375,-6.8817138671875
9.729999900000001,6.914454460144043,-7.326257228851318,-1.2210428714752197,-15.777587890625,-0.8697509765625,-6.805419921875
9.7499999,6.995857238769531,-7.273584842681885,-1.3886369466781616,-15.5487060546875,-1.0223388671875,-8.97216796875
9.7699999,7.086836814880371,-7.319074630737305,-1.5658079385757446,-13.7939453125,3.753662109375,-11.199951171875
9.7899999,7.1706342697143555,-7.3454108238220215,-1.7334020137786865,-11.6424560546875,8.819580078125,-8.9874267578125
9.809999900000001,7.271190643310547,-7.374141216278076,-1.8938134908676147,-8.7127685546875,9.1552734375,-4.08935546875
9.8299999,7.333439826965332,-7.445967197418213,-1.9919757843017578,-5.5084228515625,8.9874267578125,-2.5634765625
9.8499999,7.328651428222656,-7.383718013763428,-1.9967641830444336,-2.8839111328125,11.65771484375,-4.82177734375
9.8699999,7.343016624450684,-7.333439826965332,-1.9776105880737305,-3.021240234375,13.85498046875,-5.4473876953125
9.889999900000001,7.321468830108643,-7.228095054626465,-1.821987509727478,-5.950927734375,16.204833984375,-4.0435791015625
9.9099999,7.321468830108643,-7.091625213623047,-1.7118542194366455,-9.185791015625,17.9443359375,-3.90625
9.9299999,7.285555839538574,-6.998251438140869,-1.5849615335464478,-11.7034912109375,18.646240234375,-5.828857421875
9.9499999,7.249642848968506,-6.912060260772705,-1.4963760375976562,-13.916015625,17.3797607421875,-8.6212158203125
9.969999900000001,7.2113356590271,-6.871358871459961,-1.4844050407409668,-16.05224609375,15.0604248046875,-10.5438232421875
9.9899999,7.187393665313721,-6.9455790519714355,-1.4700398445129395,-18.0511474609375,12.20703125,-10.9100341796875
10.0099999,7.173028469085693,-7.043741226196289,-1.5394717454910278,-19.989013671875,8.697509765625,-10.3302001953125
10.0299999,7.19936466217041,-7.156269073486328,-1.6160861253738403,-20.7977294921875,11.9781494140625,-12.908935546875
10.049999900000001,7.189787864685059,-7.29034423828125,-1.699883222579956,-19.287109375,22.0947265625,-18.4783935546875
10.069999900000001,7.223306655883789,-7.280767440795898,-1.723825216293335,-15.289306640625,25.9246826171875,-21.270751953125
10.0899999,7.275979042053223,-7.287950038909912,-1.6687586307525635,-11.1083984375,23.3154296875,-19.3939208984375
10.1099999,7.340622425079346,-7.2137298583984375,-1.4772224426269531,-8.30078125,19.378662109375,-16.05224609375
10.129999900000001,7.481880187988281,-7.022193431854248,-1.1875240802764893,-7.7056884765625,20.8587646484375,-14.83154296875
10.149999900000001,7.5848307609558105,-6.914454460144043,-0.8571242094039917,-8.4381103515625,28.5797119140625,-13.5040283203125
10.1699999,7.649474620819092,-6.694188117980957,-0.5267243981361389,-9.4146728515625,29.5562744140625,-9.5367431640625
10.1899999,7.627926826477051,-6.617573261260986,-0.2992752194404602,-9.82666015625,23.4527587890625,-5.6304931640625
10.209999900000001,7.47230339050293,-6.5481414794921875,-0.090979665517807,-9.552001953125,20.7061767578125,-5.157470703125
10.229999900000001,7.268796443939209,-6.502651691436768,0.019153613597154617,-9.1094970703125,19.317626953125,-6.4849853515625
10.2499999,7.005434036254883,-6.53377628326416,0.11252748221158981,-8.85009765625,15.1214599609375,-8.36181640625
10.2699999,6.780379295349121,-6.524199485778809,0.19871874153614044,-9.4757080078125,10.19287109375,-10.711669921875
10.2899999,6.6127848625183105,-6.557718276977539,0.2346317619085312,-11.7645263671875,6.7596435546875,-13.0462646484375
10.309999900000001,6.560112476348877,-6.6127848625183105,0.30885201692581177,-16.4337158203125,2.7923583984375,-13.0767822265625
10.3299999,6.564900875091553,-6.648698329925537,0.35434186458587646,-22.430419921875,-1.0986328125,-12.14599609375
10.3499999,6.672640323638916,-6.7061591148376465,0.35673606395721436,-26.9317626953125,-1.6326904296875,-13.702392578125
10.3699999,6.8162922859191895,-6.8043212890625,0.3447650372982025,-28.8238525390625,1.77001953125,-17.39501953125
10.389999900000001,7.053318023681641,-6.84981107711792,0.26815059781074524,-29.205322265625,8.4075927734375,-19.59228515625
10.4099999,7.347805023193359,-6.979097843170166,0.13168109953403473,-28.778076171875,16.9830322265625,-19.04296875
10.4299999,7.659051418304443,-7.0341644287109375,0.0071826050989329815,-26.153564453125,20.2789306640625,-15.3656005859375
10.4499999,7.924807548522949,-7.0557122230529785,-0.2537853717803955,-21.8505859375,22.125244140625,-12.0697021484375
10.469999900000001,8.145073890686035,-6.995857238769531,-0.4381389021873474,-17.7459716796875,28.4576416015625,-12.664794921875
10.4899999,8.339004516601562,-6.768408298492432,-0.667982280254364,-13.3819580078125,41.778564453125,-16.7236328125
10.5099999,8.645462036132812,-6.507440090179443,-0.7829039692878723,-6.9427490234375,58.0902099609375,-18.98193359375
10.5299999,8.96149730682373,-6.224924564361572,-0.8212111592292786,0.885009765625,66.5283203125,-13.7939453125
10.549999900000001,9.32302188873291,-5.870582580566406,-0.8355764150619507,10.5743408203125,63.65966796875,-5.1727294921875
10.569999900000001,9.627084732055664,-5.588066577911377,-0.7781155705451965,20.2789306640625,55.755615234375,0.8697509765625
10.5899999,9.758766174316406,-5.264849662780762,-0.7015010714530945,27.8167724609375,52.520751953125,2.8839111328125
10.6099999,9.813833236694336,-4.869806289672852,-0.667982280254364,33.6761474609375,50.72021484375,4.058837890625
10.629999900000001,9.734824180603027,-4.503493309020996,-0.47884035110473633,37.3382568359375,46.0357666015625,4.7607421875
10.649999900000001,9.5624418258667,-4.031835556030273,-0.4213795065879822,38.1927490234375,43.27392578125,3.387451171875
10.6699999,9.387664794921875,-3.5625722408294678,-0.29209262132644653,37.139892578125,37.4755859375,1.1444091796875
10.6899999,9.126696586608887,-3.162740468978882,-0.16519992053508759,34.393310546875,29.72412109375,-2.7923583984375
10.709999900000001,8.892065048217773,-2.806004285812378,-0.09816227108240128,29.1290283203125,29.937744140625,-8.7890625
10.729999900000001,8.695740699768066,-2.583343744277954,0.009576806798577309,21.6522216796875,34.5916748046875,-14.5111083984375
10.7499999,8.470685958862305,-2.5091233253479004,0.08379705995321274,12.75634765625,36.834716796875,-17.669677734375
10.7699999,8.343792915344238,-2.4612393379211426,0.08858546614646912,4.0130615234375,38.4674072265625,-18.524169921875
10.7899999,8.224082946777344,-2.542642116546631,0.1604115068912506,-3.2958984375,44.3878173828125,-18.24951171875
10.809999900000001,8.130708694458008,-2.5713725090026855,0.2059013396501541,-9.2926025390625,51.7730712890625,-16.3421630859375
10.8299999,8.097189903259277,-2.647987127304077,0.3016694188117981,-12.87841796875,58.0596923828125,-12.5885009765625
10.8499999,8.018181800842285,-2.7461493015289307,0.4812345504760742,-13.2904052734375,59.2498779296875,-8.4228515625
10.8699999,7.979874134063721,-2.806004285812378,0.608127236366272,-11.749267578125,58.1207275390625,-5.126953125
10.889999900000001,7.9176249504089355,-2.8850131034851074,0.8212111592292786,-10.2081298828125,57.6629638671875,-2.2735595703125
10.9099999,7.85537576675415,-2.9664158821105957,1.0319008827209473,-9.5367431640625,51.9866943359375,-0.5950927734375
10.9299999,7.8529815673828125,-2.956839084625244,1.235408067703247,-9.8114013671875,49.4384765625,-1.983642578125
10.9499999,7.888894557952881,-3.1268274784088135,1.8148049116134644,-17.1966552734375,55.084228515625,-2.3193359375
10.969999900000001,7.955932140350342,-3.1483752727508545,2.140416383743286,-21.2860107421875,54.9468994140625,-1.8768310546875
10.9899999,7.922413349151611,-3.2537200450897217,2.410961151123047,-24.4140625,55.17578125,-4.21142578125
11.0099999,7.903259754180908,-3.160346269607544,2.63362193107605,-28.38134765625,57.2662353515625,-6.591796875
11.0299999,7.850587368011475,-3.157952070236206,2.808398485183716,-32.684326171875,58.4564208984375,-5.7373046875
11.049999900000001,7.745242595672607,-3.117250680923462,2.964021682739258,-35.7666015625,57.0831298828125,-2.5787353515625
11.069999900000001,7.65186882019043,-3.0334534645080566,3.0119056701660156,-37.811279296875,54.9774169921875,1.46484375
11.0899999,7.4986395835876465,-3.0334534645080566,3.069366693496704,-39.1845703125,53.2989501953125,6.8511962890625
11.1099999,7.316680431365967,-2.980781078338623,3.098097085952759,-38.421630859375,51.025390625,11.444091796875
11.129999900000001,7.1490864753723145,-2.9448680877685547,3.0789434909820557,-35.58349609375,48.33984375,15.228271484375
11.149999900000001,6.957550048828125,-2.9759926795959473,3.181894063949585,-33.3099365234375,45.6390380859375,18.707275390625
11.1699999,6.7923502922058105,-2.959233283996582,3.2130186557769775,-33.5540771484375,41.8853759765625,22.0794677734375
11.1899999,6.677428722381592,-3.028665065765381,3.315969467163086,-34.698486328125,37.53662109375,23.7274169921875
11.209999900000001,6.603208065032959,-3.141192674636841,3.4356794357299805,-35.430908203125,33.660888671875,23.7884521484375
11.229999900000001,6.643909931182861,-3.3494882583618164,3.4787750244140625,-37.109375,34.423828125,24.6429443359375
11.2499999,6.732495307922363,-3.6990416049957275,3.5721490383148193,-41.473388671875,33.7371826171875,28.8238525390625
11.2699999,6.828263282775879,-4.067748546600342,3.6343982219696045,-45.1812744140625,32.2265625,32.7606201171875
11.2899999,6.900089263916016,-4.537012100219727,3.6367924213409424,-46.4324951171875,32.3486328125,31.8603515625
11.309999900000001,6.873753070831299,-5.003881454467773,3.713406801223755,-47.2259521484375,35.21728515625,27.7252197265625
11.3299999,6.8378400802612305,-5.427655220031738,3.711012601852417,-51.055908203125,36.895751953125,26.153564453125
11.3499999,6.8043212890625,-5.87776517868042,3.737348794937134,-57.6629638671875,35.9344482421875,27.984619140625
11.3699999,6.8162922859191895,-6.275202751159668,3.7708675861358643,-66.3909912109375,32.9437255859375,31.31103515625
11.389999900000001,6.897695064544678,-6.610390663146973,3.6559460163116455,-76.4312744140625,32.135009765625,37.17041015625
11.4099999,6.976703643798828,-6.9695210456848145,3.533841609954834,-84.228515625,33.233642578125,45.9747314453125
11.4299999,6.94079065322876,-7.259219646453857,3.220201253890991,-88.226318359375,35.186767578125,51.2542724609375
11.4499999,6.813898086547852,-7.553706169128418,2.75812029838562,-84.9456787109375,36.590576171875,47.882080078125
11.469999900000001,6.5265936851501465,-7.848193168640137,2.296039342880249,-72.81494140625,36.0107421875,38.7420654296875
11.4899999,6.251260757446289,-8.123526573181152,1.7693150043487549,-56.5338134765625,32.3486328125,33.233642578125
11.5099999,6.1315507888793945,-8.334216117858887,1.4724340438842773,-47.4090576171875,24.10888671875,35.7666015625
11.5299999,6.143521785736084,-8.53532886505127,1.3335703611373901,-47.760009765625,16.326904296875,47.6531982421875
11.549999900000001,6.268020153045654,-8.643068313598633,1.235408067703247,-49.102783203125,5.6915283203125,65.582275390625
11.569999900000001,6.258443355560303,-8.734047889709473,1.1563993692398071,-45.2423095703125,-4.3487548828125,78.2318115234375
11.5899999,6.04775333404541,-8.671798706054688,0.9552865028381348,-37.7044677734375,-7.99560546875,74.9664306640625
11.6099999,5.652710437774658,-8.506598472595215,0.6847416758537292,-31.73828125,-2.50244140625,61.4166259765625
11.629999900000001,5.128379821777344,-8.362946510314941,0.5195417404174805,-28.8238525390625,2.838134765625,52.1240234375
11.649999900000001,4.642356872558594,-8.145073890686035,0.3734954595565796,-26.8707275390625,4.608154296875,53.7567138671875
11.6699999,4.173093795776367,-8.092401504516602,0.43095630407333374,-25.93994140625,2.4566650390625,64.63623046875
11.6899999,3.7158010005950928,-8.04930591583252,0.5674257874488831,-28.62548828125,-2.410888671875,77.880859375
11.709999900000001,3.224989652633667,-7.9631147384643555,0.7637503147125244,-32.71484375,-8.60595703125,87.7838134765625
11.729999900000001,2.734178304672241,-7.9176249504089355,1.0462661981582642,-33.50830078125,-11.1083984375,90.0421142578125
11.7499999,2.185906171798706,-7.857769966125488,1.3311761617660522,-33.1573486328125,-5.5999755859375,85.44921875
11.7699999,1.6615760326385498,-7.8529815673828125,1.5897499322891235,-37.5213623046875,4.8980712890625,79.4677734375
11.7899999,1.1109095811843872,-8.044517517089844,1.7956513166427612,-41.9464111328125,8.4381103515625,70.9991455078125
11.809999900000001,0.6584054827690125,-8.224082946777344,1.8531121015548706,-39.215087890625,2.3193359375,58.5784912109375
11.8299999,0.38067805767059326,-8.585607528686523,1.8507179021835327,-32.928466796875,-2.532958984375,45.2880859375
11.8499999,0.31364041566848755,-8.939949035644531,1.8267759084701538,-31.7535400390625,4.791259765625,36.834716796875
11.8699999,0.5051765441894531,-9.258378028869629,1.7980455160140991,-35.21728515625,18.2647705078125,33.1573486328125
11.889999900000001,0.8164227604866028,-9.744400978088379,1.8195933103561401,-37.04833984375,27.3590087890625,31.9976806640625
11.9099999,1.137245774269104,-10.141838073730469,1.7549498081207275,-36.4837646484375,27.435302734375,38.360595703125
11.9299999,1.3718775510787964,-10.615890502929688,1.6112977266311646,-34.85107421875,23.040771484375,48.4466552734375
11.9499999,1.479616641998291,-11.137825965881348,1.434126853942871,-31.6162109375,23.49853515625,53.741455078125
11.969999900000001,1.3766659498214722,-11.552022933959961,1.0893617868423462,-25.8026123046875,31.67724609375,54.6875
11.9899999,1.0893617868423462,-11.951854705810547,0.7805097699165344,-16.7236328125,35.125732421875,53.6346435546875
12.0099999,0.6536170840263367,-12.160150527954102,0.4596867263317108,-7.32421875,36.6973876953125,46.173095703125
12.0299999,0.24899697303771973,-12.160150527954102,0.2513911724090576,-2.0294189453125,42.724609375,38.6810302734375
12.049999900000001,-0.023942016065120697,-12.076353073120117,0.2298433631658554,-1.2664794921875,45.7611083984375,44.158935546875
12.069999900000001,-0.038307227194309235,-11.796232223510742,0.22744916379451752,-1.3275146484375,32.40966796875,57.80029296875
12.0899999,0.13407529890537262,-11.587936401367188,0.2801215946674347,1.0833740234375,12.0849609375,65.887451171875
12.1099999,0.3663128614425659,-11.386823654174805,0.30885201692581177,4.08935546875,0.4119873046875,67.230224609375
12.129999900000001,0.5386953949928284,-11.21204662322998,0.272938996553421,4.4097900390625,5.5694580078125,65.155029296875
12.149999900000001,0.5315127968788147,-11.168951034545898,0.27054479718208313,3.173828125,21.0113525390625,59.661865234375
12.1699999,0.33279404044151306,-11.164162635803223,0.1388636976480484,4.1961669921875,28.900146484375,52.3529052734375
12.1899999,0.05027823522686958,-11.130643844604492,-0.021547814831137657,9.4757080078125,27.130126953125,45.1202392578125
12.209999900000001,-0.28730419278144836,-11.142614364624023,-0.22266076505184174,16.4947509765625,27.0233154296875,34.4696044921875
12.229999900000001,-0.4405331015586853,-10.939107894897461,-0.44532153010368347,23.98681640625,24.6429443359375,23.0560302734375
12.2499999,-0.42616790533065796,-10.843339920043945,-0.5099649429321289,30.9906005859375,19.317626953125,15.2740478515625
12.2699999,-0.17717093229293823,-10.611102104187012,-0.49559974670410156,36.7889404296875,15.4266357421875,13.48876953125
12.289999900000002,0.2106897532939911,-10.414777755737305,-0.33997663855552673,40.46630859375,19.378662109375,17.02880859375
12.309999900000001,0.569819986820221,-10.33098030090332,-0.08379705995321274,42.205810546875,24.90234375,23.5595703125
12.3299999,0.7422025203704834,-10.14902114868164,0.11252748221158981,44.2047119140625,18.6614990234375,31.18896484375
12.3499999,0.7086837291717529,-9.998186111450195,0.3447650372982025,44.4793701171875,0.4119873046875,35.2630615234375
12.3699999,0.4668693244457245,-9.80904483795166,0.5889736413955688,39.7491455078125,-6.40869140625,29.7698974609375
12.389999900000001,0.21308395266532898,-9.53849983215332,0.8307880163192749,30.242919921875,3.0670166015625,18.4478759765625
12.4099999,0.002394201699644327,-9.459490776062012,1.1994950771331787,20.2789306640625,15.472412109375,11.322021484375
12.4299999,-0.19153612852096558,-9.44752025604248,1.4508862495422363,14.2669677734375,20.1416015625,12.39013671875
12.4499999,-0.35434186458587646,-9.593565940856934,1.6352397203445435,13.2293701171875,13.5498046875,16.29638671875
12.469999900000001,-0.545877993106842,-9.895236015319824,1.7621324062347412,15.6707763671875,-1.556396484375,16.9525146484375
12.4899999,-0.7015010714530945,-10.091560363769531,1.8387469053268433,20.477294921875,-3.997802734375,12.14599609375
12.5099999,-0.8092401623725891,-10.371682167053223,1.987187385559082,24.6429443359375,10.1165771484375,2.3193359375
12.5299999,-0.8331822156906128,-10.551246643066406,2.1787235736846924,29.4952392578125,23.284912109375,-7.3699951171875
12.549999900000001,-0.8020575642585754,-10.666168212890625,2.3319525718688965,34.7137451171875,22.0794677734375,-11.8560791015625
12.569999900000001,-0.7110779285430908,-10.807426452636719,2.5330653190612793,39.48974609375,13.5040283203125,-11.932373046875
12.5899999,-0.6033388376235962,-10.757147789001465,2.6815059185028076,43.8690185546875,4.8828125,-12.4664306640625
12.6099999,-0.45010992884635925,-10.690110206604004,2.9065608978271484,46.8292236328125,4.45556640625,-17.913818359375
12.629999900000001,-0.3232172429561615,-10.515334129333496,3.19865345954895,47.2412109375,8.087158203125,-25.177001953125
12.649999900000001,-0.2059013396501541,-10.180145263671875,3.4572272300720215,44.61669921875,9.1094970703125,-32.0892333984375
12.6699999,-0.10295066982507706,-9.943120002746582,3.758896589279175,39.398193359375,5.523681640625,-38.818359375
12.6899999,-0.0071826050989329815,-9.600749015808105,3.950432777404785,33.5693359375,0.8392333984375,-43.670654296875
12.709999900000001,0.17238251864910126,-9.294290542602539,4.134786128997803,27.069091796875,-3.1585693359375,-46.9970703125
12.729999900000001,0.38546648621559143,-9.107542991638184,4.292803764343262,19.6990966796875,-3.2958984375,-50.84228515625
12.7499999,0.6631938815116882,-8.875306129455566,4.376600742340088,12.420654296875,-2.685546875,-53.7567138671875
12.7699999,0.9241618514060974,-8.899248123168945,4.443638324737549,7.080078125,-1.312255859375,-54.6112060546875
12.789999900000002,1.139639973640442,-8.96149730682373,4.398148536682129,4.1961669921875,-1.7242431640625,-54.779052734375
12.809999900000001,1.292868971824646,-9.102754592895508,4.285621166229248,3.5400390625,-4.33349609375,-55.7861328125
12.8299999,1.3551181554794312,-9.339780807495117,4.163516521453857,4.302978515625,-6.5460205078125,-57.525634765625
12.8499999,1.3192051649093628,-9.461885452270508,3.976768970489502,6.5460205078125,-6.622314453125,-58.685302734375
12.8699999,1.2258312702178955,-9.63187313079834,3.8522706031799316,9.429931640625,-7.99560546875,-59.356689453125
12.889999900000001,1.091755986213684,-9.758766174316406,3.77565598487854,12.0391845703125,-8.8958740234375,-61.767578125
12.9099999,1.0247182846069336,-9.907206535339355,3.7205893993377686,12.0391845703125,-7.38525390625,-59.2041015625
12.9299999,1.0127472877502441,-10.156203269958496,3.778050184249878,9.674072265625,-1.0528564453125,-48.9044189453125
12.9499999,0.9888052940368652,-10.38844108581543,3.7636849880218506,8.6669921875,3.5247802734375,-37.8265380859375
12.969999900000001,0.9409212470054626,-10.560823440551758,3.7253777980804443,9.6893310546875,2.3345947265625,-34.11865234375
12.9899999,0.849941611289978,-10.644620895385742,3.6511576175689697,11.8560791015625,-4.852294921875,-39.642333984375
13.0099999,0.8451532125473022,-10.484209060668945,3.5242648124694824,14.3280029296875,-12.3291015625,-47.9888916015625
13.0299999,0.9457096457481384,-10.36449909210205,3.5194764137268066,14.8773193359375,-17.303466796875,-50.3387451171875
13.049999900000001,1.1851298809051514,-10.165780067443848,3.5386300086975098,12.725830078125,-19.012451171875,-48.3551025390625
13.069999900000001,1.501164436340332,-10.017339706420898,3.624821424484253,8.697509765625,-20.3399658203125,-45.318603515625
13.0899999,1.7477672100067139,-9.979032516479492,3.7445313930511475,3.4332275390625,-21.1029052734375,-40.618896484375
13.1099999,1.9297266006469727,-9.86889934539795,3.711012601852417,-1.7547607421875,-23.8037109375,-34.0576171875
13.129999900000001,1.9249382019042969,-9.861717224121094,3.6391866207122803,-4.4708251953125,-27.587890625,-29.937744140625
13.149999900000001,1.8483237028121948,-9.6989107131958,3.4189200401306152,-4.45556640625,-32.1197509765625,-32.501220703125
13.1699999,1.7525556087493896,-9.421183586120605,3.1268274784088135,-5.2490234375,-29.449462890625,-40.7257080078125
13.1899999,1.7286136150360107,-9.05247688293457,2.87064790725708,-8.1787109375,-22.1099853515625,-47.1954345703125
13.209999900000001,1.821987509727478,-8.513781547546387,2.58813214302063,-11.4288330078125,-23.712158203125,-50.1861572265625
13.229999900000001,1.9919757843017578,-8.092401504516602,2.38462495803833,-14.7552490234375,-29.9072265625,-52.0782470703125
13.2499999,2.1978771686553955,-7.702147006988525,2.229001760482788,-18.0206298828125,-33.14208984375,-54.4281005859375
13.2699999,2.451662540435791,-7.393294811248779,2.10210919380188,-22.186279296875,-29.7698974609375,-57.8460693359375
13.289999900000002,2.7724854946136475,-7.307103633880615,2.0925323963165283,-27.435302734375,-18.06640625,-62.0574951171875
13.309999900000001,3.1244332790374756,-7.206547260284424,2.0661959648132324,-31.097412109375,-3.1585693359375,-64.4683837890625
13.3299999,3.49314022064209,-7.268796443939209,2.0590133666992188,-32.8369140625,4.0283203125,-61.5081787109375
13.3499999,3.818751811981201,-7.424419403076172,2.0614075660705566,-33.050537109375,2.74658203125,-55.6182861328125
13.3699999,4.098873138427734,-7.534552574157715,1.9560627937316895,-31.7535400390625,1.2969970703125,-51.3763427734375
13.389999900000001,4.326322555541992,-7.8745293617248535,1.9081788063049316,-29.1595458984375,5.035400390625,-48.065185546875
13.4099999,4.486733913421631,-8.056488990783691,1.8171991109848022,-25.7720947265625,8.5601806640625,-44.769287109375
13.4299999,4.611232280731201,-8.346187591552734,1.702277421951294,-21.54541015625,12.786865234375,-43.8079833984375
13.4499999,4.6734819412231445,-8.62630844116211,1.6831238269805908,-17.547607421875,17.7764892578125,-44.3267822265625
13.469999900000001,4.747702121734619,-8.705317497253418,1.601720929145813,-14.2822265625,20.050048828125,-43.64013671875
13.4899999,4.955997467041016,-8.820239067077637,1.6711528301239014,-12.1612548828125,19.8822021484375,-43.5638427734375
13.5099999,5.233725070953369,-8.774748802185059,1.7717092037200928,-12.176513671875,23.8037109375,-42.633056640625
13.5299999,5.600037574768066,-8.647856712341309,1.8818424940109253,-15.0299072265625,32.3638916015625,-37.7044677734375
13.549999900000001,5.884947776794434,-8.564059257507324,2.032677173614502,-17.63916015625,40.2374267578125,-34.027099609375
13.569999900000001,5.92325496673584,-8.465897560119629,1.9919757843017578,-17.51708984375,40.46630859375,-35.8123779296875
13.5899999,5.772420406341553,-8.401253700256348,1.920149803161621,-15.1824951171875,34.9884033203125,-40.283203125
13.6099999,5.43723201751709,-8.377311706542969,1.7741034030914307,-12.6953125,30.609130859375,-45.7611083984375
13.629999900000001,5.1331682205200195,-8.305485725402832,1.5969325304031372,-12.8631591796875,29.4342041015625,-46.4630126953125
13.649999900000001,4.932055473327637,-8.358158111572266,1.5275006294250488,-16.29638671875,30.5633544921875,-40.71044921875
13.6699999,4.869806289672852,-8.307879447937012,1.4508862495422363,-19.8822021484375,35.1715087890625,-34.698486328125
13.6899999,4.9583916664123535,-8.288725852966309,1.41257905960083,-21.97265625,36.773681640625,-31.1126708984375
13.709999900000001,5.130774021148682,-8.178592681884766,1.4460978507995605,-23.7579345703125,33.8287353515625,-29.4647216796875
13.729999900000001,5.396530628204346,-7.898471355438232,1.4101848602294922,-27.2216796875,27.2064208984375,-28.7322998046875
13.7499999,5.719748020172119,-7.5968017578125,1.4939818382263184,-31.982421875,21.209716796875,-28.228759765625
13.7699999,6.00226354598999,-7.223306655883789,1.5131354331970215,-36.4532470703125,20.7672119140625,-30.76171875
13.789999900000002,6.27280855178833,-6.797138690948486,1.5203180313110352,-40.618896484375,23.895263671875,-36.7279052734375
13.809999900000001,6.48828649520874,-6.490680694580078,1.5849615335464478,-44.5404052734375,27.069091796875,-42.449951171875
13.8299999,6.576871871948242,-6.143521785736084,1.522712230682373,-48.2635498046875,31.890869140625,-46.1273193359375
13.8499999,6.600813865661621,-5.8203043937683105,1.4987702369689941,-49.3316650390625,30.487060546875,-50.079345703125
13.8699999,6.557718276977539,-5.700594425201416,1.3934253454208374,-45.34912109375,29.8309326171875,-53.5430908203125
13.889999900000001,6.524199485778809,-5.633556365966797,1.4269442558288574,-38.9862060546875,29.35791015625,-57.220458984375
13.9099999,6.552929878234863,-5.485116004943848,1.403002142906189,-32.623291015625,26.79443359375,-58.7615966796875
13.9299999,6.72531270980835,-5.3797712326049805,1.4700398445129395,-27.34375,22.6287841796875,-57.6629638671875
13.9499999,6.995857238769531,-5.245696067810059,1.6352397203445435,-24.200439453125,19.3939208984375,-54.2755126953125
13.969999900000001,7.338228225708008,-5.085284233093262,1.745373010635376,-22.9644775390625,19.34814453125,-48.0804443359375
13.9899999,7.69735860824585,-4.977545261383057,1.920149803161621,-21.5301513671875,17.7459716796875,-41.3055419921875
14.0099999,7.9415669441223145,-4.855441093444824,2.0159177780151367,-18.6767578125,11.5203857421875,-38.5589599609375
14.0299999,8.142680168151855,-4.76924991607666,2.054224967956543,-16.1590576171875,4.8828125,-38.3148193359375
14.049999900000001,8.291120529174805,-4.8482584953308105,2.1380221843719482,-15.4876708984375,3.0364990234375,-36.1480712890625
14.069999900000001,8.504204750061035,-4.838681697845459,2.1763293743133545,-16.41845703125,5.035400390625,-31.3873291015625
14.0899999,8.767566680908203,-5.0469770431518555,2.2649147510528564,-18.4783935546875,8.575439453125,-26.031494140625
14.1099999,8.99740982055664,-5.272032260894775,2.3319525718688965,-21.2860107421875,6.6070556640625,-15.80810546875
14.129999900000001,9.0859956741333,-5.568912982940674,2.2864625453948975,-25.238037109375,-3.11279296875,-0.8697509765625
14.149999900000001,8.925583839416504,-5.980715751647949,2.207453966140747,-26.9622802734375,-17.3492431640625,10.406494140625
14.1699999,8.595184326171875,-6.1985883712768555,2.032677173614502,-25.146484375,-30.2734375,11.993408203125
14.1899999,8.169015884399414,-6.461950302124023,1.9249382019042969,-22.5067138671875,-30.82275390625,4.150390625
14.209999900000001,7.86734676361084,-6.481103897094727,1.8387469053268433,-20.3094482421875,-19.134521484375,-8.758544921875
14.229999900000001,7.716512203216553,-6.469132900238037,1.8291701078414917,-19.622802734375,-6.256103515625,-20.416259765625
14.2499999,7.752425193786621,-6.452373504638672,1.8531121015548706,-18.8140869140625,-0.3814697265625,-27.6336669921875
14.2699999,7.90086555480957,-6.447585105895996,1.8698714971542358,-17.9290771484375,-5.0048828125,-27.03857421875
14.289999900000002,8.058882713317871,-6.567295074462891,1.8962076902389526,-18.707275390625,-9.8876953125,-19.744873046875
14.309999900000001,8.128314971923828,-6.742072105407715,1.8315643072128296,-19.6533203125,-7.99560546875,-11.8560791015625
14.3299999,8.037335395812988,-6.919242858886719,1.6687586307525635,-18.1121826171875,-5.06591796875,-8.392333984375
14.3499999,7.747636795043945,-6.936002254486084,1.3694833517074585,-13.61083984375,-7.50732421875,-10.772705078125
14.3699999,7.343016624450684,-6.806715488433838,0.9600749015808105,-6.927490234375,-11.6424560546875,-18.4173583984375
14.389999900000001,6.938396453857422,-6.461950302124023,0.586579442024231,0.06103515625,-11.9476318359375,-27.7099609375
14.4099999,6.701370716094971,-6.057330131530762,0.31364041566848755,5.1727294921875,-9.6588134765625,-34.9578857421875
14.4299999,6.648698329925537,-5.6670756340026855,0.19153612852096558,7.720947265625,-4.425048828125,-37.65869140625
14.4499999,6.737283706665039,-5.377377033233643,0.2298433631658554,8.72802734375,-4.852294921875,-35.09521484375
14.469999900000001,6.94079065322876,-5.16429328918457,0.3974374830722809,8.23974609375,-11.383056640625,-28.6102294921875
14.4899999,7.141903877258301,-5.018246650695801,0.5841852426528931,5.157470703125,-12.26806640625,-20.9503173828125
14.5099999,7.3669586181640625,-4.884171485900879,0.730231523513794,1.0986328125,-6.9580078125,-13.427734375
14.5299999,7.5417351722717285,-4.829104900360107,0.849941611289978,-2.410888671875,-0.030517578125,-8.1939697265625
14.549999900000001,7.659051418304443,-4.738125324249268,0.849941611289978,-4.791259765625,2.6397705078125,-6.7138671875
14.569999900000001,7.704541206359863,-4.7405195236206055,0.7972691655158997,-6.500244140625,3.7841796875,-7.9803466796875
14.5899999,7.6997528076171875,-4.7620673179626465,0.811634361743927,-8.4228515625,5.79833984375,-11.1236572265625
14.6099999,7.718906402587891,-4.699818134307861,0.730231523513794,-10.345458984375,10.1470947265625,-16.8304443359375
14.629999900000001,7.783549785614014,-4.795586109161377,0.8092401623725891,-12.3443603515625,13.5498046875,-22.857666015625
14.649999900000001,7.936778545379639,-4.73573112487793,0.8331822156906128,-14.9688720703125,16.17431640625,-25.4364013671875
14.6699999,8.145073890686035,-4.831499099731445,0.9433154463768005,-17.7001953125,18.2342529296875,-24.9176025390625
14.6899999,8.487444877624512,-4.733336925506592,1.05105459690094,-19.8822021484375,17.974853515625,-25.054931640625
14.709999900000001,8.975862503051758,-4.759673118591309,1.259350061416626,-23.193359375,22.186279296875,-26.123046875
14.729999900000001,9.44991397857666,-4.697423934936523,1.3407529592514038,-28.1829833984375,30.6243896484375,-21.1639404296875
14.7499999,9.823410034179688,-4.726154327392578,1.41257905960083,-32.3486328125,27.6336669921875,-6.9732666015625
14.7699999,9.947908401489258,-4.824316501617432,1.3192051649093628,-32.562255859375,17.0745849609375,4.45556640625
14.789999900000002,9.806650161743164,-4.896142482757568,1.1204863786697388,-30.0750732421875,16.54052734375,-0.0762939453125
14.809999900000001,9.433155059814453,-5.008669853210449,0.8619126081466675,-27.0843505859375,25.6500244140625,-15.0299072265625
14.8299999,8.990227699279785,-5.0900726318359375,0.5913678407669067,-24.3682861328125,30.853271484375,-24.810791015625
14.8499999,8.47547435760498,-5.20978307723999,0.304063618183136,-23.9715576171875,30.33447265625,-23.3917236328125
14.8699999,7.994239330291748,-5.295974254608154,0.06703764945268631,-24.7650146484375,28.289794921875,-14.9383544921875
14.889999900000001,7.649474620819092,-5.355829238891602,-0.07422025501728058,-26.4892578125,24.2462158203125,-8.3770751953125
14.9099999,7.441178798675537,-5.317522048950195,-0.12928688526153564,-28.0914306640625,21.8048095703125,-6.6680908203125
14.9299999,7.438784599304199,-5.216965675354004,-0.0454898327589035,-29.083251953125,18.768310546875,-6.8817138671875
14.9499999,7.577648162841797,-5.049371242523193,0.05985504388809204,-29.632568359375,16.5863037109375,-8.697509765625
14.969999900000001,7.805097579956055,-4.896142482757568,0.1628057211637497,-30.364990234375,13.916015625,-11.65771484375
14.9899999,8.101978302001953,-4.728548526763916,0.2513911724090576,-31.5399169921875,9.0179443359375,-12.8173828125
15.0099999,8.38449478149414,-4.527435302734375,0.2537853717803955,-33.5693359375,4.08935546875,-11.688232421875
15.0299999,8.633491516113281,-4.290409564971924,0.2753331959247589,-36.0565185546875,2.3956298828125,-11.9171142578125
15.049999900000001,8.820239067077637,-4.019864559173584,0.2849099934101105,-38.848876953125,5.06591796875,-15.899658203125
15.069999900000001,8.942343711853027,-3.711012601852417,0.29209262132644653,-41.6412353515625,12.054443359375,-21.7437744140625
15.0899999,9.002198219299316,-3.4524388313293457,0.3064578175544739,-43.3502197265625,20.111083984375,-24.96337890625
15.1099999,9.026140213012695,-3.205836057662964,0.31364041566848755,-43.0450439453125,23.1781005859375,-26.06201171875
15.129999900000001,8.978256225585938,-3.0095114707946777,0.33279404044151306,-41.0308837890625,23.86474609375,-26.3824462890625
15.149999900000001,8.935160636901855,-2.8347349166870117,0.40222588181495667,-37.0635986328125,22.7203369140625,-25.0091552734375
15.1699999,8.832210540771484,-2.717418909072876,0.4572925269603729,-32.1197509765625,22.15576171875,-21.3775634765625
15.1899999,8.779537200927734,-2.626439332962036,0.5578489899635315,-26.4892578125,21.2249755859375,-16.6778564453125
15.209999900000001,8.724471092224121,-2.542642116546631,0.6129156351089478,-20.172119140625,21.0113525390625,-13.824462890625
15.229999900000001,8.674192428588867,-2.492363929748535,0.6607996821403503,-13.24462890625,19.6533203125,-12.0391845703125
15.2499999,8.633491516113281,-2.427720546722412,0.7086837291717529,-5.9814453125,14.129638671875,-10.223388671875
15.2699999,8.542511940002441,-2.432508945465088,0.7134721279144287,1.52587890625,9.27734375,-9.70458984375
15.289999900000002,8.49941635131836,-2.4420857429504395,0.751779317855835,9.27734375,6.683349609375,-11.3067626953125
15.309999900000001,8.492233276367188,-2.494758129119873,0.7924807667732239,16.5557861328125,7.38525390625,-15.44189453125
15.3299999,8.53293514251709,-2.5546131134033203,0.8786720037460327,21.8505859375,9.429931640625,-19.622802734375
15.3499999,8.686163902282715,-2.631227731704712,1.015141487121582,24.2462158203125,8.4991455078125,-19.3634033203125
15.3699999,8.939949035644531,-2.7054479122161865,1.216254472732544,23.834228515625,7.99560546875,-15.838623046875
15.389999900000001,9.35654067993164,-2.808398485183716,1.4628572463989258,20.6146240234375,12.5579833984375,-11.9476318359375
15.4099999,9.830592155456543,-2.918531894683838,1.7166426181793213,14.3890380859375,18.218994140625,-6.9732666015625
15.4299999,10.259154319763184,-3.069366693496704,1.9321208000183105,6.7901611328125,14.862060546875,3.2806396484375
15.4499999,10.457873344421387,-3.2752678394317627,2.073378562927246,0.396728515625,5.5084228515625,16.7694091796875
15.469999900000001,10.321403503417969,-3.4739866256713867,2.099714994430542,-4.058837890625,3.8299560546875,24.5513916015625
15.4899999,9.873687744140625,-3.6152446269989014,2.054224967956543,-4.0130615234375,3.7689208984375,22.216796875
15.5099999,9.275136947631836,-3.706224203109741,1.968033790588379,0.6561279296875,1.77001953125,10.1470947265625
15.5299999,8.738836288452148,-3.758896589279175,1.9153614044189453,6.77490234375,2.532958984375,-6.2103271484375
15.549999900000001,8.465897560119629,-3.8355112075805664,1.9800047874450684,10.711669921875,8.72802734375,-17.5628662109375
15.569999900000001,8.53532886505127,-3.9671921730041504,2.1595699787139893,11.2457275390625,16.326904296875,-17.059326171875
15.5899999,8.791508674621582,-4.206612586975098,2.387019157409668,9.7808837890625,17.3187255859375,-4.8370361328125
15.6099999,9.114726066589355,-4.390965938568115,2.6024973392486572,6.805419921875,10.9100341796875,12.4359130859375
15.629999900000001,9.229647636413574,-4.599261283874512,2.6671407222747803,4.57763671875,3.7689208984375,25.3448486328125
15.649999900000001,9.105149269104004,-4.6734819412231445,2.631227731704712,5.37109375,-2.227783203125,29.8004150390625
15.6699999,8.71489429473877,-4.668693542480469,2.4157495498657227,9.58251953125,-8.3465576171875,27.6336669921875
15.6899999,8.259995460510254,-4.501099109649658,2.252943754196167,14.678955078125,-16.1285400390625,20.721435546875
15.709999900000001,7.814674377441406,-4.364629745483398,1.9991583824157715,18.3258056640625,-23.193359375,11.9781494140625
15.729999900000001,7.6111674308776855,-4.163516521453857,1.9393033981323242,19.287109375,-28.2440185546875,7.843017578125
15.7499999,7.608773231506348,-4.062960147857666,1.9345149993896484,17.120361328125,-28.3660888671875,9.4146728515625
15.7699999,7.754819393157959,-4.036623954772949,2.0207061767578125,13.24462890625,-25.20751953125,13.4735107421875
15.789999900000002,7.951143741607666,-3.9887399673461914,2.1547815799713135,9.94873046875,-24.1546630859375,17.2576904296875
15.809999900000001,8.085219383239746,-4.07014274597168,2.2433669567108154,8.2550048828125,-22.4151611328125,17.8375244140625
15.8299999,8.149862289428711,-4.127603530883789,2.276885747909546,7.537841796875,-18.1427001953125,15.625
15.8499999,8.180987358093262,-4.290409564971924,2.255337953567505,7.8582763671875,-14.2669677734375,13.2598876953125
15.869999900000002,8.190564155578613,-4.51067590713501,2.183511972427368,9.6282958984375,-9.2620849609375,11.0015869140625
15.889999900000001,8.200140953063965,-4.750096321105957,2.0925323963165283,12.5579833984375,-7.6904296875,9.307861328125
15.9099999,8.200140953063965,-4.987122058868408,1.9943699836730957,16.7388916015625,-8.60595703125,5.279541015625
15.9299999,8.20732307434082,-5.171475887298584,1.9105730056762695,21.1944580078125,-9.8419189453125,-3.11279296875
15.9499999,8.245630264282227,-5.2911858558654785,1.8626888990402222,25.20751953125,-9.6435546875,-13.885498046875
15.969999900000001,8.389283180236816,-5.310339450836182,1.8746598958969116,27.923583984375,-9.8724365234375,-22.5677490234375
15.9899999,8.609549522399902,-5.274426460266113,1.9321208000183105,29.11376953125,-9.6435546875,-29.11376953125
16.0099999,9.016563415527344,-5.114014625549316,2.0685901641845703,29.2510986328125,-8.4686279296875,-35.858154296875
16.0299999,9.50498104095459,-4.929661273956299,2.2146365642547607,29.1290283203125,-2.655029296875,-43.609619140625
16.0499999,10.007762908935547,-4.702212333679199,2.341529369354248,29.144287109375,1.2054443359375,-46.173095703125
16.0699999,10.374075889587402,-4.505887508392334,2.382230758666992,29.541015625,-5.6610107421875,-39.73388671875
16.089999900000002,10.472238540649414,-4.223371982574463,2.3582887649536133,31.707763671875,-18.49365234375,-33.4625244140625
16.109999900000002,10.211270332336426,-3.9432501792907715,2.1978771686553955,35.0799560546875,-29.571533203125,-34.759521484375
16.1299999,9.718064308166504,-3.5721490383148193,1.9943699836730957,38.0859375,-38.818359375,-38.5589599609375
16.1499999,9.131484985351562,-3.1890766620635986,1.766920804977417,40.83251953125,-44.647216796875,-38.9404296875
16.1699999,8.619126319885254,-2.894589900970459,1.5298948287963867,44.189453125,-42.5872802734375,-34.8663330078125
16.1899999,8.291120529174805,-2.674323320388794,1.3503297567367554,48.858642578125,-38.1622314453125,-25.970458984375
16.2099999,8.147468566894531,-2.542642116546631,1.2018892765045166,55.2215576171875,-36.346435546875,-14.892578125
16.2299999,8.145073890686035,-2.4827871322631836,1.0845733880996704,63.3544921875,-37.078857421875,-5.1116943359375
16.249999900000002,8.236053466796875,-2.4133553504943848,0.9840168952941895,72.021484375,-37.8570556640625,0.396728515625
16.269999900000002,8.425195693969727,-2.3702597618103027,0.8738836050033569,79.7271728515625,-34.3475341796875,2.9144287109375
16.2899999,8.664615631103516,-2.346317768096924,0.7757213711738586,85.5255126953125,-29.4036865234375,7.598876953125
16.3099999,8.966285705566406,-2.2888567447662354,0.7086837291717529,88.775634765625,-27.130126953125,14.556884765625
16.3299999,9.21288776397705,-2.3056161403656006,0.6488286852836609,90.0726318359375,-25.360107421875,19.4854736328125
16.3499999,9.39245319366455,-2.252943754196167,0.6584054827690125,90.850830078125,-22.2930908203125,21.8505859375
16.3699999,9.411606788635254,-2.2840683460235596,0.6224924325942993,92.7276611328125,-18.951416015625,20.172119140625
16.3899999,9.346963882446289,-2.255337953567505,0.6440402865409851,95.794677734375,-17.303466796875,15.44189453125
16.4099999,9.196128845214844,-2.252943754196167,0.6823474764823914,98.358154296875,-20.0347900390625,11.9171142578125
16.429999900000002,9.014169692993164,-2.298433542251587,0.7374141216278076,99.9603271484375,-24.2462158203125,10.498046875
16.4499999,8.877699851989746,-2.2433669567108154,0.8978256583213806,100.7843017578125,-25.3143310546875,8.7127685546875
16.4699999,8.78193187713623,-2.2409727573394775,1.048660397529602,100.6011962890625,-22.1710205078125,5.06591796875
16.4899999,8.736441612243652,-2.22660756111145,1.2018892765045166,99.761962890625,-19.3939208984375,2.4261474609375
16.5099999,8.731653213500977,-2.164358377456665,1.3407529592514038,98.4649658203125,-20.2178955078125,2.8839111328125
16.5299999,8.722076416015625,-2.1811177730560303,1.4293384552001953,97.1221923828125,-23.529052734375,5.9356689453125
16.5499999,8.700529098510742,-2.1547815799713135,1.4532804489135742,96.8475341796875,-24.59716796875,7.3394775390625
16.5699999,8.688557624816895,-2.1715409755706787,1.455674648284912,97.47314453125,-22.9644775390625,6.2713623046875
16.589999900000002,8.710105895996094,-2.145204782485962,1.436521053314209,97.900390625,-21.7437744140625,6.9122314453125
16.609999900000002,8.762778282165527,-2.1930887699127197,1.3958195447921753,98.297119140625,-22.9339599609375,11.474609375
16.6299999,8.853757858276367,-2.1930887699127197,1.3910311460494995,99.67041015625,-24.7344970703125,16.7694091796875
16.6499999,8.971074104309082,-2.274491548538208,1.3479355573654175,102.5543212890625,-25.4669189453125,18.951416015625
16.6699999,9.119514465332031,-2.3056161403656006,1.359906554222107,105.804443359375,-26.031494140625,19.0582275390625
16.6899999,9.315838813781738,-2.4612393379211426,1.3623007535934448,107.421875,-26.6876220703125,21.087646484375
16.7099999,9.485827445983887,-2.6192567348480225,1.3694833517074585,107.6507568359375,-28.9306640625,27.1453857421875
16.7299999,9.600749015808105,-2.87064790725708,1.3455413579940796,107.3455810546875,-36.1328125,35.247802734375
16.749999900000002,9.57201862335205,-3.1220390796661377,1.3096283674240112,106.597900390625,-44.0826416015625,41.0003662109375
16.769999900000002,9.394847869873047,-3.3734302520751953,1.256955862045288,104.5379638671875,-43.8385009765625,40.4815673828125
16.7899999,9.07641887664795,-3.555389642715454,1.237802267074585,100.7232666015625,-37.353515625,34.3780517578125
16.8099999,8.779537200927734,-3.7158010005950928,1.2737152576446533,97.137451171875,-32.989501953125,27.862548828125
16.8299999,8.513781547546387,-3.7708675861358643,1.357512354850769,94.54345703125,-28.3966064453125,22.3846435546875
16.8499999,8.418013572692871,-3.866635799407959,1.4844050407409668,92.0867919921875,-23.162841796875,19.3634033203125
16.8699999,8.446743965148926,-3.8786067962646484,1.647210717201233,88.836669921875,-17.9595947265625,18.310546875
16.8899999,8.523358345031738,-3.9863457679748535,1.778891921043396,86.456298828125,-15.2740478515625,19.53125
16.9099999,8.59997272491455,-4.055777549743652,1.9177556037902832,84.930419921875,-17.5628662109375,21.697998046875
16.929999900000002,8.614337921142578,-4.144362926483154,2.008735179901123,83.43505859375,-19.4854736328125,21.7742919921875
16.9499999,8.609549522399902,-4.247313976287842,2.075772762298584,81.085205078125,-18.3258056640625,19.71435546875
16.9699999,8.614337921142578,-4.37420654296875,2.1547815799713135,77.880859375,-15.5029296875,17.02880859375
16.9899999,8.681375503540039,-4.570530891418457,2.2026655673980713,73.8525390625,-16.7083740234375,17.822265625
17.0099999,8.813055992126465,-4.800374507904053,2.250549554824829,68.572998046875,-18.5394287109375,21.54541015625
17.0299999,8.949525833129883,-5.015852451324463,2.279279947280884,62.19482421875,-18.4173583984375,25.7568359375
17.0499999,9.040505409240723,-5.228936672210693,2.298433542251587,56.7474365234375,-17.3797607421875,28.7933349609375
17.0699999,9.026140213012695,-5.307945251464844,2.2194249629974365,54.779052734375,-15.3045654296875,27.6336669921875
17.089999900000002,8.927978515625,-5.339069843292236,2.1092917919158936,56.915283203125,-15.3350830078125,22.6593017578125
17.109999900000002,8.78193187713623,-5.238513469696045,1.968033790588379,60.9130859375,-19.317626953125,16.7236328125
17.1299999,8.647856712341309,-5.166687488555908,1.86508309841156,62.591552734375,-22.2320556640625,11.3677978515625
17.1499999,8.580819129943848,-5.054159641265869,1.7836803197860718,61.492919921875,-24.4598388671875,7.14111328125
17.1699999,8.576030731201172,-5.018246650695801,1.7573440074920654,61.2945556640625,-27.77099609375,4.6234130859375
17.1899999,8.5903959274292,-4.917690277099609,1.6879122257232666,60.8062744140625,-26.7333984375,3.143310546875
17.2099999,8.59997272491455,-4.862623691558838,1.5873557329177856,59.7076416015625,-22.9339599609375,1.1138916015625
17.2299999,8.571242332458496,-4.774038314819336,1.4652514457702637,58.4869384765625,-20.3094482421875,-1.556396484375
17.249999900000002,8.449137687683105,-4.69024133682251,1.316810965538025,57.43408203125,-20.4315185546875,-3.41796875
17.269999900000002,8.396465301513672,-4.618414878845215,1.2018892765045166,56.15234375,-21.1639404296875,-4.425048828125
17.2899999,8.33182144165039,-4.455609321594238,1.1276689767837524,53.77197265625,-18.5394287109375,-5.4168701171875
17.3099999,8.382100105285645,-4.331110954284668,1.1300631761550903,49.37744140625,-11.1541748046875,-6.0272216796875
17.3299999,8.492233276367188,-4.163516521453857,1.1875240802764893,44.647216796875,-6.6375732421875,-4.2266845703125
17.3499999,8.62391471862793,-3.9671921730041504,1.3024457693099976,39.9627685546875,-6.683349609375,-2.38037109375
17.3699999,8.753201484680176,-3.7924153804779053,1.4077905416488647,35.5377197265625,-6.439208984375,-2.0599365234375
17.3899999,8.853757858276367,-3.5697548389434814,1.5179238319396973,31.79931640625,-4.8828125,-2.74658203125
17.409999900000003,8.904036521911621,-3.3925838470458984,1.5921441316604614,29.3731689453125,-3.7994384765625,-3.173828125
17.429999900000002,8.951920509338379,-3.3016040325164795,1.659181833267212,28.0609130859375,-4.1961669921875,-3.7078857421875
17.4499999,8.947132110595703,-3.2992098331451416,1.7070658206939697,27.099609375,-5.5389404296875,-3.173828125
17.4699999,8.987833023071289,-3.4356794357299805,1.843535304069519,25.9552001953125,-9.1705322265625,-4.2266845703125
17.4899999,9.05487060546875,-3.5003228187561035,1.9369091987609863,25.299072265625,-8.5296630859375,-6.683349609375
17.5099999,9.148244857788086,-3.469198226928711,2.008735179901123,24.261474609375,-8.9111328125,-5.6304931640625
17.5299999,9.282320022583008,-3.4093432426452637,2.049436569213867,23.13232421875,-10.7574462890625,-0.823974609375
17.5499999,9.361329078674316,-3.335123062133789,2.013523578643799,23.1475830078125,-13.4429931640625,3.0059814453125
17.5699999,9.373299598693848,-3.2800562381744385,1.9297266006469727,24.3682861328125,-19.4244384765625,4.8828125
17.589999900000002,9.294290542602539,-3.2345664501190186,1.8507179021835327,25.7415771484375,-25.5279541015625,5.7220458984375
17.609999900000002,9.102754592895508,-3.155557870864868,1.7262194156646729,27.7862548828125,-28.7017822265625,5.6610107421875
17.6299999,8.925583839416504,-3.0885202884674072,1.6543933153152466,30.7159423828125,-30.364990234375,5.6915283203125
17.6499999,8.724471092224121,-3.028665065765381,1.580173134803772,33.4625244140625,-28.9764404296875,6.195068359375
17.6699999,8.631096839904785,-2.959233283996582,1.4867992401123047,35.430908203125,-30.059814453125,8.7432861328125
17.6899999,8.597578048706055,-3.0190882682800293,1.434126853942871,36.07177734375,-35.15625,11.9476318359375
17.7099999,8.688557624816895,-3.0358476638793945,1.3838485479354858,33.75244140625,-37.689208984375,14.556884765625
17.7299999,8.827422142028809,-3.0406360626220703,1.3192051649093628,28.350830078125,-33.5540771484375,15.777587890625
17.749999900000002,8.973467826843262,-3.0837318897247314,1.2545616626739502,22.03369140625,-26.1383056640625,15.7012939453125
17.769999900000002,9.093177795410156,-3.093308687210083,1.1444283723831177,17.1356201171875,-19.8516845703125,13.4735107421875
17.7899999,9.124302864074707,-3.1316158771514893,1.0007762908935547,14.495849609375,-15.7928466796875,9.8724365234375
17.8099999,9.131484985351562,-3.1938650608062744,0.849941611289978,12.75634765625,-15.93017578125,8.4381103515625
17.8299999,9.136273384094238,-3.251325845718384,0.730231523513794,11.322021484375,-15.7928466796875,10.0555419921875
17.8499999,9.141061782836914,-3.2776620388031006,0.6584054827690125,10.1470947265625,-15.6097412109375,13.00048828125
17.8699999,9.153033256530762,-3.315969467163086,0.5770025849342346,9.2926025390625,-16.29638671875,16.7083740234375
17.8899999,9.124302864074707,-3.337517261505127,0.5650315880775452,8.270263671875,-22.5982666015625,22.0947265625
17.909999900000003,9.095572471618652,-3.315969467163086,0.5386953949928284,6.744384765625,-24.658203125,26.85546875
17.929999900000002,8.978256225585938,-3.3303346633911133,0.5674257874488831,5.279541015625,-19.6075439453125,27.1759033203125
17.9499999,8.832210540771484,-3.3063924312591553,0.569819986820221,5.18798828125,-11.932373046875,23.0255126953125
17.9699999,8.65743350982666,-3.3925838470458984,0.5650315880775452,6.8206787109375,-11.199951171875,19.8974609375
17.9899999,8.501810073852539,-3.471592426300049,0.5674257874488831,9.124755859375,-16.204833984375,20.6298828125
18.0099999,8.427590370178223,-3.60566782951355,0.5602431893348694,10.8795166015625,-20.2789306640625,24.0936279296875
18.0299999,8.42040729522705,-3.713406801223755,0.5985504388809204,11.8255615234375,-19.8211669921875,27.8778076171875
18.0499999,8.461109161376953,-3.756502389907837,0.6536170840263367,13.1072998046875,-18.49365234375,32.2265625
18.0699999,8.494627952575684,-3.778050184249878,0.6943184733390808,14.6942138671875,-20.0958251953125,36.590576171875
18.089999900000002,8.463502883911133,-3.8594532012939453,0.6655880808830261,16.2353515625,-24.1241455078125,41.32080078125
18.109999900000002,8.38688850402832,-3.883395195007324,0.6416460275650024,17.2576904296875,-29.5562744140625,47.698974609375
18.1299999,8.212111473083496,-4.05817174911499,0.5363011956214905,17.9595947265625,-35.5682373046875,54.6875
18.1499999,7.987056732177734,-4.182670593261719,0.4118026793003082,19.317626953125,-39.1693115234375,57.769775390625
18.1699999,7.757213592529297,-4.347870349884033,0.27054479718208313,20.9503173828125,-42.3431396484375,56.671142578125
18.1899999,7.546523571014404,-4.505887508392334,0.1412578970193863,21.484375,-44.0673828125,54.7637939453125
18.2099999,7.424419403076172,-4.649539470672607,0.023942016065120697,20.782470703125,-42.0989990234375,55.023193359375
18.2299999,7.357381820678711,-4.831499099731445,-0.08140286058187485,21.05712890625,-42.05322265625,57.861328125
18.249999900000002,7.29034423828125,-5.070919036865234,-0.19871874153614044,23.13232421875,-44.9981689453125,61.5234375
18.269999900000002,7.261613845825195,-5.264849662780762,-0.3232172429561615,26.3671875,-49.4537353515625,63.96484375
18.2899999,7.158663272857666,-5.518634796142578,-0.4620809257030487,29.7088623046875,-50.8880615234375,64.3768310546875
18.3099999,7.060500621795654,-5.710171222686768,-0.569819986820221,32.440185546875,-50.6591796875,64.0716552734375
18.3299999,6.9455790519714355,-5.849034786224365,-0.689530074596405,34.1644287109375,-51.0406494140625,63.873291015625
18.3499999,6.828263282775879,-5.925649166107178,-0.768538773059845,34.9273681640625,-46.9970703125,61.5692138671875
18.3699999,6.751648902893066,-5.904101371765137,-0.828393816947937,34.515380859375,-41.1224365234375,57.8155517578125
18.3899999,6.710947513580322,-5.796362400054932,-0.8667010068893433,32.71484375,-35.2630615234375,54.595947265625
18.409999900000003,6.696582317352295,-5.731719017028809,-0.8978256583213806,29.5257568359375,-32.318115234375,52.9632568359375
18.429999900000002,6.708553314208984,-5.731719017028809,-0.9600749015808105,25.6805419921875,-33.1268310546875,53.985595703125
18.4499999,6.744466304779053,-5.7556610107421875,-1.0199298858642578,21.66748046875,-32.989501953125,58.4716796875
18.4699999,6.660669326782227,-5.942408561706543,-1.1420341730117798,17.0440673828125,-29.11376953125,64.208984375
18.4899999,6.586448669433594,-6.100425720214844,-1.2473790645599365,11.993408203125,-26.0009765625,70.00732421875
18.5099999,6.299144744873047,-6.440402507781982,-1.41257905960083,9.1400146484375,-27.191162109375,76.0498046875
18.5299999,5.954379558563232,-6.785167694091797,-1.6089035272598267,9.33837890625,-32.5164794921875,80.810546875
18.5499999,5.52821159362793,-7.141903877258301,-1.7836803197860718,11.71875,-32.8826904296875,78.43017578125
18.5699999,5.099649429321289,-7.46033239364624,-1.941697597503662,14.129638671875,-29.632568359375,72.1435546875
18.589999900000002,4.778826713562012,-7.711723804473877,-2.032677173614502,15.5181884765625,-28.9306640625,68.8323974609375
18.609999900000002,4.537012100219727,-7.965508937835693,-2.0638017654418945,16.6168212890625,-28.50341796875,70.5108642578125
18.6299999,4.4077253341674805,-8.221688270568848,-2.0446481704711914,17.4102783203125,-24.6429443359375,75.6378173828125
18.6499999,4.2975921630859375,-8.44434928894043,-1.9776105880737305,16.9219970703125,-20.3704833984375,78.8726806640625
18.6699999,4.1395745277404785,-8.683769226074219,-1.9129672050476074,15.3656005859375,-20.6298828125,80.1544189453125
18.6899999,3.9001545906066895,-8.856152534484863,-1.843535304069519,15.716552734375,-23.6663818359375,80.5206298828125
18.7099999,3.6176388263702393,-9.071630477905273,-1.764526605606079,17.5018310546875,-21.2860107421875,78.3233642578125
18.7299999,3.3207578659057617,-9.215282440185547,-1.659181833267212,17.1966552734375,-14.4805908203125,73.66943359375
18.749999900000002,3.0861260890960693,-9.344569206237793,-1.5298948287963867,14.5721435546875,-10.19287109375,68.3441162109375
18.769999900000002,2.935291290283203,-9.411606788635254,-1.3407529592514038,12.3291015625,-10.894775390625,64.971923828125
18.7899999,2.82515811920166,-9.497797966003418,-1.1563993692398071,10.43701171875,-15.167236328125,64.14794921875
18.8099999,2.8371291160583496,-9.488221168518066,-0.9409212470054626,7.354736328125,-14.9383544921875,62.1795654296875
18.8299999,2.8227639198303223,-9.583989143371582,-0.7637503147125244,3.204345703125,-12.87841796875,60.8978271484375
18.8499999,2.8227639198303223,-9.643844604492188,-0.608127236366272,1.3885498046875,-12.542724609375,61.70654296875
18.8699999,2.7317841053009033,-9.761159896850586,-0.5123591423034668,2.6092529296875,-13.5345458984375,61.1572265625
18.8899999,2.5546131134033203,-9.86889934539795,-0.42377370595932007,3.1890869140625,-16.204833984375,58.0596923828125
18.909999900000003,2.2816741466522217,-9.974244117736816,-0.3232172429561615,0.3204345703125,-17.730712890625,52.459716796875
18.929999900000002,1.9752163887023926,-10.098742485046387,-0.26096799969673157,-3.5552978515625,-21.636962890625,45.745849609375
18.9499999,1.7549498081207275,-10.105925559997559,-0.15562310814857483,-5.462646484375,-27.679443359375,41.046142578125
18.9699999,1.5418659448623657,-10.259154319763184,-0.1604115068912506,-5.7830810546875,-34.48486328125,38.8946533203125
18.9899999,1.5083470344543457,-10.201693534851074,-0.12689268589019775,-6.103515625,-40.191650390625,37.872314453125
19.0099999,1.403002142906189,-10.342951774597168,-0.2082955539226532,-6.591796875,-43.5791015625,36.834716796875
19.0299999,1.3192051649093628,-10.376470565795898,-0.24899697303771973,-6.9732666015625,-46.20361328125,34.576416015625
19.0499999,1.1252747774124146,-10.500968933105469,-0.40940847992897034,-6.103515625,-48.4619140625,29.3121337890625
19.0699999,0.9313444495201111,-10.589553833007812,-0.5602431893348694,-4.058837890625,-52.8717041015625,21.820068359375
19.089999900000002,0.7757213711738586,-10.642226219177246,-0.6967126727104187,-2.2125244140625,-56.4727783203125,14.404296875
19.109999900000002,0.7254431247711182,-10.711658477783203,-0.8331822156906128,-3.0670166015625,-55.9844970703125,9.6893310546875
19.1299999,0.7565677165985107,-10.848128318786621,-0.8882488012313843,-6.439208984375,-51.45263671875,10.55908203125
19.1499999,0.8379706144332886,-11.039664268493652,-0.9002198576927185,-9.46044921875,-48.5382080078125,16.9830322265625
19.1699999,0.8451532125473022,-11.283872604370117,-0.9409212470054626,-9.9945068359375,-46.875,23.5595703125
19.1899999,0.7230489253997803,-11.568782806396484,-0.9816226959228516,-7.2479248046875,-43.88427734375,26.397705078125
19.2099999,0.4596867263317108,-11.796232223510742,-1.0654197931289673,-1.739501953125,-43.3502197265625,26.3519287109375
19.2299999,0.10773907601833344,-12.02607536315918,-1.1563993692398071,6.5460205078125,-44.525146484375,25.87890625
19.249999900000002,-0.29209262132644653,-12.172121047973633,-1.235408067703247,16.571044921875,-48.919677734375,24.688720703125
19.269999900000002,-0.6847416758537292,-12.22000503540039,-1.2689268589019775,26.611328125,-53.6651611328125,19.012451171875
19.2899999,-0.9744400978088379,-12.097901344299316,-1.1971008777618408,34.8968505859375,-55.11474609375,7.537841796875
19.3099999,-1.115697979927063,-11.805809020996094,-1.0079588890075684,39.8101806640625,-55.084228515625,-5.2947998046875
19.3299999,-1.091755986213684,-11.461043357849121,-0.7206547260284424,40.0848388671875,-57.8765869140625,-11.23046875
19.3499999,-0.871489405632019,-11.135432243347168,-0.33039984107017517,36.2091064453125,-59.5703125,-8.48388671875
19.3699999,-0.6631938815116882,-10.898406028747559,0.0454898327589035,29.2510986328125,-60.4248046875,-1.4801025390625
19.3899999,-0.5554547905921936,-10.8720703125,0.38546648621559143,21.17919921875,-58.4259033203125,3.8909912109375
19.409999900000003,-0.6009446382522583,-10.8505220413208,0.6272808313369751,13.8397216796875,-54.595947265625,3.509521484375
19.429999900000002,-0.9313444495201111,-10.948684692382812,0.6943184733390808,7.9345703125,-50.5218505859375,-1.9989013671875
19.4499999,-1.3407529592514038,-11.003750801086426,0.6248866319656372,4.5623779296875,-49.9420166015625,-12.2222900390625
19.4699999,-1.7980455160140991,-10.977415084838867,0.42616790533065796,3.7841796875,-51.2237548828125,-28.0609130859375
19.4899999,-2.078166961669922,-10.886435508728027,0.22026655077934265,4.547119140625,-51.3153076171875,-45.5169677734375
19.5099999,-2.056619167327881,-10.682928085327148,0.0933738648891449,4.913330078125,-52.4139404296875,-56.7779541015625
19.5299999,-1.7597382068634033,-10.527304649353027,0.016759412363171577,3.35693359375,-53.497314453125,-58.0596923828125
19.5499999,-1.1971008777618408,-10.335768699645996,0.05506663769483566,0.244140625,-52.0172119140625,-53.8177490234375
19.5699999,-0.6153098344802856,-10.307038307189941,0.07422025501728058,-2.4261474609375,-47.454833984375,-49.5758056640625
19.589999900000002,-0.08140286058187485,-10.213664054870605,0.12210428714752197,-3.0670166015625,-42.4652099609375,-47.6226806640625
19.609999900000002,0.24181437492370605,-10.230423927307129,0.1149216815829277,-1.3580322265625,-38.116455078125,-48.6907958984375
19.6299999,0.4405331015586853,-10.230423927307129,0.09576806426048279,1.1444091796875,-37.078857421875,-51.513671875
19.6499999,0.5171475410461426,-10.266336441040039,0.0454898327589035,3.692626953125,-33.9202880859375,-55.1605224609375
19.6699999,0.5482721924781799,-10.316615104675293,-0.038307227194309235,5.6304931640625,-30.853271484375,-57.80029296875
19.6899999,0.6440402865409851,-10.347740173339844,-0.08619125932455063,6.7291259765625,-28.4271240234375,-60.05859375
19.7099999,0.7158663272857666,-10.457873344421387,-0.16998831927776337,6.744384765625,-27.2369384765625,-62.92724609375
19.7299999,0.8858546018600464,-10.491392135620117,-0.15562310814857483,5.9661865234375,-24.078369140625,-65.826416015625
19.749999900000002,1.0821791887283325,-10.579977035522461,-0.15322890877723694,5.2947998046875,-18.096923828125,-68.3135986328125
19.769999900000002,1.2856862545013428,-10.625467300415039,-0.10295066982507706,5.2947998046875,-10.25390625,-69.9615478515625
19.7899999,1.53707754611969,-10.577583312988281,-0.06464344263076782,5.218505859375,-7.99560546875,-71.4111328125
19.8099999,1.7764976024627686,-10.553641319274902,-0.05746084079146385,4.57763671875,-9.58251953125,-73.9898681640625
19.8299999,2.1308395862579346,-10.438719749450684,-0.035913024097681046,3.082275390625,-10.1165771484375,-75.8514404296875
19.8499999,2.5929205417633057,-10.333374977111816,0,1.3580322265625,-5.5084228515625,-75.74462890625
19.8699999,3.1268274784088135,-10.299856185913086,0.05267243832349777,-0.1220703125,-0.213623046875,-72.4029541015625
19.8899999,3.6942532062530518,-10.211270332336426,0.12449848651885986,-1.5869140625,0.8087158203125,-68.0999755859375
19.909999900000003,4.168305397033691,-10.170568466186523,0.17717093229293823,-1.9683837890625,1.434326171875,-63.4307861328125
19.929999900000002,4.431667327880859,-10.110713958740234,0.14604631066322327,0.152587890625,2.410888671875,-57.8155517578125
19.9499999,4.520252704620361,-9.964667320251465,0.07661445438861847,5.5084228515625,-0.7476806640625,-54.0618896484375
19.9699999,4.350264549255371,-9.84256362915039,-0.09816227108240128,12.603759765625,-7.2021484375,-53.77197265625
19.9899999,3.9695863723754883,-9.6989107131958,-0.3256114423274994,19.9127197265625,-13.824462890625,-54.99267578125
20.0099999,3.507505416870117,-9.440337181091309,-0.5195417404174805,26.7181396484375,-16.78466796875,-60.4095458984375
20.0299999,3.043030261993408,-9.208099365234375,-0.6871358752250671,31.829833984375,-14.007568359375,-70.465087890625
20.0499999,2.7533318996429443,-8.83939266204834,-0.7350199222564697,33.905029296875,-8.514404296875,-80.4595947265625
20.0699999,2.734178304672241,-8.44195556640625,-0.6536170840263367,33.447265625,-2.86865234375,-82.5347900390625
20.089999900000002,2.9448680877685547,-8.04930591583252,-0.5147533416748047,31.524658203125,-4.425048828125,-77.6824951171875
20.109999900000002,3.3494882583618164,-7.65186882019043,-0.2968810200691223,29.23583984375,-8.4686279296875,-72.7386474609375
20.1299999,3.866635799407959,-7.280767440795898,-0.07182604819536209,26.42822265625,-9.002685546875,-71.6094970703125
20.1499999,4.381389141082764,-7.005434036254883,0.10773907601833344,22.7508544921875,-5.9051513671875,-70.526123046875
20.1699999,4.869806289672852,-6.732495307922363,0.2346317619085312,18.9361572265625,-3.7994384765625,-64.300537109375
20.1899999,5.262455463409424,-6.495469093322754,0.272938996553421,15.93017578125,-5.9814453125,-56.2286376953125
