# Time (seconds),Accel_X,Accel_Y,Accel_Z,Gyro_X,Gyro_Y,Gyro_Z
0.0099999,-9.859322547912598,0.608127236366272,0.15562310814857483,-10.650634765625,-5.2642822265625,3.6163330078125
0.029999900000000003,-9.885659217834473,0.6967126727104187,0.24899697303771973,-11.6424560546875,-6.4544677734375,8.5906982421875
0.0499999,-9.955090522766113,0.7637503147125244,0.3687070608139038,-12.4359130859375,-16.29638671875,14.1143798828125
0.0699999,-10.034099578857422,0.7709329724311829,0.5267243981361389,-11.0015869140625,-20.751953125,19.195556640625
0.08999990000000001,-10.038887977600098,0.7637503147125244,0.6847416758537292,-7.6751708984375,-16.0064697265625,19.4091796875
0.10999990000000001,-9.967061996459961,0.768538773059845,0.8092401623725891,-3.8909912109375,-4.669189453125,10.0555419921875
0.1299999,-9.852140426635742,0.7948749661445618,0.8619126081466675,-1.373291015625,3.0364990234375,-1.7547607421875
0.14999990000000002,-9.732429504394531,0.8475474119186401,0.8451532125473022,-2.197265625,-5.0201416015625,-4.39453125
0.1699999,-9.555258750915527,0.8810662031173706,0.7924807667732239,-4.241943359375,-14.7705078125,-1.3427734375
0.1899999,-9.593565940856934,0.849941611289978,0.7158663272857666,-3.509521484375,-2.44140625,0.1373291015625
0.20999990000000002,-9.543288230895996,0.751779317855835,0.6991068720817566,-1.8768310546875,5.8441162109375,-4.0283203125
0.2299999,-9.751583099365234,0.6823474764823914,0.6799532771110535,-2.74658203125,2.1820068359375,-2.0294189453125
0.2499999,-9.895236015319824,0.6057330369949341,0.6607996821403503,-2.74658203125,4.4708251953125,1.129150390625
0.2699999,-10.067618370056152,0.629675030708313,0.6105214357376099,-1.7852783203125,4.486083984375,3.90625
0.28999990000000003,-10.120290756225586,0.730231523513794,0.5195417404174805,-1.89208984375,2.6702880859375,7.110595703125
0.3099999,-10.134655952453613,0.8643068075180054,0.4213795065879822,-3.204345703125,1.0223388671875,2.74658203125
0.3299999,-10.08198356628418,1.0103530883789062,0.3519476354122162,-3.5247802734375,-0.6866455078125,-0.1983642578125
0.34999990000000003,-10.017339706420898,1.1228805780410767,0.33039984107017517,-2.777099609375,-1.953125,-0.2899169921875
0.3699999,-9.96945571899414,1.161187767982483,0.3423708379268646,-1.983642578125,-3.2958984375,-1.6632080078125
0.3899999,-9.943120002746582,1.113303780555725,0.3926490843296051,-0.9002685546875,-4.119873046875,-3.692626953125
0.40999990000000003,-9.916783332824707,0.993593692779541,0.48602294921875,1.434326171875,-4.4403076171875,-2.9449462890625
0.4299999,-9.911994934082031,0.8236053586006165,0.6200982332229614,3.35693359375,-3.662109375,-1.3275146484375
0.4499999,-9.90241813659668,0.629675030708313,0.7374141216278076,3.8909912109375,-2.0751953125,0.1983642578125
0.4699999,-9.907206535339355,0.5099649429321289,0.8236053586006165,5.523681640625,-1.861572265625,1.6326904296875
0.4899999,-9.909601211547852,0.5219359993934631,0.9265560507774353,7.7972412109375,-2.0294189453125,2.6092529296875
0.5099999,-9.885659217834473,0.6416460275650024,1.0127472877502441,5.462646484375,1.15966796875,2.685546875
0.5299999,-9.86889934539795,0.8307880163192749,1.1013327836990356,0.030517578125,6.134033203125,-0.18310546875
0.5499999,-9.84256362915039,0.9648633003234863,1.115697979927063,-3.631591796875,8.8653564453125,-1.1749267578125
0.5699999,-9.84495735168457,1.0247182846069336,1.0414776802062988,-3.936767578125,8.270263671875,0.3509521484375
0.5899998999999999,-9.876082420349121,0.950498104095459,0.8355764150619507,-3.2958984375,6.6375732421875,1.1444091796875
0.6099998999999999,-9.943120002746582,0.8068459630012512,0.5410895943641663,-0.4119873046875,4.2877197265625,1.800537109375
0.6299999,-10.019734382629395,0.646434485912323,0.23702596127986908,6.2713623046875,-0.9918212890625,3.936767578125
0.6499999,-10.067618370056152,0.5626373887062073,0.023942016065120697,11.3067626953125,-7.3394775390625,6.0577392578125
0.6699999,-10.08437728881836,0.5674257874488831,-0.09816227108240128,8.11767578125,-9.735107421875,5.8441162109375
0.6899999,-10.041281700134277,0.7015010714530945,-0.09576806426048279,2.7313232421875,-9.6893310546875,4.058837890625
0.7099999,-9.99100399017334,0.8954314589500427,0.06224924325942993,0.6256103515625,-11.3067626953125,4.4403076171875
0.7299998999999999,-9.928754806518555,1.0319008827209473,0.23942017555236816,-0.701904296875,-12.6800537109375,5.096435546875
0.7499998999999999,-9.93593692779541,1.1755530834197998,0.4381389021873474,-0.30517578125,-12.9241943359375,4.3792724609375
0.7699999,-9.919178009033203,1.194706678390503,0.5746083855628967,5.5694580078125,-16.845703125,2.777099609375
0.7899999,-9.93593692779541,1.259350061416626,0.7230489253997803,13.24462890625,-20.93505859375,1.4495849609375
0.8099999,-9.888052940368652,1.278503656387329,0.9313444495201111,13.336181640625,-20.5841064453125,-2.471923828125
0.8299999,-9.785101890563965,1.314416766166687,1.1994950771331787,6.6680908203125,-13.9007568359375,-6.3934326171875
0.8499998999999999,-9.727641105651855,1.2713210582733154,1.5490485429763794,-0.335693359375,-4.791259765625,-6.072998046875
0.8699998999999999,-9.576807022094727,1.2665326595306396,1.9584569931030273,-7.781982421875,2.9754638671875,-3.021240234375
0.8899999,-9.57201862335205,1.1444283723831177,2.2002713680267334,-18.0511474609375,11.16943359375,3.3721923828125
0.9099999,-9.524134635925293,1.05105459690094,2.3702597618103027,-23.4222412109375,17.4102783203125,2.3345947265625
0.9299999,-9.68933391571045,0.768538773059845,1.9321208000183105,-24.7344970703125,25.0396728515625,3.4942626953125
0.9499999,-9.86650562286377,0.6033388376235962,1.37906014919281,-11.260986328125,15.289306640625,3.9520263671875
0.9699998999999999,-9.964667320251465,0.5363011956214905,0.7254431247711182,0.8392333984375,10.498046875,4.0435791015625
0.9899998999999999,-10.079588890075684,0.545877993106842,0.16759411990642548,2.960205078125,9.3994140625,1.3580322265625
1.0099999,-10.113107681274414,0.727837324142456,-0.17238251864910126,-0.4425048828125,7.171630859375,1.3275146484375
1.0299999,-10.11789608001709,0.9433154463768005,-0.35434186458587646,3.3416748046875,0.732421875,-2.716064453125
1.0499999,-10.093954086303711,1.1803414821624756,-0.31124621629714966,10.1776123046875,-6.3934326171875,-0.6866455078125
1.0699999,-10.053253173828125,1.3527239561080933,-0.023942016065120697,2.44140625,-5.2032470703125,1.2664794921875
1.0899999,-9.99339771270752,1.3742717504501343,0.272938996553421,-15.869140625,0.152587890625,2.3193359375
1.1099999,-9.907206535339355,1.2832920551300049,0.6368576288223267,-18.096923828125,-0.701904296875,0.79345703125
1.1299999,-9.952696800231934,1.0462661981582642,0.7637503147125244,-3.90625,-4.425048828125,-3.5400390625
1.1499999,-9.93354320526123,0.8259995579719543,0.7398083209991455,14.617919921875,-11.71875,-4.0283203125
1.1699998999999999,-9.95748519897461,0.6560112833976746,0.5841852426528931,25.69580078125,-13.5955810546875,-2.0599365234375
1.1899998999999999,-9.983820915222168,0.6823474764823914,0.5339069962501526,28.106689453125,-13.946533203125,-2.8839111328125
1.2099999,-9.883264541625977,0.811634361743927,0.569819986820221,22.308349609375,-13.00048828125,-1.40380859375
1.2299999,-9.856928825378418,1.0534487962722778,0.8834604024887085,11.260986328125,-10.43701171875,-0.6561279296875
1.2499999,-9.782708168029785,1.2282254695892334,1.2306196689605713,-7.6446533203125,-4.1351318359375,0.7171630859375
1.2699999,-9.758766174316406,1.2856862545013428,1.4652514457702637,-21.0418701171875,4.33349609375,2.1820068359375
1.2899999,-9.763554573059082,1.1899182796478271,1.5825673341751099,-12.939453125,0.1983642578125,0.9765625
1.3099999,-9.797073364257812,1.0199298858642578,1.4987702369689941,-0.3204345703125,-2.777099609375,-2.4566650390625
1.3299999,-9.804255485534668,0.8451532125473022,1.3048399686813354,8.0413818359375,-2.1209716796875,-3.326416015625
1.3499999,-9.8784761428833,0.7493851184844971,1.139639973640442,13.36669921875,1.5106201171875,-2.410888671875
1.3699999,-9.84256362915039,0.8619126081466675,1.0678139925003052,14.95361328125,0.6866455078125,-1.556396484375
1.3899999,-9.883264541625977,1.01753568649292,1.0271124839782715,6.5765380859375,1.3427734375,-0.823974609375
1.4099999,-9.818621635437012,1.2114660739898682,1.072602391242981,-5.828857421875,4.1046142578125,-1.7547607421875
1.4299998999999999,-9.825803756713867,1.3335703611373901,1.0869675874710083,-10.101318359375,8.5296630859375,-2.62451171875
1.4499999,-9.821015357971191,1.3120225667953491,1.1180921792984009,-6.6070556640625,3.4942626953125,-0.823974609375
1.4699999,-9.797073364257812,1.1683704853057861,1.0630255937576294,-9.09423828125,2.0751953125,-2.3956298828125
1.4899999,-9.861717224121094,1.0103530883789062,1.0319008827209473,-10.955810546875,4.486083984375,-4.9896240234375
1.5099999,-9.787496566772461,0.9145850539207458,1.137245774269104,-13.916015625,7.3699951171875,-4.547119140625
1.5299999,-9.792284965515137,0.8571242094039917,1.161187767982483,-22.979736328125,14.373779296875,-2.532958984375
1.5499999,-9.77791976928711,0.8331822156906128,1.216254472732544,-27.28271484375,18.98193359375,1.8768310546875
1.5699999,-9.84495735168457,0.7254431247711182,1.0271124839782715,-20.0347900390625,16.6473388671875,2.6397705078125
1.5899999,-9.950302124023438,0.6440402865409851,0.7805097699165344,-3.936767578125,8.9111328125,2.7618408203125
1.6099999,-10.04846477508545,0.4908113479614258,0.2825157940387726,5.9814453125,1.434326171875,4.8370361328125
1.6299999,-10.160991668701172,0.4692635238170624,-0.08858546614646912,21.148681640625,-10.0555419921875,1.8463134765625
1.6499999,-10.199298858642578,0.5793967843055725,-0.3926490843296051,36.8499755859375,-20.538330078125,-1.9378662109375
1.6699999,-10.201693534851074,0.7254431247711182,-0.40701428055763245,41.3818359375,-25.543212890625,-2.86865234375
1.6899998999999999,-10.105925559997559,1.0247182846069336,-0.11971008777618408,32.6995849609375,-22.1405029296875,-5.3863525390625
1.7099999,-9.998186111450195,1.158793568611145,0.3016694188117981,20.2789306640625,-16.11328125,-5.2642822265625
1.7299999,-9.835380554199219,1.278503656387329,0.768538773059845,19.1192626953125,-16.1285400390625,-4.913330078125
1.7499999,-9.758766174316406,1.3072341680526733,1.2880805730819702,18.8446044921875,-14.6484375,-2.0751953125
1.7699999,-9.641449928283691,1.2976573705673218,1.6615760326385498,4.7454833984375,-8.4228515625,-0.274658203125
1.7899999,-9.660603523254395,1.2689268589019775,2.0207061767578125,-12.1307373046875,3.631591796875,-0.42724609375
1.8099999,-9.624691009521484,1.194706678390503,2.1571757793426514,-21.78955078125,9.0484619140625,1.77001953125
1.8299999,-9.646238327026367,1.0797849893569946,2.0685901641845703,-20.9197998046875,6.927490234375,1.0986328125
1.8499999,-9.797073364257812,0.7757213711738586,1.678335428237915,-10.7421875,2.960205078125,-1.220703125
1.8699999,-9.895236015319824,0.6320692300796509,1.237802267074585,4.1961669921875,-3.082275390625,-0.6561279296875
1.8899999,-10.012551307678223,0.47884035110473633,0.7709329724311829,14.83154296875,-7.4462890625,0.732421875
1.9099999,-10.046070098876953,0.5267243981361389,0.5626373887062073,17.4560546875,-8.6669921875,-0.9002685546875
1.9299998999999999,-10.02691650390625,0.6799532771110535,0.5793967843055725,14.0533447265625,-7.171630859375,-2.4261474609375
1.9499999,-9.923966407775879,0.8882488012313843,0.8092401623725891,7.75146484375,-3.7078857421875,-0.640869140625
1.9699999,-9.849745750427246,1.0654197931289673,1.0821791887283325,1.2664794921875,0,-0.30517578125
1.9899999,-9.81143856048584,1.1851298809051514,1.4197616577148438,-1.8768310546875,-0.1373291015625,0.732421875
2.0099999,-9.710882186889648,1.2473790645599365,1.6304513216018677,-7.293701171875,4.8370361328125,0.6103515625
2.0299999,-9.749189376831055,1.2282254695892334,1.766920804977417,-13.24462890625,10.1318359375,0.213623046875
2.0499999,-9.742006301879883,1.1755530834197998,1.7764976024627686,-13.702392578125,10.6201171875,-0.1678466796875
2.0699999,-9.780313491821289,1.0271124839782715,1.5466543436050415,-6.622314453125,7.1868896484375,-2.105712890625
2.0899999,-9.895236015319824,0.9097966551780701,1.2282254695892334,4.4708251953125,1.1444091796875,-2.777099609375
2.1099999,-9.928754806518555,0.7493851184844971,0.8978256583213806,11.6119384765625,-1.9989013671875,-3.7078857421875
2.1299999,-9.995792388916016,0.7110779285430908,0.6129156351089478,14.068603515625,-4.21142578125,-5.37109375
2.1499999,-9.96945571899414,0.6991068720817566,0.5913678407669067,13.73291015625,-5.706787109375,-5.43212890625
2.1699999,-9.931148529052734,0.751779317855835,0.6224924325942993,9.124755859375,-3.997802734375,-4.8828125
2.1899999,-9.895236015319824,0.790086567401886,0.8307880163192749,5.859375,-2.62451171875,-3.6468505859375
2.2099999,-9.854534149169922,0.8044517636299133,1.0678139925003052,3.6773681640625,-0.946044921875,-0.9765625
2.2299999,-9.890447616577148,0.8595184087753296,1.2641384601593018,-1.007080078125,1.617431640625,1.0223388671875
2.2499999,-9.86650562286377,0.8882488012313843,1.3982137441635132,-5.31005859375,2.685546875,1.9073486328125
2.2699999,-9.861717224121094,0.9696516990661621,1.4939818382263184,-8.97216796875,5.67626953125,-0.030517578125
2.2899999,-9.840168952941895,1.0438719987869263,1.45806884765625,-13.5955810546875,6.5460205078125,-0.06103515625
2.3099999,-9.828198432922363,1.036689281463623,1.3862427473068237,-13.3514404296875,6.6680908203125,-0.152587890625
2.3299999,-9.830592155456543,0.9911994934082031,1.2066776752471924,-7.5531005859375,3.5858154296875,-0.6256103515625
2.3499999,-9.849745750427246,0.8858546018600464,1.0247182846069336,-0.8697509765625,-1.89208984375,-2.7313232421875
2.3699999,-9.90241813659668,0.751779317855835,0.8786720037460327,3.2196044921875,-4.08935546875,-1.64794921875
2.3899999,-9.923966407775879,0.6584054827690125,0.7709329724311829,5.55419921875,-3.7384033203125,-1.953125
2.4099999,-9.959878921508789,0.6033388376235962,0.7829039692878723,7.965087890625,-4.364013671875,-3.265380859375
2.4299999,-9.938331604003906,0.6153098344802856,0.8619126081466675,8.5601806640625,-5.218505859375,-2.3193359375
2.4499999,-9.86889934539795,0.6536170840263367,0.9911994934082031,7.0953369140625,-3.47900390625,-1.8157958984375
2.4699999,-9.86650562286377,0.7134721279144287,1.1659762859344482,6.04248046875,-0.7781982421875,-1.068115234375
2.4899999,-9.801861763000488,0.7972691655158997,1.3551181554794312,2.8839111328125,1.1444091796875,-0.2899169921875
2.5099999,-9.797073364257812,0.8643068075180054,1.4700398445129395,-2.2430419921875,3.7689208984375,2.13623046875
2.5299999,-9.840168952941895,0.9241618514060974,1.5538369417190552,-7.293701171875,6.256103515625,1.1444091796875
2.5499999,-9.780313491821289,0.993593692779541,1.5849615335464478,-10.589599609375,7.8887939453125,1.3275146484375
2.5699999,-9.792284965515137,1.015141487121582,1.5682021379470825,-14.0380859375,8.7738037109375,1.7852783203125
2.5899999,-9.797073364257812,1.0007762908935547,1.4700398445129395,-15.533447265625,9.552001953125,0.762939453125
2.6099999,-9.813833236694336,0.9552865028381348,1.316810965538025,-12.4969482421875,8.5296630859375,-0.06103515625
2.6299999,-9.84256362915039,0.8738836050033569,1.1635819673538208,-9.3841552734375,6.103515625,0.518798828125
2.6499999,-9.90241813659668,0.8140285611152649,1.0582371950149536,-10.528564453125,4.57763671875,0.3204345703125
2.6699999,-9.890447616577148,0.7876923680305481,1.01753568649292,-14.83154296875,7.6446533203125,-0.7476806640625
2.6899999,-9.923966407775879,0.7996633648872375,0.9816226959228516,-19.1497802734375,9.796142578125,-0.2288818359375
2.7099999,-9.911994934082031,0.8379706144332886,0.9361328482627869,-21.05712890625,7.568359375,0.48828125
2.7299999,-9.926360130310059,0.790086567401886,0.8164227604866028,-19.53125,6.8511962890625,-2.1514892578125
2.7499999,-9.938331604003906,0.6775590777397156,0.6320692300796509,-11.1541748046875,2.1209716796875,-3.2501220703125
2.7699999,-9.964667320251465,0.5386953949928284,0.5315127968788147,5.859375,-2.4871826171875,0.244140625
2.7899999,-9.96945571899414,0.38067805767059326,0.42616790533065796,16.7388916015625,-7.354736328125,3.4332275390625
2.8099999,-10.005369186401367,0.40222588181495667,0.48602294921875,14.7857666015625,-6.134033203125,3.021240234375
2.8299999,-9.974244117736816,0.545877993106842,0.6153098344802856,10.772705078125,-7.1868896484375,3.936767578125
2.8499999,-9.950302124023438,0.7422025203704834,0.8259995579719543,7.781982421875,-6.7138671875,0.91552734375
2.8699999,-9.907206535339355,0.9433154463768005,1.0462661981582642,4.974365234375,-6.7901611328125,-1.0833740234375
2.8899999,-9.835380554199219,1.0630255937576294,1.2497732639312744,0.91552734375,-3.4942626953125,0.0152587890625
2.9099999,-9.787496566772461,1.094150185585022,1.4317326545715332,-5.706787109375,1.1749267578125,0.7476806640625
2.9299999,-9.792284965515137,1.0558429956436157,1.4484920501708984,-9.033203125,3.8604736328125,-0.06103515625
2.9499999,-9.818621635437012,0.9672574996948242,1.3503297567367554,-3.2806396484375,0.8544921875,-0.48828125
2.9699999,-9.888052940368652,0.8523358106613159,1.1516109704971313,7.7667236328125,-6.65283203125,-0.67138671875
2.9899999,-9.974244117736816,0.7996633648872375,0.9911994934082031,13.6260986328125,-6.103515625,-0.8392333984375
3.0099999,-9.95748519897461,0.7469909191131592,0.9169792532920837,9.918212890625,-7.293701171875,-0.579833984375
3.0299999,-9.940725326538086,0.811634361743927,1.0749965906143188,2.86865234375,-5.157470703125,-2.7313232421875
3.0499999,-9.871294021606445,0.8523358106613159,1.3024457693099976,-7.26318359375,0.152587890625,-2.25830078125
3.0699999,-9.804255485534668,0.8882488012313843,1.5059528350830078,-15.8843994140625,6.988525390625,-0.6561279296875
3.0899999,-9.799467086791992,0.8906430602073669,1.5969325304031372,-12.7410888671875,8.331298828125,0.2593994140625
3.1099999,-9.780313491821289,0.8643068075180054,1.525106430053711,-2.99072265625,5.0811767578125,-0.6103515625
3.1299999,-9.840168952941895,0.7972691655158997,1.314416766166687,4.9591064453125,4.7607421875,-1.739501953125
3.1499999,-9.864110946655273,0.7565677165985107,1.0797849893569946,10.43701171875,3.35693359375,-2.99072265625
3.1699999,-9.923966407775879,0.7326257228851318,0.9720458984375,12.6495361328125,0.9002685546875,-1.922607421875
3.1899999,-9.931148529052734,0.730231523513794,0.9193734526634216,8.6212158203125,1.6326904296875,-0.18310546875
3.2099999,-9.904812812805176,0.828393816947937,1.0773907899856567,2.5177001953125,4.364013671875,-0.335693359375
3.2299999,-9.84495735168457,0.8978256583213806,1.2856862545013428,-11.444091796875,8.880615234375,0.6866455078125
3.2499999,-9.775525093078613,0.9648633003234863,1.482010841369629,-27.16064453125,16.8304443359375,2.471923828125
3.2699999,-9.787496566772461,0.9145850539207458,1.4867992401123047,-33.4014892578125,19.2108154296875,4.6234130859375
3.2899999,-9.86650562286377,0.7254431247711182,1.1994950771331787,-25.726318359375,12.4969482421875,6.4544677734375
3.3099999,-9.995792388916016,0.48602294921875,0.6991068720817566,-6.3018798828125,2.1820068359375,6.8817138671875
3.3299999000000002,-10.168174743652344,0.2849099934101105,0.16519992053508759,15.6707763671875,-8.697509765625,6.6070556640625
3.3499999,-10.338163375854492,0.24660277366638184,-0.17477671802043915,29.5257568359375,-18.9666748046875,7.32421875
3.3699999,-10.47942066192627,0.36152446269989014,-0.21787235140800476,33.7677001953125,-22.5982666015625,5.7373046875
3.3899999,-10.709263801574707,0.6009446382522583,0.05267243832349777,34.36279296875,-18.3563232421875,7.14111328125
3.4099999,-10.862493515014648,0.8619126081466675,0.4668693244457245,32.012939453125,-13.9617919921875,0.885009765625
3.4299999,-10.934319496154785,1.1348515748977661,0.9696516990661621,29.449462890625,-8.9874267578125,-6.2408447265625
3.4499999,-10.826580047607422,1.256955862045288,1.278503656387329,27.83203125,-13.916015625,-4.9285888671875
3.4699999,-10.491392135620117,1.381454348564148,1.455674648284912,35.5682373046875,-4.08935546875,-7.1258544921875
3.4899999,-10.038887977600098,1.381454348564148,1.4772224426269531,37.322998046875,7.75146484375,-15.6402587890625
3.5099999,-9.531316757202148,1.3407529592514038,1.4245500564575195,23.3917236328125,8.5906982421875,-16.021728515625
3.5299999,-9.08838939666748,1.2737152576446533,1.4173674583435059,6.866455078125,10.986328125,-10.1318359375
3.5499999,-8.741230010986328,1.1420341730117798,1.4269442558288574,-4.974365234375,17.974853515625,-2.0599365234375
3.5699999,-8.607154846191406,0.993593692779541,1.403002142906189,-12.0086669921875,21.8505859375,4.7149658203125
3.5899999,-8.681375503540039,0.8355764150619507,1.314416766166687,-15.3961181640625,20.0347900390625,4.33349609375
3.6099999,-8.913613319396973,0.6751648783683777,1.161187767982483,-16.265869140625,14.4195556640625,-1.1138916015625
3.6299999,-9.217676162719727,0.5482721924781799,0.9720458984375,-13.7786865234375,6.683349609375,-4.6234130859375
3.6499999,-9.469067573547363,0.4668693244457245,0.7996633648872375,-8.4075927734375,-0.30517578125,-6.28662109375
3.6699999,-9.612719535827637,0.42856210470199585,0.689530074596405,-3.2196044921875,-3.570556640625,-6.1492919921875
3.6899999,-9.703699111938477,0.45250412821769714,0.689530074596405,-0.79345703125,-5.31005859375,-0.3814697265625
3.7099999,-9.830592155456543,0.5410895943641663,0.7781155705451965,-1.129150390625,-2.6702880859375,4.852294921875
3.7299999,-9.983820915222168,0.6607996821403503,0.9265560507774353,-2.3040771484375,0.9307861328125,0.2899169921875
3.7499999,-10.127472877502441,0.7829039692878723,1.072602391242981,-3.11279296875,2.410888671875,-7.659912109375
3.7699999,-10.201693534851074,0.8858546018600464,1.158793568611145,-2.9449462890625,3.7078857421875,-8.0108642578125
3.7899999,-10.108319282531738,0.9624691009521484,1.1899182796478271,-2.0904541015625,2.1514892578125,-2.4566650390625
3.8099999,-9.861717224121094,0.9959878921508789,1.161187767982483,-1.617431640625,1.220703125,3.662109375
3.8299999000000002,-9.57441234588623,1.0342950820922852,1.1085153818130493,-2.7313232421875,0.946044921875,10.955810546875
3.8499999,-9.667786598205566,1.048660397529602,1.0630255937576294,-5.18798828125,-1.3885498046875,11.444091796875
3.8699999,-9.691728591918945,1.0678139925003052,1.0103530883789062,-7.598876953125,-4.8828125,-7.50732421875
3.8899999,-10.120290756225586,1.072602391242981,0.9361328482627869,-7.2479248046875,1.220703125,-7.3089599609375
3.9099999,-10.309432983398438,1.0414776802062988,0.828393816947937,-4.425048828125,3.47900390625,3.570556640625
3.9299999,-10.376470565795898,1.0342950820922852,0.689530074596405,-2.5787353515625,0.6103515625,2.7618408203125
3.9499999,-10.309432983398438,0.9816226959228516,0.5626373887062073,-0.1678466796875,-2.50244140625,-1.9073486328125
3.9699999,-10.156203269958496,0.9265560507774353,0.4908113479614258,2.1820068359375,-4.852294921875,-2.50244140625
3.9899999,-10.036493301391602,0.8882488012313843,0.4908113479614258,3.509521484375,-6.5460205078125,-1.190185546875
4.0099999,-9.955090522766113,0.8475474119186401,0.569819986820221,2.3040771484375,-7.5225830078125,-1.556396484375
4.029999900000001,-9.916783332824707,0.8451532125473022,0.730231523513794,-1.0986328125,-7.415771484375,-1.7852783203125
4.0499999,-9.892841339111328,0.8810662031173706,0.9385270476341248,-7.3089599609375,-5.06591796875,-0.091552734375
4.069999900000001,-9.864110946655273,0.8738836050033569,1.194706678390503,-15.56396484375,-0.9918212890625,1.220703125
4.0899999000000005,-9.830592155456543,0.8068459630012512,1.4221558570861816,-20.4315185546875,3.173828125,1.7852783203125
4.1099999,-9.804255485534668,0.6584054827690125,1.5873557329177856,-19.3328857421875,6.40869140625,4.974365234375
4.1299999000000005,-9.813833236694336,0.4884171485900879,1.6376339197158813,-16.326904296875,8.5906982421875,8.8043212890625
4.1499999,-9.81143856048584,0.3495534360408783,1.5634137392044067,-13.763427734375,9.1094970703125,9.82666015625
4.1699999000000005,-9.847352027893066,0.3663128614425659,1.403002142906189,-11.688232421875,9.4757080078125,11.1236572265625
4.1899999,-9.86650562286377,0.4884171485900879,1.1803414821624756,-10.528564453125,9.307861328125,10.894775390625
4.209999900000001,-9.974244117736816,0.689530074596405,0.9576807022094727,-10.9405517578125,6.4849853515625,7.537841796875
4.2299999,-10.010157585144043,0.8738836050033569,0.768538773059845,-11.444091796875,-2.74658203125,-5.035400390625
4.249999900000001,-9.888052940368652,0.9433154463768005,0.667982280254364,-9.5977783203125,-10.2996826171875,-16.0675048828125
4.2699999,-9.895236015319824,1.05105459690094,0.6536170840263367,-5.0048828125,-2.5177001953125,-11.2152099609375
4.289999900000001,-9.746794700622559,0.9888052940368652,0.6823474764823914,-1.556396484375,4.5013427734375,3.082275390625
4.3099999,-9.763554573059082,1.0797849893569946,0.7565677165985107,-2.8228759765625,3.692626953125,9.429931640625
4.329999900000001,-9.854534149169922,1.091755986213684,0.7805097699165344,-3.326416015625,1.46484375,3.143310546875
4.3499999,-9.9000244140625,1.1180921792984009,0.7493851184844971,-0.885009765625,-0.0152587890625,-0.91552734375
4.369999900000001,-9.93354320526123,1.115697979927063,0.6847416758537292,3.143310546875,-2.5177001953125,0.48828125
4.3899999,-10.034099578857422,1.091755986213684,0.6440402865409851,5.8441162109375,-6.2103271484375,-0.1678466796875
4.409999900000001,-9.998186111450195,1.039083480834961,0.6057330369949341,6.3323974609375,-8.4228515625,-2.899169921875
4.4299999,-10.06043529510498,0.9026140570640564,0.6512228846549988,7.75146484375,-8.9874267578125,-3.4637451171875
4.449999900000001,-9.952696800231934,0.8044517636299133,0.8212111592292786,6.1492919921875,-8.2244873046875,3.2806396484375
4.4699999,-9.885659217834473,0.7230489253997803,1.0630255937576294,-1.739501953125,-5.5999755859375,2.9144287109375
4.489999900000001,-9.794678688049316,0.7565677165985107,1.3263877630233765,-9.3994140625,0.3662109375,2.3956298828125
4.5099999,-9.742006301879883,0.8690952062606812,1.5059528350830078,-9.735107421875,3.875732421875,1.7547607421875
4.529999900000001,-9.734824180603027,0.9959878921508789,1.599326729774475,-5.2490234375,3.204345703125,-0.48828125
4.5499999,-9.734824180603027,1.0749965906143188,1.5921441316604614,-4.1351318359375,4.33349609375,-0.885009765625
4.569999900000001,-9.763554573059082,1.0797849893569946,1.5418659448623657,-4.547119140625,8.3465576171875,-1.46484375
4.5899999000000005,-9.797073364257812,1.0319008827209473,1.45806884765625,-3.1585693359375,10.0860595703125,-2.5634765625
4.609999900000001,-9.816226959228516,0.9864110946655273,1.3527239561080933,-2.166748046875,9.307861328125,-1.190185546875
4.6299999000000005,-9.84495735168457,0.9648633003234863,1.194706678390503,-3.7841796875,9.3231201171875,-1.373291015625
4.6499999,-9.890447616577148,0.9433154463768005,0.993593692779541,-3.7841796875,9.5977783203125,-3.936767578125
4.6699999000000005,-9.926360130310059,0.8810662031173706,0.7948749661445618,-1.953125,7.14111328125,-3.60107421875
4.6899999,-9.919178009033203,0.7613561153411865,0.6775590777397156,-16.17431640625,7.232666015625,0.3204345703125
4.709999900000001,-9.861717224121094,0.6991068720817566,0.6847416758537292,-23.040771484375,11.6729736328125,0.48828125
4.7299999,-9.861717224121094,0.6368576288223267,0.7230489253997803,-21.2860107421875,8.1787109375,2.716064453125
4.749999900000001,-9.911994934082031,0.5386953949928284,0.5770025849342346,-14.8162841796875,2.1514892578125,7.9345703125
4.7699999,-9.967061996459961,0.507570743560791,0.35673606395721436,-5.1727294921875,-5.6304931640625,11.4288330078125
4.789999900000001,-10.105925559997559,0.38067805767059326,0.13168109953403473,11.260986328125,-15.7623291015625,5.401611328125
4.8099999,-10.08198356628418,0.5363011956214905,0.016759412363171577,22.4456787109375,-21.91162109375,0.152587890625
4.829999900000001,-10.050858497619629,0.706289529800415,0.15322890877723694,20.4315185546875,-19.6533203125,4.5166015625
4.8499999,-9.890447616577148,1.1276689767837524,0.6009446382522583,9.3231201171875,-13.092041015625,3.021240234375
4.869999900000001,-9.742006301879883,1.4844050407409668,1.237802267074585,-5.859375,-3.448486328125,3.8909912109375
4.8899999,-9.524134635925293,1.8770540952682495,2.099714994430542,-23.223876953125,2.899169921875,0.7781982421875
4.909999900000001,-9.452308654785156,1.9632453918457031,2.889801502227783,-47.66845703125,17.7154541015625,-10.6201171875
4.9299999,-9.27034854888916,1.9800047874450684,3.3710360527038574,-63.5528564453125,42.1142578125,-10.4522705078125
4.949999900000001,-9.361329078674316,1.699883222579956,3.3470940589904785,-60.272216796875,54.229736328125,0.6866455078125
4.9699999,-9.476250648498535,1.2425906658172607,2.652775526046753,-45.806884765625,50.445556640625,-1.708984375
4.989999900000001,-9.710882186889648,0.6991068720817566,1.4772224426269531,-19.7906494140625,31.0821533203125,-1.0986328125
5.0099999,-10.02452278137207,0.15083470940589905,0.2968810200691223,7.1868896484375,19.134521484375,-3.4027099609375
5.029999900000001,-10.220847129821777,-0.22505496442317963,-0.7829039692878723,18.0816650390625,16.3421630859375,-3.265380859375
5.0499999,-10.323798179626465,-0.19393034279346466,-1.3239935636520386,25.5889892578125,2.7008056640625,3.387451171875
5.069999900000001,-10.409989356994629,-0.043095629662275314,-1.5394717454910278,21.1029052734375,1.2054443359375,10.284423828125
5.0899999000000005,-10.319009780883789,0.395043283700943,-1.4173674583435059,13.6566162109375,-7.9345703125,8.36181640625
5.109999900000001,-10.319009780883789,0.7565677165985107,-1.0797849893569946,17.1661376953125,-19.8211669921875,-3.72314453125
5.1299999000000005,-10.170568466186523,1.0223240852355957,-0.730231523513794,24.8870849609375,-17.7764892578125,-4.974365234375
5.1499999,-10.055646896362305,1.2330138683319092,-0.3256114423274994,31.768798828125,-19.4091796875,-0.732421875
5.1699999000000005,-9.950302124023438,1.3192051649093628,0.06464344263076782,29.0069580078125,-21.0418701171875,0.3204345703125
5.1899999,-9.897629737854004,1.3024457693099976,0.4596867263317108,18.218994140625,-20.538330078125,1.0528564453125
5.209999900000001,-9.854534149169922,1.3287819623947144,0.8403648138046265,12.3291015625,-23.74267578125,-5.2337646484375
5.2299999,-9.84495735168457,1.1563993692398071,1.0654197931289673,6.866455078125,-17.669677734375,-10.2996826171875
5.249999900000001,-9.821015357971191,1.0414776802062988,1.1994950771331787,4.0740966796875,-10.8184814453125,-3.0364990234375
5.2699999,-9.780313491821289,0.9050082564353943,1.335964560508728,2.1209716796875,-9.674072265625,2.1514892578125
5.289999900000001,-9.801861763000488,0.8020575642585754,1.3670891523361206,-6.072998046875,-6.7138671875,2.9296875
5.3099999,-9.847352027893066,0.7206547260284424,1.403002142906189,-6.40869140625,-9.3231201171875,1.617431640625
5.329999900000001,-9.799467086791992,0.7038952708244324,1.4293384552001953,0.0762939453125,-8.056640625,-2.38037109375
5.3499999,-9.818621635437012,0.6967126727104187,1.3503297567367554,-1.2054443359375,-2.2430419921875,-4.0283203125
5.369999900000001,-9.770736694335938,0.7206547260284424,1.359906554222107,-1.1444091796875,2.288818359375,1.9683837890625
5.3899999,-9.780313491821289,0.8427590131759644,1.2880805730819702,-0.2899169921875,2.8533935546875,4.7149658203125
5.409999900000001,-9.883264541625977,0.8882488012313843,1.3239935636520386,-1.3885498046875,3.3416748046875,2.9754638671875
5.4299999,-9.9000244140625,1.0342950820922852,1.2545616626739502,0.4730224609375,-1.3427734375,0.30517578125
5.449999900000001,-9.93593692779541,1.070208191871643,1.292868971824646,5.37109375,1.983642578125,-4.241943359375
5.4699999,-9.995792388916016,0.9816226959228516,0.9888052940368652,12.5732421875,6.011962890625,-9.2315673828125
5.489999900000001,-10.041281700134277,0.9528923034667969,0.6655880808830261,37.872314453125,-6.53076171875,-8.9263916015625
5.5099999,-10.113107681274414,0.8595184087753296,0.3232172429561615,57.3577880859375,-19.134521484375,-8.0413818359375
5.529999900000001,-10.11789608001709,0.9169792532920837,0.19632454216480255,51.9561767578125,-20.08056640625,-9.9945068359375
5.5499999,-10.04846477508545,1.0438719987869263,0.5099649429321289,34.698486328125,-12.969970703125,-10.101318359375
5.569999900000001,-9.890447616577148,1.1516109704971313,1.1252747774124146,13.97705078125,-4.3792724609375,-6.2103271484375
5.5899999000000005,-9.828198432922363,1.0079588890075684,1.7310078144073486,-4.608154296875,9.27734375,5.1116943359375
5.609999900000001,-9.830592155456543,0.8858546018600464,2.1978771686553955,-12.359619140625,16.326904296875,4.1046142578125
5.6299999000000005,-10.350133895874023,0.6248866319656372,2.3367409706115723,-9.82666015625,17.4102783203125,-2.655029296875
5.6499999,-10.828974723815918,0.5051765441894531,2.1499931812286377,-2.50244140625,17.8680419921875,-6.89697265625
5.6699999000000005,-11.611878395080566,0.5913678407669067,1.7262194156646729,5.126953125,8.3770751953125,4.4708251953125
5.6899999,-11.987768173217773,0.7589619159698486,1.194706678390503,11.71875,-11.6119384765625,0.2899169921875
5.709999900000001,-11.932701110839844,0.9840168952941895,0.7230489253997803,15.2587890625,-24.7802734375,-10.92529296875
5.7299999,-11.403582572937012,1.1468225717544556,0.4189853072166443,15.960693359375,-24.871826171875,-19.47021484375
5.749999900000001,-10.453084945678711,1.139639973640442,0.3447650372982025,12.359619140625,-22.0489501953125,-23.0560302734375
5.7699999,-9.361329078674316,0.9959878921508789,0.42616790533065796,4.5623779296875,-12.8936767578125,-19.2108154296875
5.789999900000001,-8.346187591552734,0.7422025203704834,0.5674257874488831,-1.5106201171875,2.4871826171875,-12.7410888671875
5.8099999,-7.601590633392334,0.4692635238170624,0.6799532771110535,-8.453369140625,13.5955810546875,-7.2174072265625
5.829999900000001,-7.220912456512451,0.21787235140800476,0.7015010714530945,-9.5062255859375,17.303466796875,-5.31005859375
5.8499999,-7.240066051483154,0.040701430290937424,0.629675030708313,-7.6141357421875,20.904541015625,-3.326416015625
5.869999900000001,-7.599195957183838,-0.06224924325942993,0.5147533416748047,-5.340576171875,22.1405029296875,-1.7852783203125
5.8899999,-8.209717750549316,-0.090979665517807,0.3998316824436188,-1.5716552734375,15.0299072265625,-1.678466796875
5.909999900000001,-8.908824920654297,-0.040701430290937424,0.37828385829925537,1.46484375,3.387451171875,-0.732421875
5.9299999,-9.591172218322754,0.047884032130241394,0.44771572947502136,4.5166015625,2.899169921875,1.15966796875
5.949999900000001,-10.153809547424316,0.1867477297782898,0.6200982332229614,7.0037841796875,8.4991455078125,1.9989013671875
5.9699999,-10.563218116760254,0.3447650372982025,0.8259995579719543,7.8277587890625,11.53564453125,-0.762939453125
5.989999900000001,-10.78587818145752,0.49320554733276367,1.0079588890075684,6.927490234375,7.568359375,-3.9520263671875
6.0099999,-10.836156845092773,0.6129156351089478,1.1540051698684692,4.058837890625,-0.4730224609375,-2.8533935546875
6.029999900000001,-10.733205795288086,0.6871358752250671,1.2521674633026123,0.2288818359375,-6.256103515625,0.1068115234375
6.0499999,-10.488997459411621,0.689530074596405,1.3311761617660522,-2.5177001953125,-11.3677978515625,0.3814697265625
6.069999900000001,-10.187328338623047,0.6512228846549988,1.400607943534851,-4.119873046875,-13.916015625,1.312255859375
6.0899999000000005,-9.923966407775879,0.6129156351089478,1.4508862495422363,-6.0577392578125,-9.6588134765625,3.936767578125
6.109999900000001,-9.734824180603027,0.5889736413955688,1.4772224426269531,-8.4381103515625,-2.4566650390625,3.6163330078125
6.1299999000000005,-9.622296333312988,0.5793967843055725,1.4700398445129395,-9.765625,-0.06103515625,0.7171630859375
6.149999900000001,-9.59596061706543,0.5793967843055725,1.4077905416488647,-10.9100341796875,0.48828125,1.1444091796875
6.1699999000000005,-9.59835433959961,0.5793967843055725,1.3048399686813354,-11.4898681640625,2.593994140625,3.4942626953125
6.1899999,-9.59596061706543,0.5482721924781799,1.1659762859344482,-10.3912353515625,6.622314453125,4.6234130859375
6.209999900000001,-9.610325813293457,0.5291185975074768,1.0247182846069336,-8.4991455078125,5.7525634765625,7.171630859375
6.2299999,-9.952696800231934,0.5267243981361389,0.9193734526634216,-7.2479248046875,2.3651123046875,8.5296630859375
6.249999900000001,-10.196905136108398,0.6009446382522583,0.8212111592292786,-5.7220458984375,1.5716552734375,-4.94384765625
6.2699999,-10.596736907958984,0.5985504388809204,0.7565677165985107,-2.8533935546875,-0.0152587890625,0.9307861328125
6.289999900000001,-10.673351287841797,0.727837324142456,0.7350199222564697,0.42724609375,-0.30517578125,4.7149658203125
6.3099999,-10.563218116760254,0.7637503147125244,0.7445967197418213,1.6021728515625,-1.3427734375,-1.4801025390625
6.329999900000001,-10.307038307189941,0.7876923680305481,0.811634361743927,0.5645751953125,-0.6256103515625,-2.716064453125
6.3499999,-10.055646896362305,0.7709329724311829,0.9002198576927185,-1.8310546875,0.1678466796875,-1.739501953125
6.369999900000001,-9.907206535339355,0.667982280254364,0.9696516990661621,-3.448486328125,0.06103515625,-1.220703125
6.3899999,-9.840168952941895,0.5219359993934631,1.0055646896362305,-4.8828125,0.48828125,0.7171630859375
6.409999900000001,-9.825803756713867,0.37828385829925537,0.9959878921508789,-7.14111328125,0.8544921875,3.570556640625
6.4299999,-9.854534149169922,0.28730419278144836,0.9409212470054626,-7.537841796875,-0.5340576171875,4.8828125
6.449999900000001,-9.890447616577148,0.2561795711517334,0.8930372595787048,-5.157470703125,-2.7923583984375,5.06591796875
6.4699999,-9.914389610290527,0.3064578175544739,0.8451532125473022,-3.997802734375,-3.204345703125,5.92041015625
6.489999900000001,-9.928754806518555,0.4381389021873474,0.8020575642585754,-3.8299560546875,-3.4637451171875,4.94384765625
6.5099999,-9.93354320526123,0.5889736413955688,0.8044517636299133,0.946044921875,-5.9814453125,1.7852783203125
6.529999900000001,-9.904812812805176,0.7254431247711182,0.912190854549408,5.5084228515625,-6.5460205078125,0.7476806640625
6.5499999,-9.864110946655273,0.8858546018600464,1.0295066833496094,2.166748046875,-2.9144287109375,-0.0457763671875
6.569999900000001,-9.847352027893066,0.9696516990661621,1.161187767982483,1.5411376953125,-1.3427734375,-4.3182373046875
6.5899999000000005,-9.720458984375,1.039083480834961,1.647210717201233,2.8076171875,-0.54931640625,-4.2266845703125
6.609999900000001,-9.624691009521484,1.0462661981582642,2.145204782485962,-29.0985107421875,16.6015625,0.4119873046875
6.6299999000000005,-9.528923034667969,1.0079588890075684,2.604891538619995,-67.352294921875,39.4287109375,1.4801025390625
6.649999900000001,-9.521739959716797,0.7589619159698486,2.7054479122161865,-72.418212890625,45.5474853515625,7.32421875
6.6699999000000005,-9.672574996948242,0.4429273009300232,2.121262788772583,-52.79541015625,39.215087890625,15.838623046875
6.6899999,-9.880870819091797,0.15083470940589905,1.0271124839782715,-19.6533203125,18.5394287109375,14.2669677734375
6.709999900000001,-10.144232749938965,-0.06703764945268631,-0.19871874153614044,16.29638671875,0.2593994140625,2.99072265625
6.7299999,-10.292673110961914,-0.009576806798577309,-1.1659762859344482,37.750244140625,-7.293701171875,3.7841796875
6.749999900000001,-10.316615104675293,0.24420857429504395,-1.4413094520568848,34.7442626953125,-15.228271484375,5.1422119140625
6.7699999,-10.204087257385254,0.8523358106613159,-0.9983820915222168,10.162353515625,-8.7432861328125,3.96728515625
6.789999900000001,-9.979032516479492,1.256955862045288,-0.2968810200691223,-17.15087890625,-1.6326904296875,3.0364990234375
6.8099999,-9.84495735168457,1.501164436340332,0.45010992884635925,-26.3519287109375,-7.598876953125,-3.204345703125
6.829999900000001,-9.682151794433594,1.4844050407409668,0.9265560507774353,-21.942138671875,-6.3934326171875,-4.9285888671875
6.8499999,-9.694122314453125,1.0678139925003052,1.2473790645599365,-16.3421630859375,-2.9144287109375,0.8697509765625
6.869999900000001,-9.806650161743164,0.7015010714530945,1.259350061416626,-17.5018310546875,5.7373046875,7.293701171875
6.8899999,-9.947908401489258,0.20350714027881622,1.0462661981582642,-3.0975341796875,1.983642578125,8.880615234375
6.909999900000001,-10.098742485046387,-0.023942016065120697,0.7254431247711182,28.4576416015625,-20.44677734375,4.94384765625
6.9299999,-10.20648193359375,-0.0071826050989329815,0.30885201692581177,39.520263671875,-20.32470703125,3.2958984375
6.949999900000001,-10.110713958740234,0.33997663855552673,0.3256114423274994,24.6124267578125,-11.6729736328125,3.631591796875
6.9699999,-9.950302124023438,0.9768342971801758,0.6727706789970398,0.9613037109375,-5.9051513671875,4.302978515625
6.989999900000001,-9.775525093078613,1.4700398445129395,1.194706678390503,-21.1029052734375,2.4566650390625,4.8980712890625
7.0099999,-9.619902610778809,1.7357962131500244,1.7142484188079834,-32.257080078125,4.7454833984375,2.3345947265625
7.029999900000001,-9.57441234588623,1.6927006244659424,1.886630892753601,-36.2396240234375,12.9241943359375,-6.622314453125
7.0499999,-9.639056205749512,1.335964560508728,1.8052281141281128,-29.72412109375,20.3094482421875,-7.171630859375
7.069999900000001,-9.823410034179688,0.8930372595787048,1.259350061416626,-7.7667236328125,11.6119384765625,1.678466796875
7.0899999000000005,-10.108319282531738,0.38067805767059326,0.44532153010368347,23.284912109375,-4.150390625,3.9825439453125
7.109999900000001,-10.27591323852539,0.016759412363171577,-0.4429273009300232,54.229736328125,-27.6336669921875,0.8087158203125
7.1299999000000005,-10.465055465698242,-0.07661445438861847,-0.9648633003234863,71.9757080078125,-44.8150634765625,-7.0037841796875
7.149999900000001,-10.235212326049805,0.090979665517807,-0.9911994934082031,61.4776611328125,-41.50390625,-0.640869140625
7.1699999000000005,-10.11550235748291,0.6703764796257019,-0.24420857429504395,33.6151123046875,-32.196044921875,4.974365234375
7.1899999,-9.746794700622559,1.1851298809051514,0.9097966551780701,-4.638671875,-18.7530517578125,6.683349609375
7.209999900000001,-9.497797966003418,1.6687586307525635,2.1092917919158936,-33.8287353515625,-1.708984375,4.669189453125
7.2299999,-9.279925346374512,2.030282974243164,3.155557870864868,-37.994384765625,4.058837890625,-5.096435546875
7.249999900000001,-9.097966194152832,1.9177556037902832,3.6774938106536865,-40.6341552734375,16.6168212890625,-7.38525390625
7.2699999,-9.169792175292969,1.800439715385437,3.6607344150543213,-45.3643798828125,35.888671875,-5.8135986328125
7.289999900000001,-9.299078941345215,1.381454348564148,3.2393548488616943,-41.68701171875,34.8358154296875,-2.960205078125
7.3099999,-9.617507934570312,0.8738836050033569,2.360682964324951,-27.2369384765625,28.045654296875,-0.885009765625
7.329999900000001,-9.99100399017334,0.4405331015586853,1.314416766166687,-0.2593994140625,12.7105712890625,-1.1444091796875
7.3499999,-10.213664054870605,-0.026336219161748886,0.2322375625371933,17.8375244140625,6.4697265625,-4.8370361328125
7.369999900000001,-10.366893768310547,-0.0694318488240242,-0.44771572947502136,27.4505615234375,0.091552734375,-3.875732421875
7.3899999,-10.333374977111816,0.12210428714752197,-0.4644751250743866,26.519775390625,-5.889892578125,2.8839111328125
7.409999900000001,-10.201693534851074,0.5099649429321289,-0.14604631066322327,3.0670166015625,4.08935546875,3.662109375
7.4299999,-10.014945983886719,0.9624691009521484,0.4668693244457245,-12.4664306640625,5.18798828125,-2.01416015625
7.449999900000001,-9.926360130310059,1.1755530834197998,1.0127472877502441,-11.199951171875,3.173828125,-5.06591796875
7.4699999,-9.782708168029785,1.2282254695892334,1.1013327836990356,-8.8348388671875,8.6212158203125,-5.6304931640625
7.489999900000001,-9.849745750427246,1.0295066833496094,1.1180921792984009,1.007080078125,5.0811767578125,-4.5166015625
7.5099999,-9.90241813659668,0.7541735172271729,0.8595184087753296,6.34765625,-1.0986328125,3.3111572265625
7.529999900000001,-10.010157585144043,0.5195417404174805,0.5985504388809204,9.3994140625,-8.4686279296875,3.9825439453125
7.5499999,-10.156203269958496,0.3519476354122162,0.4429273009300232,17.974853515625,-15.8843994140625,-2.0904541015625
7.569999900000001,-10.074800491333008,0.395043283700943,0.4381389021873474,19.7906494140625,-12.4359130859375,0.0762939453125
7.5899999000000005,-10.093954086303711,0.545877993106842,0.7110779285430908,13.336181640625,-2.4566650390625,0.518798828125
7.609999900000001,-9.926360130310059,0.7230489253997803,1.0989385843276978,9.7198486328125,-1.068115234375,1.708984375
7.6299999000000005,-9.825803756713867,0.9313444495201111,1.314416766166687,11.7340087890625,-4.669189453125,2.9754638671875
7.649999900000001,-9.780313491821289,1.0055646896362305,1.4101848602294922,21.1639404296875,-8.8958740234375,-5.5389404296875
7.6699999000000005,-9.758766174316406,1.072602391242981,1.3455413579940796,24.9176025390625,-4.45556640625,-7.4920654296875
7.6899999,-9.751583099365234,1.0797849893569946,1.237802267074585,19.0277099609375,1.0833740234375,-5.4779052734375
7.709999900000001,-9.763554573059082,1.1013327836990356,1.194706678390503,8.2244873046875,2.593994140625,-2.01416015625
7.7299999,-9.854534149169922,0.9624691009521484,1.1061211824417114,-4.7149658203125,-1.3885498046875,3.692626953125
7.749999900000001,-9.840168952941895,0.849941611289978,1.1324573755264282,-10.1165771484375,-5.462646484375,2.166748046875
7.7699999,-9.849745750427246,0.6320692300796509,1.0534487962722778,-9.1552734375,-2.1209716796875,-1.129150390625
7.789999900000001,-9.849745750427246,0.4381389021873474,1.1348515748977661,-7.5531005859375,1.251220703125,2.13623046875
7.8099999,-9.818621635437012,0.2537853717803955,1.1276689767837524,-7.1563720703125,3.4637451171875,8.331298828125
7.829999900000001,-9.940725326538086,0.17956513166427612,1.0869675874710083,-3.2958984375,-0.885009765625,13.641357421875
7.8499999,-9.967061996459961,0.26575639843940735,0.9959878921508789,7.2021484375,-10.92529296875,9.6282958984375
7.869999900000001,-10.000580787658691,0.507570743560791,0.9983820915222168,10.528564453125,-9.94873046875,1.52587890625
7.8899999,-9.861717224121094,0.8355764150619507,1.0989385843276978,-5.523681640625,0.823974609375,1.2359619140625
7.909999900000001,-9.780313491821289,1.235408067703247,1.3120225667953491,-16.7083740234375,10.162353515625,2.4871826171875
7.9299999,-9.734824180603027,1.3120225667953491,1.4293384552001953,-12.6495361328125,6.256103515625,5.1116943359375
7.949999900000001,-9.744400978088379,1.37906014919281,1.403002142906189,-4.8828125,-2.1514892578125,4.638671875
7.9699999,-9.775525093078613,1.357512354850769,1.3287819623947144,-6.2255859375,-5.67626953125,-0.885009765625
7.989999900000001,-9.603142738342285,1.2761094570159912,1.3311761617660522,-20.8892822265625,4.058837890625,-4.0740966796875
8.0099999,-9.622296333312988,1.2449848651885986,1.5729905366897583,-32.1197509765625,15.594482421875,-5.2642822265625
8.0299999,-9.591172218322754,1.1013327836990356,1.6759412288665771,-34.85107421875,18.8751220703125,-1.6632080078125
8.049999900000001,-9.837775230407715,0.6392518281936646,1.434126853942871,-29.3731689453125,17.608642578125,10.7574462890625
8.069999900000001,-10.08198356628418,0.4381389021873474,1.0773907899856567,2.25830078125,-2.8228759765625,7.5836181640625
8.0899999,-10.26394271850586,0.040701430290937424,0.43335050344467163,26.30615234375,-10.223388671875,1.068115234375
8.1099999,-10.266336441040039,0.2106897532939911,0.28969839215278625,35.2630615234375,-8.4991455078125,2.655029296875
8.129999900000001,-10.156203269958496,0.4118026793003082,0.4213795065879822,28.167724609375,-2.1514892578125,1.678466796875
8.149999900000001,-10.034099578857422,0.9289502501487732,0.730231523513794,10.5133056640625,3.082275390625,2.471923828125
8.1699999,-9.907206535339355,1.335964560508728,0.9624691009521484,8.2550048828125,-5.6915283203125,1.8768310546875
8.1899999,-9.864110946655273,1.6041151285171509,1.0031704902648926,18.2342529296875,-11.9171142578125,-8.697509765625
8.2099999,-9.782708168029785,1.8076223134994507,1.1827356815338135,17.9290771484375,-10.1776123046875,-13.9617919921875
8.229999900000001,-9.639056205749512,1.6543933153152466,1.5705963373184204,-2.5482177734375,6.317138671875,-11.8560791015625
8.2499999,-9.634267807006836,1.41257905960083,1.946485996246338,-26.7486572265625,27.8472900390625,-5.126953125
8.2699999,-9.68933391571045,1.0438719987869263,1.9728221893310547,-22.216796875,21.54541015625,3.936767578125
8.2899999,-9.835380554199219,0.6009446382522583,1.5322890281677246,8.4228515625,2.3956298828125,-3.570556640625
8.309999900000001,-9.931148529052734,0.47644615173339844,0.8092401623725891,34.36279296875,-9.6893310546875,-9.9029541015625
8.3299999,-10.046070098876953,0.42616790533065796,0.35913026332855225,33.75244140625,-6.4239501953125,-9.3841552734375
8.3499999,-9.96945571899414,0.5841852426528931,0.2992752194404602,8.575439453125,4.3792724609375,-3.9520263671875
8.3699999,-9.945513725280762,0.730231523513794,0.6320692300796509,-14.6636962890625,5.6304931640625,4.69970703125
8.389999900000001,-9.940725326538086,0.8188169598579407,0.7398083209991455,-21.66748046875,6.0882568359375,2.9144287109375
8.4099999,-9.806650161743164,0.7972691655158997,0.811634361743927,-7.537841796875,-6.2713623046875,-1.922607421875
8.4299999,-9.804255485534668,0.7996633648872375,0.7876923680305481,5.55419921875,-8.6669921875,-7.8582763671875
8.4499999,-9.749189376831055,0.6607996821403503,0.9313444495201111,4.08935546875,-0.3204345703125,-1.03759765625
8.469999900000001,-9.861717224121094,0.5985504388809204,1.1037269830703735,-8.392333984375,6.9580078125,8.2244873046875
8.4899999,-9.93354320526123,0.5291185975074768,1.3646949529647827,-2.838134765625,1.007080078125,9.1094970703125
8.5099999,-9.99339771270752,0.7015010714530945,1.4101848602294922,0.274658203125,-3.4942626953125,5.8441162109375
8.5299999,-9.971850395202637,0.9002198576927185,1.4628572463989258,-5.2490234375,1.8310546875,-0.762939453125
8.549999900000001,-9.835380554199219,1.2617442607879639,1.4484920501708984,-5.2947998046875,12.451171875,-8.148193359375
8.569999900000001,-9.909601211547852,1.2114660739898682,1.2497732639312744,-6.072998046875,15.5487060546875,-4.6234130859375
8.5899999,-10.11550235748291,0.9026140570640564,0.23702596127986908,28.50341796875,-19.378662109375,-6.0272216796875
8.6099999,-10.065223693847656,0.7374141216278076,-0.08140286058187485,36.0870361328125,-28.472900390625,-13.0615234375
8.629999900000001,-10.012551307678223,0.646434485912323,0.272938996553421,21.0723876953125,-14.6484375,-10.92529296875
8.649999900000001,-9.782708168029785,0.6416460275650024,0.9983820915222168,-10.8795166015625,7.1258544921875,-0.732421875
8.6699999,-9.84495735168457,0.5985504388809204,1.6424223184585571,-29.9835205078125,15.7318115234375,11.8255615234375
8.6899999,-9.739612579345703,0.6655880808830261,2.051830768585205,-22.674560546875,3.753662109375,11.4593505859375
8.709999900000001,-9.854534149169922,0.7589619159698486,1.7764976024627686,-11.0626220703125,0.457763671875,-1.40380859375
8.729999900000001,-9.78989028930664,0.8619126081466675,1.601720929145813,-1.46484375,2.410888671875,-8.453369140625
8.7499999,-9.744400978088379,0.9265560507774353,1.3646949529647827,-6.2713623046875,11.474609375,-2.471923828125
8.7699999,-9.849745750427246,0.7422025203704834,1.072602391242981,-16.54052734375,14.892578125,6.1492919921875
8.7899999,-9.947908401489258,0.6703764796257019,0.6799532771110535,-6.2408447265625,-0.67138671875,8.575439453125
8.809999900000001,-10.120290756225586,0.5386953949928284,0.181959331035614,15.1824951171875,-20.9808349609375,1.3275146484375
8.8299999,-10.06043529510498,0.6057330369949341,-0.040701430290937424,26.3214111328125,-26.092529296875,-9.918212890625
8.8499999,-10.08198356628418,0.7230489253997803,0.002394201699644327,21.087646484375,-13.4124755859375,-6.9122314453125
8.8699999,-9.883264541625977,0.7086837291717529,0.4405331015586853,18.0816650390625,-11.810302734375,3.631591796875
8.889999900000001,-9.823410034179688,0.8834604024887085,1.0199298858642578,11.6424560546875,-17.6239013671875,6.1798095703125
8.9099999,-9.718064308166504,0.9744400978088379,1.5825673341751099,-9.1094970703125,-12.2528076171875,6.622314453125
8.9299999,-9.481039047241211,1.3120225667953491,2.365471363067627,-41.0308837890625,3.814697265625,-0.3509521484375
8.9499999,-9.342175483703613,1.482010841369629,3.2609026432037354,-71.3043212890625,29.815673828125,-2.74658203125
8.969999900000001,-9.279925346374512,1.5418659448623657,3.5434184074401855,-95.3826904296875,59.2803955078125,5.6304931640625
8.9899999,-9.339780807495117,1.091755986213684,3.1076738834381104,-80.1849365234375,53.2989501953125,16.876220703125
9.0099999,-9.349357604980469,0.9217676520347595,2.10210919380188,-23.468017578125,18.2647705078125,11.5966796875
9.0299999,-9.196128845214844,0.49559974670410156,0.3758896589279175,5.126953125,8.8043212890625,0.3662109375
9.049999900000001,-8.358158111572266,0.23702596127986908,-0.912190854549408,29.3731689453125,0.91552734375,-3.2501220703125
9.069999900000001,-6.9455790519714355,0.06464344263076782,-1.7286136150360107,76.5838623046875,-22.1710205078125,18.37158203125
9.0899999,-6.861782073974609,0.20111294090747833,-1.8938134908676147,103.424072265625,-21.1944580078125,44.5556640625
9.1099999,-7.343016624450684,0.4836287498474121,-1.259350061416626,87.4176025390625,-28.076171875,16.3116455078125
9.129999900000001,-8.927978515625,1.4293384552001953,0.021547814831137657,41.717529296875,-20.0042724609375,8.9569091796875
9.149999900000001,-11.480196952819824,2.3942017555236816,1.8411411046981812,-10.101318359375,14.4195556640625,6.866455078125
9.1699999,-12.811373710632324,2.6647465229034424,2.827552318572998,-64.422607421875,48.6907958984375,-18.5699462890625
9.1899999,-13.764266014099121,2.209848165512085,3.095702886581421,-52.5360107421875,41.1224365234375,5.2490234375
9.209999900000001,-13.785813331604004,1.1492167711257935,2.3056161403656006,1.068115234375,-8.48388671875,23.895263671875
9.229999900000001,-13.242329597473145,-0.24181437492370605,0.7541735172271729,36.0260009765625,-29.84619140625,29.2205810546875
9.2499999,-11.748347282409668,-0.5410895943641663,0.21787235140800476,69.2901611328125,-36.9110107421875,34.9578857421875
9.2699999,-10.237606048583984,0.05506663769483566,0.42616790533065796,45.41015625,-4.425048828125,21.8048095703125
9.2899999,-8.992621421813965,1.1755530834197998,0.47405192255973816,-20.2178955078125,51.9256591796875,-8.9874267578125
9.309999900000001,-8.358158111572266,2.145204782485962,0.828393816947937,-11.1541748046875,18.9666748046875,-18.3258056640625
9.3299999,-8.355764389038086,2.583343744277954,0.9409212470054626,17.425537109375,-30.914306640625,5.9051513671875
9.3499999,-8.901641845703125,2.47560453414917,0.6057330369949341,-9.5367431640625,-2.74658203125,21.8505859375
9.3699999,-9.282320022583008,2.3032219409942627,0.727837324142456,-15.1519775390625,13.5498046875,3.936767578125
9.389999900000001,-9.469067573547363,2.2912509441375732,1.039083480834961,17.974853515625,-8.941650390625,-16.4337158203125
9.4099999,-9.670180320739746,2.2194249629974365,0.8954314589500427,12.02392578125,-2.0599365234375,-16.9677734375
9.4299999,-9.797073364257812,2.0901381969451904,0.8619126081466675,-3.1890869140625,3.7689208984375,-10.8795166015625
9.4499999,-9.797073364257812,1.845929503440857,0.9193734526634216,-2.105712890625,-6.6375732421875,-11.16943359375
9.469999900000001,-9.888052940368652,1.5729905366897583,0.8068459630012512,-8.697509765625,-0.18310546875,-12.02392578125
9.4899999,-9.945513725280762,1.400607943534851,0.768538773059845,-11.260986328125,3.84521484375,-10.5743408203125
9.5099999,-9.931148529052734,1.2234370708465576,0.7541735172271729,-8.331298828125,-2.0904541015625,-9.0484619140625
9.5299999,-9.952696800231934,1.0438719987869263,0.7398083209991455,-6.439208984375,-3.90625,-4.7149658203125
9.549999900000001,-9.988609313964844,0.8786720037460327,0.7733271718025208,-6.6070556640625,-3.90625,0.244140625
9.569999900000001,-9.955090522766113,0.7996633648872375,0.8259995579719543,-12.51220703125,0.274658203125,-1.15966796875
9.5899999,-9.885659217834473,0.8738836050033569,0.9768342971801758,-23.6358642578125,8.1787109375,-3.60107421875
9.6099999,-9.813833236694336,1.0893617868423462,1.091755986213684,-23.74267578125,10.650634765625,-5.035400390625
9.629999900000001,-9.787496566772461,1.3239935636520386,1.1875240802764893,-16.90673828125,10.55908203125,-5.0506591796875
9.649999900000001,-9.775525093078613,1.4676456451416016,1.2306196689605713,-7.6904296875,10.711669921875,-7.2784423828125
9.6699999,-9.794678688049316,1.434126853942871,1.1683704853057861,-17.1051025390625,12.7105712890625,-6.500244140625
9.6899999,-9.835380554199219,1.314416766166687,0.9552865028381348,-9.033203125,13.397216796875,-4.39453125
9.709999900000001,-9.9000244140625,1.0773907899856567,0.6991068720817566,6.34765625,3.8299560546875,-6.1187744140625
9.729999900000001,-9.947908401489258,0.8427590131759644,0.47644615173339844,16.29638671875,-3.6163330078125,-3.4332275390625
9.7499999,-9.983820915222168,0.7374141216278076,0.40462008118629456,13.214111328125,-0.6866455078125,2.3651123046875
9.7699999,-9.962273597717285,0.7565677165985107,0.3878606855869293,-13.36669921875,8.8958740234375,7.4310302734375
9.7899999,-9.923966407775879,1.0319008827209473,0.5219359993934631,5.9661865234375,2.13623046875,-4.9896240234375
9.809999900000001,-9.864110946655273,1.2976573705673218,0.5841852426528931,25.0396728515625,-0.579833984375,-17.852783203125
9.8299999,-9.84256362915039,1.4844050407409668,0.6607996821403503,22.003173828125,5.5389404296875,-16.4031982421875
9.8499999,-9.830592155456543,1.4844050407409668,0.730231523513794,17.364501953125,7.8887939453125,-13.7939453125
9.8699999,-9.861717224121094,1.3072341680526733,0.7206547260284424,17.2882080078125,6.561279296875,-14.2059326171875
9.889999900000001,-9.928754806518555,1.0606313943862915,0.6105214357376099,16.9830322265625,2.7923583984375,-11.688232421875
9.9099999,-10.010157585144043,0.8643068075180054,0.42616790533065796,12.420654296875,-6.9122314453125,-5.859375
9.9299999,-10.074800491333008,0.6991068720817566,0.2825157940387726,7.4462890625,-14.0228271484375,-0.823974609375
9.9499999,-10.093954086303711,0.6488286852836609,0.2992752194404602,3.0059814453125,-11.3677978515625,3.6468505859375
9.969999900000001,-10.074800491333008,0.6727706789970398,0.3974374830722809,-5.2947998046875,-3.7078857421875,8.8653564453125
9.9899999,-10.170568466186523,0.6320692300796509,0.5937620401382446,-9.7503662109375,-7.8125,16.3726806640625
10.0099999,-10.311826705932617,0.6799532771110535,0.7254431247711182,-9.4757080078125,-8.3465576171875,10.955810546875
10.0299999,-10.625467300415039,0.6200982332229614,0.8020575642585754,-6.0577392578125,-7.7362060546875,12.0697021484375
10.049999900000001,-10.819397926330566,0.6919242739677429,0.8188169598579407,-1.2664794921875,-6.2255859375,15.228271484375
10.069999900000001,-10.6925048828125,0.8164227604866028,0.8307880163192749,6.1187744140625,-7.9345703125,13.9923095703125
10.0899999,-10.287884712219238,1.1420341730117798,0.9457096457481384,12.481689453125,-6.591796875,11.016845703125
10.1099999,-10.046070098876953,1.5825673341751099,1.1324573755264282,13.36669921875,0.5340576171875,-3.3416748046875
10.129999900000001,-10.194510459899902,1.9608511924743652,1.3215993642807007,10.31494140625,6.3934326171875,-15.7318115234375
10.149999900000001,-10.759542465209961,2.1571757793426514,1.41257905960083,6.7596435546875,3.4027099609375,-15.5029296875
10.1699999,-11.604695320129395,2.0685901641845703,1.3192051649093628,7.232666015625,1.9073486328125,-11.7645263671875
10.1899999,-11.403582572937012,1.7573440074920654,1.0558429956436157,13.3209228515625,1.434326171875,-10.009765625
10.209999900000001,-11.370063781738281,1.5107412338256836,0.790086567401886,18.4173583984375,4.7760009765625,0.3509521484375
10.229999900000001,-10.412383079528809,1.3263877630233765,0.5650315880775452,18.798828125,-6.500244140625,-23.0560302734375
10.2499999,-10.129867553710938,1.2282254695892334,0.47644615173339844,14.34326171875,-8.453369140625,-21.2860107421875
10.2699999,-9.916783332824707,1.1755530834197998,0.5482721924781799,8.880615234375,-4.69970703125,-15.8843994140625
10.2899999,-9.897629737854004,1.0582371950149536,0.7134721279144287,3.082275390625,-0.457763671875,-14.83154296875
10.309999900000001,-9.892841339111328,0.950498104095459,0.8786720037460327,0.6103515625,6.1187744140625,-12.3748779296875
10.3299999,-9.763554573059082,0.8259995579719543,0.9576807022094727,5.645751953125,3.6468505859375,-12.1917724609375
10.3499999,-9.57441234588623,0.6871358752250671,0.8930372595787048,13.3819580078125,-4.2266845703125,-9.5367431640625
10.3699999,-9.330204010009766,0.5506663918495178,0.751779317855835,18.6614990234375,-6.011962890625,-1.983642578125
10.389999900000001,-9.095572471618652,0.47884035110473633,0.6488286852836609,22.6898193359375,-2.8533935546875,4.974365234375
10.4099999,-8.937555313110352,0.47884035110473633,0.629675030708313,22.8118896484375,-0.396728515625,7.99560546875
10.4299999,-8.89685344696045,0.586579442024231,0.7038952708244324,16.5557861328125,-4.7760009765625,7.50732421875
10.4499999,-8.927978515625,0.7206547260284424,0.8451532125473022,7.781982421875,-11.4898681640625,8.697509765625
10.469999900000001,-8.99740982055664,0.8786720037460327,0.9911994934082031,0.42724609375,-6.683349609375,10.4522705078125
10.4899999,-9.042900085449219,0.9768342971801758,1.1085153818130493,-4.1961669921875,4.3792724609375,8.0108642578125
10.5099999,-9.062053680419922,0.9959878921508789,1.1563993692398071,-7.99560546875,11.8865966796875,3.4332275390625
10.5299999,-9.090784072875977,0.9265560507774353,1.1085153818130493,-9.94873046875,18.9361572265625,-0.18310546875
10.549999900000001,-9.162610054016113,0.8044517636299133,0.9720458984375,-7.9193115234375,24.3072509765625,-4.8828125
10.569999900000001,-9.263166427612305,0.6344634294509888,0.7398083209991455,-3.692626953125,22.064208984375,-10.711669921875
10.5899999,-9.406818389892578,0.4620809257030487,0.5195417404174805,-3.1585693359375,10.2691650390625,-10.5743408203125
10.6099999,-9.543288230895996,0.3495534360408783,0.33758243918418884,-3.2501220703125,-5.9814453125,-3.47900390625
10.629999900000001,-9.641449928283691,0.2849099934101105,0.28730419278144836,-3.6468505859375,-17.913818359375,2.288818359375
10.649999900000001,-9.674968719482422,0.2992752194404602,0.3663128614425659,-5.67626953125,-22.1710205078125,2.6397705078125
10.6699999,-9.497797966003418,0.3902548849582672,0.5817909836769104,-8.514404296875,-20.93505859375,0.79345703125
10.6899999,-9.47146224975586,0.4644751250743866,0.7541735172271729,-6.77490234375,7.4920654296875,0.3814697265625
10.709999900000001,-9.397241592407227,0.6057330369949341,0.933738648891449,-1.434326171875,18.6004638671875,-6.439208984375
10.729999900000001,-9.493009567260742,0.6703764796257019,0.9792284965515137,-4.5318603515625,-1.495361328125,-12.8631591796875
10.7499999,-9.579200744628906,0.7326257228851318,0.993593692779541,-8.0718994140625,-17.669677734375,-11.8255615234375
10.7699999,-9.557653427124023,0.7326257228851318,0.9864110946655273,-8.636474609375,-9.246826171875,-5.035400390625
10.7899999,-9.404424667358398,0.6919242739677429,0.9911994934082031,-6.1187744140625,8.1634521484375,2.6397705078125
10.809999900000001,-9.244012832641602,0.6200982332229614,0.9864110946655273,-3.72314453125,18.5699462890625,7.7362060546875
10.8299999,-9.23443603515625,0.6033388376235962,0.9361328482627869,-3.1280517578125,23.2696533203125,9.1705322265625
10.8499999,-9.387664794921875,0.6033388376235962,0.8092401623725891,2.960205078125,23.895263671875,4.0740966796875
10.8699999,-9.6989107131958,0.6344634294509888,0.6272808313369751,6.622314453125,14.1754150390625,0.0762939453125
10.889999900000001,-10.072406768798828,0.689530074596405,0.4189853072166443,7.38525390625,1.28173828125,-2.288818359375
10.9099999,-10.405200958251953,0.7326257228851318,0.24420857429504395,7.99560546875,-0.5035400390625,-8.3770751953125
10.9299999,-10.623072624206543,0.7637503147125244,0.15083470940589905,8.23974609375,2.8533935546875,-12.9852294921875
10.9499999,-10.682928085327148,0.7876923680305481,0.14604631066322327,4.8065185546875,1.0528564453125,-9.5672607421875
10.969999900000001,-10.582371711730957,0.7876923680305481,0.2106897532939911,0.823974609375,-1.7242431640625,-4.5623779296875
10.9899999,-10.381258964538574,0.7709329724311829,0.33279404044151306,-0.7476806640625,-1.678466796875,-2.288818359375
11.0099999,-10.180145263671875,0.7637503147125244,0.4692635238170624,-0.9918212890625,1.007080078125,0.274658203125
11.0299999,-10.043676376342773,0.7709329724311829,0.6129156351089478,-2.01416015625,0.9613037109375,1.6021728515625
11.049999900000001,-9.99339771270752,0.7972691655158997,0.730231523513794,-3.60107421875,-0.0457763671875,-0.0457763671875
11.069999900000001,-9.962273597717285,0.828393816947937,0.8164227604866028,-4.0435791015625,2.532958984375,-2.44140625
11.0899999,-9.909601211547852,0.8643068075180054,0.8667010068893433,-4.058837890625,5.828857421875,-1.068115234375
11.1099999,-9.876082420349121,0.8978256583213806,0.8762778043746948,-5.8135986328125,5.6610107421875,3.021240234375
11.129999900000001,-9.873687744140625,0.9433154463768005,0.8619126081466675,-8.941650390625,-1.861572265625,3.448486328125
11.149999900000001,-9.849745750427246,0.9624691009521484,0.8355764150619507,-10.6353759765625,-9.613037109375,1.2969970703125
11.1699999,-10.091560363769531,1.0079588890075684,0.8379706144332886,-10.1470947265625,-6.9580078125,3.753662109375
11.1899999,-10.180145263671875,1.0558429956436157,0.8355764150619507,-7.171630859375,0.274658203125,-3.60107421875
11.209999900000001,-10.342951774597168,0.9840168952941895,0.8236053586006165,-4.150390625,0.5645751953125,2.5634765625
11.229999900000001,-10.407594680786133,0.9816226959228516,0.7661445140838623,-1.1444091796875,-0.762939453125,3.84521484375
11.2499999,-10.319009780883789,0.8475474119186401,0.6512228846549988,2.7313232421875,-1.5869140625,-0.152587890625
11.2699999,-10.20887565612793,0.7541735172271729,0.5219359993934631,5.9051513671875,-2.4566650390625,-0.0152587890625
11.2899999,-10.08437728881836,0.6607996821403503,0.4165911078453064,6.5765380859375,-4.5318603515625,0.7781982421875
11.309999900000001,-10.002974510192871,0.5722141861915588,0.35673606395721436,5.6304931640625,-6.2408447265625,1.40380859375
11.3299999,-9.967061996459961,0.5195417404174805,0.3256114423274994,4.45556640625,-7.781982421875,3.9520263671875
11.3499999,-9.950302124023438,0.507570743560791,0.3471592366695404,4.7149658203125,-9.8876953125,5.5999755859375
11.3699999,-9.940725326538086,0.524330198764801,0.40462008118629456,3.6163330078125,-11.71875,5.5694580078125
11.389999900000001,-9.93593692779541,0.6488286852836609,0.4692635238170624,1.3885498046875,-11.5509033203125,5.401611328125
11.4099999,-9.928754806518555,0.811634361743927,0.5889736413955688,5.4168701171875,-12.8021240234375,3.5400390625
11.4299999,-9.876082420349121,1.039083480834961,0.9409212470054626,5.3253173828125,-12.481689453125,0.30517578125
11.4499999,-9.801861763000488,1.213860273361206,1.314416766166687,-13.885498046875,-1.708984375,-3.0517578125
11.469999900000001,-9.710882186889648,1.3048399686813354,1.7262194156646729,-26.397705078125,6.9580078125,-4.08935546875
11.4899999,-9.66299819946289,1.2282254695892334,1.9129672050476074,-25.45166015625,10.6048583984375,0.152587890625
11.5099999,-9.667786598205566,1.070208191871643,1.8076223134994507,-14.373779296875,8.8958740234375,4.4403076171875
11.5299999,-9.742006301879883,0.7948749661445618,1.4293384552001953,-0.091552734375,4.791259765625,4.425048828125
11.549999900000001,-9.931148529052734,0.5793967843055725,0.9792284965515137,12.9547119140625,1.190185546875,4.2572021484375
11.569999900000001,-9.976638793945312,0.45250412821769714,0.7326257228851318,16.9830322265625,-5.06591796875,1.007080078125
11.5899999,-10.010157585144043,0.4357447028160095,0.6105214357376099,5.2490234375,-1.15966796875,-2.1514892578125
11.6099999,-9.986215591430664,0.5746083855628967,0.7110779285430908,-8.636474609375,6.16455078125,0.9307861328125
11.629999900000001,-9.84495735168457,0.8068459630012512,0.8451532125473022,-12.3291015625,11.0931396484375,5.67626953125
11.649999900000001,-9.856928825378418,0.9744400978088379,0.8906430602073669,-15.3045654296875,14.4805908203125,5.5694580078125
11.6699999,-9.837775230407715,1.113303780555725,0.828393816947937,-17.059326171875,7.9498291015625,4.0435791015625
11.6899999,-9.950302124023438,1.113303780555725,0.6823474764823914,-10.2081298828125,-0.9002685546875,-1.1749267578125
11.709999900000001,-9.976638793945312,1.0199298858642578,0.49559974670410156,-0.30517578125,-2.9449462890625,-4.913330078125
11.729999900000001,-10.036493301391602,0.8762778043746948,0.33518823981285095,1.2664794921875,-2.9296875,-1.129150390625
11.7499999,-10.046070098876953,0.7661445140838623,0.21787235140800476,3.0517578125,-4.638671875,-2.3651123046875
11.7699999,-10.022128105163574,0.7182605266571045,0.24420857429504395,2.3193359375,-12.9547119140625,2.7923583984375
11.7899999,-9.962273597717285,0.7398083209991455,0.3016694188117981,-2.532958984375,-5.7830810546875,9.5367431640625
11.809999900000001,-9.983820915222168,0.7565677165985107,0.4908113479614258,-2.716064453125,-9.82666015625,8.148193359375
11.8299999,-9.890447616577148,0.828393816947937,0.849941611289978,-5.767822265625,-12.2833251953125,-4.57763671875
11.8499999,-9.818621635437012,0.9193734526634216,1.2018892765045166,-11.29150390625,-3.692626953125,-1.4495849609375
11.8699999,-9.75637149810791,1.0319008827209473,1.6352397203445435,-15.6707763671875,8.514404296875,4.21142578125
11.889999900000001,-9.624691009521484,1.1659762859344482,1.802833914756775,-17.0440673828125,13.153076171875,0.9613037109375
11.9099999,-9.648633003234863,1.2066776752471924,1.7501614093780518,-11.9476318359375,9.6282958984375,1.40380859375
11.9299999,-9.684545516967773,1.1444283723831177,1.482010841369629,-7.110595703125,7.049560546875,0.640869140625
11.9499999,-9.75397777557373,1.036689281463623,1.2114660739898682,-5.615234375,3.143310546875,-2.50244140625
11.969999900000001,-9.818621635437012,0.9696516990661621,1.05105459690094,-14.0533447265625,12.3291015625,-6.04248046875
11.9899999,-9.864110946655273,0.849941611289978,0.8858546018600464,-25.390625,15.0604248046875,-4.180908203125
12.0099999,-9.895236015319824,0.8140285611152649,0.8451532125473022,-21.6064453125,14.22119140625,-1.7242431640625
12.0299999,-9.943120002746582,0.7350199222564697,0.727837324142456,-14.7247314453125,11.077880859375,1.495361328125
12.049999900000001,-10.067618370056152,0.6368576288223267,0.586579442024231,-14.46533203125,12.4359130859375,5.462646484375
12.069999900000001,-10.139444351196289,0.5770025849342346,0.31124621629714966,-6.7291259765625,1.3427734375,4.791259765625
12.0899999,-10.20648193359375,0.5554547905921936,0.047884032130241394,12.0849609375,-9.674072265625,0.4119873046875
12.1099999,-10.218452453613281,0.5889736413955688,-0.1628057211637497,24.3682861328125,-16.05224609375,-1.4190673828125
12.129999900000001,-10.153809547424316,0.7254431247711182,-0.2561795711517334,20.599365234375,-15.0299072265625,-0.9918212890625
12.149999900000001,-10.000580787658691,0.9696516990661621,0.1149216815829277,11.53564453125,-13.9617919921875,-2.7008056640625
12.1699999,-9.849745750427246,1.2258312702178955,0.6775590777397156,-4.9591064453125,-7.659912109375,-1.2359619140625
12.1899999,-9.730035781860352,1.3862427473068237,1.2880805730819702,-27.7557373046875,2.899169921875,0.1220703125
12.209999900000001,-9.639056205749512,1.338358759880066,1.6927006244659424,-34.576416015625,9.27734375,1.708984375
12.229999900000001,-9.715670585632324,1.0989385843276978,1.644816517829895,-17.9443359375,-0.06103515625,-1.6326904296875
12.2499999,-9.84256362915039,0.706289529800415,1.2234370708465576,6.6375732421875,-7.9193115234375,-1.28173828125
12.2699999,-9.981427192687988,0.3687070608139038,0.6177040338516235,26.397705078125,-12.3748779296875,-0.152587890625
12.289999900000002,-10.038887977600098,0.28730419278144836,0.3016694188117981,34.8052978515625,-17.88330078125,-0.3814697265625
12.309999900000001,-10.074800491333008,0.4429273009300232,0.33279404044151306,21.2554931640625,-14.0838623046875,2.349853515625
12.3299999,-9.911994934082031,0.768538773059845,0.7206547260284424,-3.8604736328125,-5.06591796875,3.7689208984375
12.3499999,-9.86889934539795,1.1085153818130493,1.1899182796478271,-21.148681640625,1.708984375,4.4097900390625
12.3699999,-9.787496566772461,1.237802267074585,1.5083470344543457,-20.6298828125,-0.9307861328125,2.3040771484375
12.389999900000001,-9.78989028930664,1.213860273361206,1.53707754611969,-9.9334716796875,-3.7078857421875,-0.1678466796875
12.4099999,-9.84495735168457,1.0127472877502441,1.3670891523361206,4.364013671875,-4.7149658203125,-2.1514892578125
12.4299999,-9.871294021606445,0.8595184087753296,1.1683704853057861,15.0299072265625,-7.14111328125,-0.7171630859375
12.4499999,-9.854534149169922,0.8858546018600464,1.2186486721038818,-0.4119873046875,2.1820068359375,0.2593994140625
12.469999900000001,-9.823410034179688,1.048660397529602,1.434126853942871,-11.7950439453125,6.3629150390625,2.3651123046875
12.4899999,-9.792284965515137,1.1204863786697388,1.534683346748352,-16.754150390625,7.8887939453125,1.373291015625
12.5099999,-9.854534149169922,1.0582371950149536,1.4891934394836426,-11.65771484375,3.8604736328125,-1.0986328125
12.5299999,-9.832986831665039,0.9265560507774353,1.2856862545013428,0.2593994140625,0.0152587890625,-1.220703125
12.549999900000001,-9.940725326538086,0.790086567401886,1.0630255937576294,12.2528076171875,-1.8463134765625,-3.3111572265625
12.569999900000001,-9.885659217834473,0.7230489253997803,0.8379706144332886,15.8233642578125,-4.302978515625,-4.1961669921875
12.5899999,-9.93593692779541,0.8092401623725891,0.7876923680305481,13.5040283203125,-3.143310546875,-3.509521484375
12.6099999,-9.890447616577148,0.8930372595787048,0.8834604024887085,4.7454833984375,0.9918212890625,-1.03759765625
12.629999900000001,-9.90241813659668,1.015141487121582,1.0438719987869263,-4.1046142578125,4.2724609375,-0.6256103515625
12.649999900000001,-9.864110946655273,1.0199298858642578,1.1348515748977661,-4.0435791015625,1.220703125,-0.6256103515625
12.6699999,-9.90241813659668,0.9792284965515137,1.1276689767837524,3.5552978515625,-4.5623779296875,0.7781982421875
12.6899999,-9.885659217834473,0.9050082564353943,1.0582371950149536,7.3394775390625,-7.4920654296875,-0.2899169921875
12.709999900000001,-9.892841339111328,0.8475474119186401,1.0199298858642578,2.6092529296875,-5.706787109375,-3.8299560546875
12.729999900000001,-9.885659217834473,0.8403648138046265,1.1109095811843872,-3.35693359375,-2.25830078125,-4.7607421875
12.7499999,-9.787496566772461,0.8475474119186401,1.256955862045288,-7.4462890625,1.64794921875,-1.922607421875
12.7699999,-9.830592155456543,0.7852981686592102,1.357512354850769,-10.7421875,5.401611328125,2.0904541015625
12.789999900000002,-9.797073364257812,0.7158663272857666,1.3670891523361206,-7.32421875,2.7618408203125,4.69970703125
12.809999900000001,-9.86650562286377,0.6129156351089478,1.259350061416626,3.509521484375,-1.373291015625,4.57763671875
12.8299999,-9.928754806518555,0.5913678407669067,1.0462661981582642,13.3514404296875,-4.4708251953125,4.82177734375
12.8499999,-9.986215591430664,0.7230489253997803,0.9528923034667969,17.6849365234375,-11.2457275390625,5.462646484375
12.8699999,-9.976638793945312,0.9457096457481384,0.9768342971801758,9.0484619140625,-8.2855224609375,0.30517578125
12.889999900000001,-9.890447616577148,1.2617442607879639,1.2761094570159912,-6.89697265625,-0.3662109375,-5.2947998046875
12.9099999,-9.75397777557373,1.4891934394836426,1.6160861253738403,-24.59716796875,10.2996826171875,-6.8511962890625
12.9299999,-9.648633003234863,1.5514427423477173,1.867477297782898,-29.4647216796875,16.2811279296875,-5.4779052734375
12.9499999,-9.586383819580078,1.3527239561080933,1.8698714971542358,-22.705078125,15.2435302734375,-0.4119873046875
12.969999900000001,-9.66539192199707,1.0869675874710083,1.766920804977417,-13.2904052734375,12.451171875,-1.7547607421875
12.9899999,-9.730035781860352,0.7661445140838623,1.4987702369689941,-15.045166015625,13.8092041015625,0.2899169921875
13.0099999,-9.840168952941895,0.5027823448181152,1.2234370708465576,-15.6707763671875,12.2222900390625,4.791259765625
13.0299999,-9.86650562286377,0.40462008118629456,1.0007762908935547,-12.298583984375,6.8359375,3.6468505859375
13.049999900000001,-9.99339771270752,0.3902548849582672,0.7398083209991455,-11.4898681640625,6.9732666015625,2.3956298828125
13.069999900000001,-9.971850395202637,0.5626373887062073,0.6727706789970398,-10.3759765625,5.157470703125,1.52587890625
13.0899999,-10.014945983886719,0.706289529800415,0.5817909836769104,-13.97705078125,5.462646484375,0.7781982421875
13.1099999,-10.017339706420898,0.871489405632019,0.5961562395095825,-9.6588134765625,2.9449462890625,-0.732421875
13.129999900000001,-9.945513725280762,0.9744400978088379,0.586579442024231,2.9449462890625,-0.3509521484375,-0.640869140625
13.149999900000001,-9.962273597717285,1.0103530883789062,0.6607996821403503,6.2255859375,-2.838134765625,0.67138671875
13.1699999,-9.919178009033203,1.0271124839782715,0.7206547260284424,-2.2430419921875,-0.701904296875,-0.4730224609375
13.1899999,-9.95748519897461,0.9696516990661621,0.727837324142456,-1.312255859375,-1.0528564453125,-0.244140625
13.209999900000001,-9.988609313964844,0.8427590131759644,0.6607996821403503,9.9639892578125,-10.223388671875,0.6256103515625
13.229999900000001,-10.012551307678223,0.6727706789970398,0.4668693244457245,21.2554931640625,-17.547607421875,-2.471923828125
13.2499999,-10.06043529510498,0.6871358752250671,0.4668693244457245,28.9764404296875,-22.2015380859375,-3.47900390625
13.2699999,-9.947908401489258,0.8355764150619507,0.8044517636299133,18.5394287109375,-19.04296875,-1.3275146484375
13.289999900000002,-9.794678688049316,1.1204863786697388,1.3910311460494995,-6.378173828125,-2.838134765625,-6.622314453125
13.309999900000001,-9.639056205749512,1.316810965538025,2.145204782485962,-25.08544921875,12.3138427734375,-8.8348388671875
13.3299999,-9.459490776062012,1.4317326545715332,2.693476915359497,-35.7208251953125,21.392822265625,-2.838134765625
13.3499999,-9.459490776062012,1.2545616626739502,2.808398485183716,-47.6837158203125,30.853271484375,1.3275146484375
13.3699999,-9.591172218322754,0.9169792532920837,2.293645143508911,-44.281005859375,31.8450927734375,4.241943359375
13.389999900000001,-9.782708168029785,0.4884171485900879,1.4053963422775269,-13.824462890625,15.07568359375,3.0517578125
13.4099999,-10.089165687561035,-0.014365210197865963,0.16759411990642548,22.03369140625,-2.01416015625,4.5623779296875
13.4299999,-10.309432983398438,-0.22026655077934265,-0.9074024558067322,50.4913330078125,-21.17919921875,7.1868896484375
13.4499999,-10.369287490844727,-0.12689268589019775,-1.359906554222107,59.9212646484375,-37.322998046875,5.401611328125
13.469999900000001,-10.321403503417969,0.3878606855869293,-1.2425906658172607,43.76220703125,-34.576416015625,-0.1220703125
13.4899999,-10.034099578857422,1.139639973640442,-0.2801215946674347,15.68603515625,-27.7557373046875,-1.190185546875
13.5099999,-9.761159896850586,1.764526605606079,0.9576807022094727,-17.02880859375,-12.6800537109375,-6.500244140625
13.5299999,-9.531316757202148,2.049436569213867,2.030282974243164,-35.3240966796875,3.6773681640625,-10.7574462890625
13.549999900000001,-9.476250648498535,1.843535304069519,2.676717519760132,-28.167724609375,8.209228515625,-3.4027099609375
13.569999900000001,-9.47146224975586,1.2832920551300049,2.7700912952423096,-16.0980224609375,2.044677734375,3.4637451171875
13.5899999,-9.643844604492188,0.689530074596405,2.535459518432617,-13.092041015625,3.4027099609375,2.0904541015625
13.6099999,-9.715670585632324,0.24420857429504395,2.1092917919158936,-18.24951171875,11.322021484375,7.9345703125
13.629999900000001,-9.84495735168457,0.033518824726343155,1.6735470294952393,-17.9595947265625,9.429931640625,12.054443359375
13.649999900000001,-9.928754806518555,0.05267243832349777,1.161187767982483,-1.3275146484375,1.617431640625,7.7056884765625
13.6699999,-9.962273597717285,0.2753331959247589,0.7398083209991455,18.3563232421875,-7.476806640625,7.3089599609375
13.6899999,-10.02691650390625,0.689530074596405,0.6177040338516235,21.026611328125,-9.8419189453125,6.256103515625
13.709999900000001,-9.947908401489258,1.2330138683319092,0.8547300100326538,-2.7313232421875,-1.5106201171875,-1.220703125
13.729999900000001,-9.821015357971191,1.6663644313812256,1.3718775510787964,-25.543212890625,12.0086669921875,-6.3934326171875
13.7499999,-9.744400978088379,1.824381709098816,1.8076223134994507,-33.8287353515625,22.369384765625,-5.706787109375
13.7699999,-9.667786598205566,1.5897499322891235,2.006340980529785,-22.0947265625,20.233154296875,-5.0811767578125
13.789999900000002,-9.653421401977539,1.1899182796478271,1.8579005002975464,-4.2572021484375,16.143798828125,-5.157470703125
13.809999900000001,-9.703699111938477,0.7541735172271729,1.6208745241165161,3.7689208984375,14.8773193359375,-3.2196044921875
13.8299999,-9.81143856048584,0.48602294921875,1.335964560508728,-0.762939453125,16.8609619140625,0.640869140625
13.8499999,-9.799467086791992,0.49559974670410156,1.2066776752471924,-16.326904296875,19.378662109375,5.279541015625
13.8699999,-9.938331604003906,0.5674257874488831,0.9720458984375,-34.881591796875,24.8260498046875,7.171630859375
13.889999900000001,-9.995792388916016,0.608127236366272,0.5578489899635315,-31.0821533203125,16.7694091796875,3.814697265625
13.9099999,-10.086771965026855,0.6129156351089478,0.019153613597154617,-2.1514892578125,0.030517578125,2.2430419921875
13.9299999,-10.213664054870605,0.5315127968788147,-0.5386953949928284,27.2674560546875,-15.31982421875,-0.244140625
13.9499999,-10.278307914733887,0.6224924325942993,-0.7948749661445618,42.8924560546875,-26.8707275390625,-2.01416015625
13.969999900000001,-10.225635528564453,0.9481038451194763,-0.47644615173339844,37.3382568359375,-26.5655517578125,-1.708984375
13.9899999,-10.02452278137207,1.4053963422775269,0.38067805767059326,7.476806640625,-16.3726806640625,-8.4228515625
14.0099999,-9.75637149810791,1.7717092037200928,1.5107412338256836,-30.364990234375,5.7373046875,-14.9688720703125
14.0299999,-9.531316757202148,1.7190368175506592,2.346317768096924,-44.7998046875,23.956298828125,-10.101318359375
14.049999900000001,-9.473855972290039,1.3335703611373901,2.7317841053009033,-31.005859375,23.2391357421875,-4.2572021484375
14.069999900000001,-9.543288230895996,0.629675030708313,2.4181437492370605,-9.21630859375,18.3868408203125,-0.2288818359375
14.0899999,-9.761159896850586,0.021547814831137657,1.6950948238372803,4.7760009765625,14.70947265625,3.1585693359375
14.1099999,-9.926360130310059,-0.26336219906806946,1.0127472877502441,7.5225830078125,10.772705078125,8.4228515625
14.129999900000001,-10.072406768798828,-0.15801730751991272,0.4357447028160095,-3.0364990234375,8.8653564453125,10.2081298828125
14.149999900000001,-10.11789608001709,0.19632454216480255,0.09576806426048279,-13.214111328125,7.8277587890625,8.7890625
14.1699999,-10.11789608001709,0.6967126727104187,-0.06703764945268631,-7.99560546875,0.54931640625,5.859375
14.1899999,-10.091560363769531,1.0989385843276978,-0.11252748221158981,9.796142578125,-6.317138671875,0.2899169921875
14.209999900000001,-10.06043529510498,1.4221558570861816,-0.0071826050989329815,23.6663818359375,-10.1776123046875,-6.317138671875
14.229999900000001,-10.038887977600098,1.6136919260025024,0.24660277366638184,25.8331298828125,-9.3841552734375,-9.8419189453125
14.2499999,-9.99339771270752,1.6328455209732056,0.7110779285430908,16.754150390625,-5.4931640625,-11.322021484375
14.2699999,-9.895236015319824,1.5107412338256836,1.194706678390503,6.744384765625,1.6021728515625,-8.819580078125
14.289999900000002,-9.837775230407715,1.072602391242981,1.6400281190872192,5.9356689453125,14.4195556640625,-2.62451171875
14.309999900000001,-9.746794700622559,0.5961562395095825,1.8387469053268433,2.777099609375,20.32470703125,0.5035400390625
14.3299999,-9.775525093078613,0.05985504388809204,1.6759412288665771,2.532958984375,19.53125,6.561279296875
14.3499999,-9.835380554199219,-0.24181437492370605,1.2330138683319092,12.5579833984375,11.962890625,10.223388671875
14.3699999,-9.926360130310059,-0.272938996553421,0.6320692300796509,21.8353271484375,3.5400390625,12.0849609375
14.389999900000001,-10.02452278137207,0.009576806798577309,0.11971008777618408,23.040771484375,-0.6561279296875,11.932373046875
14.4099999,-10.02691650390625,0.4644751250743866,-0.12210428714752197,19.04296875,-2.9449462890625,8.36181640625
14.4299999,-9.979032516479492,1.0079588890075684,-0.08379705995321274,12.542724609375,-2.38037109375,3.5552978515625
14.4499999,-9.909601211547852,1.45806884765625,0.12449848651885986,5.4779052734375,1.0986328125,-0.213623046875
14.469999900000001,-9.84495735168457,1.7094600200653076,0.35673606395721436,0.3509521484375,3.204345703125,-3.2196044921875
14.4899999,-9.852140426635742,1.7334020137786865,0.507570743560791,-1.251220703125,1.617431640625,-4.5318603515625
14.5099999,-9.885659217834473,1.53707754611969,0.5602431893348694,-0.244140625,-1.220703125,-4.302978515625
14.5299999,-9.952696800231934,1.2042834758758545,0.5770025849342346,1.2054443359375,-2.471923828125,-1.312255859375
14.549999900000001,-10.000580787658691,0.8667010068893433,0.629675030708313,2.227783203125,-1.617431640625,3.3416748046875
14.569999900000001,-10.393229484558105,0.6440402865409851,0.7493851184844971,4.425048828125,-0.0152587890625,6.0882568359375
14.5899999,-11.501745223999023,0.6129156351089478,0.8595184087753296,7.659912109375,0.823974609375,-8.697509765625
14.6099999,-12.866439819335938,0.727837324142456,0.8212111592292786,12.3748779296875,-1.6632080078125,-14.9993896484375
14.629999900000001,-14.736311912536621,1.01753568649292,0.5746083855628967,20.477294921875,-2.25830078125,-0.6561279296875
14.649999900000001,-15.684414863586426,1.3311761617660522,0.2753331959247589,30.731201171875,-44.189453125,-28.472900390625
14.6699999,-15.449783325195312,1.6136919260025024,0.028730420395731926,35.1715087890625,-63.751220703125,-54.107666015625
14.6899999,-13.917494773864746,1.8100165128707886,-0.011971008032560349,36.4532470703125,-31.06689453125,-58.9447021484375
14.709999900000001,-11.44907283782959,1.8507179021835327,0.15083470940589905,32.9437255859375,-1.6021728515625,-47.3785400390625
14.729999900000001,-8.87291145324707,1.7860745191574097,0.33039984107017517,28.167724609375,12.420654296875,-26.8707275390625
14.7499999,-6.7492547035217285,1.6519991159439087,0.4357447028160095,20.721435546875,12.7105712890625,-5.279541015625
14.7699999,-5.3342814445495605,1.4963760375976562,0.4405331015586853,11.6119384765625,5.2337646484375,12.603759765625
14.789999900000002,-4.651933670043945,1.3431471586227417,0.3734954595565796,5.5389404296875,3.2501220703125,23.7579345703125
14.809999900000001,-4.565742492675781,1.1875240802764893,0.272938996553421,4.486083984375,10.009765625,24.2462158203125
14.8299999,-4.932055473327637,0.9959878921508789,0.14844051003456116,8.2244873046875,19.6685791015625,17.02880859375
14.8499999,-5.60722017288208,0.7661445140838623,0.021547814831137657,16.082763671875,21.942138671875,13.641357421875
14.8699999,-6.45476770401001,0.5099649429321289,-0.05746084079146385,25.4058837890625,15.7012939453125,18.5546875
14.889999900000001,-7.354987621307373,0.24660277366638184,-0.06703764945268631,32.2113037109375,9.9945068359375,26.9775390625
14.9099999,-8.252813339233398,0.0454898327589035,0.031124621629714966,34.6221923828125,3.509521484375,33.0657958984375
14.9299999,-9.102754592895508,-0.038307227194309235,0.21547815203666687,34.3780517578125,-4.6234130859375,30.7159423828125
14.9499999,-9.785101890563965,-0.002394201699644327,0.4812345504760742,33.6456298828125,-7.5531005859375,18.98193359375
14.969999900000001,-10.278307914733887,0.08858546614646912,0.7709329724311829,32.28759765625,1.89208984375,9.09423828125
14.9899999,-10.599130630493164,0.23942017555236816,1.072602391242981,25.2685546875,13.5498046875,7.5836181640625
15.0099999,-10.773907661437988,0.363918662071228,1.3335703611373901,14.8773193359375,16.0675048828125,7.293701171875
15.0299999,-10.876858711242676,0.4644751250743866,1.5155296325683594,5.37109375,12.3138427734375,6.103515625
15.049999900000001,-10.927136421203613,0.5339069962501526,1.5945383310317993,-0.7476806640625,8.2855224609375,5.5389404296875
15.069999900000001,-10.876858711242676,0.5770025849342346,1.577778935432434,-3.2958984375,8.7127685546875,2.50244140625
15.0899999,-10.730812072753906,0.6033388376235962,1.4772224426269531,-4.2266845703125,12.725830078125,-3.2196044921875
15.1099999,-10.553641319274902,0.6224924325942993,1.3096283674240112,-4.669189453125,13.1683349609375,-6.439208984375
15.129999900000001,-10.395624160766602,0.6536170840263367,1.1013327836990356,-5.2642822265625,4.9896240234375,-4.425048828125
15.149999900000001,-10.309432983398438,0.6823474764823914,0.8978256583213806,-4.180908203125,-3.9825439453125,-1.8768310546875
15.1699999,-10.290278434753418,0.7110779285430908,0.7254431247711182,-1.5411376953125,-5.462646484375,-1.28173828125
15.1899999,-10.314221382141113,0.7613561153411865,0.608127236366272,0.8392333984375,-3.173828125,-1.8768310546875
15.209999900000001,-10.340557098388672,0.828393816947937,0.5530605912208557,2.105712890625,-2.99072265625,-3.90625
15.229999900000001,-10.359710693359375,0.8954314589500427,0.5386953949928284,2.5787353515625,-3.753662109375,-5.767822265625
15.2499999,-10.347740173339844,0.9744400978088379,0.5506663918495178,2.685546875,-6.16455078125,-5.3863525390625
15.2699999,-10.268731117248535,1.0558429956436157,0.5793967843055725,1.9073486328125,-9.368896484375,-5.18798828125
15.289999900000002,-10.113107681274414,1.115697979927063,0.6057330369949341,0.2593994140625,-8.2855224609375,-4.9896240234375
15.309999900000001,-9.890447616577148,1.1875240802764893,0.6248866319656372,-2.2430419921875,-5.096435546875,-1.52587890625
15.3299999,-9.641449928283691,1.2473790645599365,0.6272808313369751,-4.9285888671875,-0.4119873046875,2.4566650390625
15.3499999,-9.433155059814453,1.3096283674240112,0.6033388376235962,-6.8206787109375,3.814697265625,4.94384765625
15.3699999,-9.332598686218262,1.3694833517074585,0.5554547905921936,-8.85009765625,4.8370361328125,6.77490234375
15.389999900000001,-9.469067573547363,1.4317326545715332,0.49799394607543945,-11.5509033203125,5.6915283203125,7.0648193359375
15.4099999,-9.945513725280762,1.5394717454910278,0.4644751250743866,-13.1683349609375,6.927490234375,-1.129150390625
15.4299999,-10.42195987701416,1.482010841369629,0.3687070608139038,-13.3056640625,1.190185546875,-3.0517578125
15.4499999,-10.78587818145752,1.522712230682373,0.31124621629714966,-10.101318359375,2.7313232421875,7.3089599609375
15.469999900000001,-10.87446403503418,1.434126853942871,0.23702596127986908,-5.2947998046875,0.2593994140625,1.2664794921875
15.4899999,-10.579977035522461,1.3551181554794312,0.24181437492370605,-2.685546875,-2.685546875,-4.364013671875
15.5099999,-10.230423927307129,1.259350061416626,0.24660277366638184,-4.058837890625,0.1983642578125,-2.6092529296875
15.5299999,-10.034099578857422,1.1204863786697388,0.2753331959247589,-4.21142578125,-3.265380859375,-3.9825439453125
15.549999900000001,-9.8784761428833,1.015141487121582,0.2968810200691223,-0.885009765625,-5.9661865234375,-0.762939453125
15.569999900000001,-9.847352027893066,0.9792284965515137,0.3016694188117981,3.4637451171875,-6.2255859375,-0.091552734375
15.5899999,-9.830592155456543,1.0414776802062988,0.4189853072166443,8.087158203125,-7.2479248046875,-5.340576171875
15.6099999,-9.797073364257812,1.1851298809051514,0.608127236366272,2.3345947265625,-5.6610107421875,-8.1024169921875
15.629999900000001,-9.708487510681152,1.3910311460494995,0.8212111592292786,-12.237548828125,1.1138916015625,-7.6446533203125
15.649999900000001,-9.706093788146973,1.41257905960083,0.993593692779541,-17.8375244140625,3.4942626953125,-6.195068359375
15.6699999,-9.739612579345703,1.3215993642807007,0.8930372595787048,-14.892578125,2.227783203125,-3.6773681640625
15.6899999,-9.773131370544434,1.0749965906143188,0.7948749661445618,-8.087158203125,0.244140625,-1.5411376953125
15.709999900000001,-9.921571731567383,0.8092401623725891,0.608127236366272,-3.387451171875,-1.312255859375,-1.52587890625
15.729999900000001,-10.010157585144043,0.5722141861915588,0.5219359993934631,-0.8697509765625,-5.06591796875,-5.096435546875
15.7499999,-10.02691650390625,0.5339069962501526,0.5219359993934631,-2.7008056640625,-3.662109375,-5.096435546875
15.7699999,-10.074800491333008,0.44771572947502136,0.47165772318840027,-5.8135986328125,3.082275390625,0.0152587890625
15.789999900000002,-9.979032516479492,0.5482721924781799,0.47165772318840027,-0.79345703125,-2.3193359375,-0.946044921875
15.809999900000001,-9.988609313964844,0.646434485912323,0.4884171485900879,-0.732421875,-6.683349609375,2.166748046875
15.8299999,-9.950302124023438,0.8858546018600464,0.47405192255973816,-12.1917724609375,2.86865234375,6.53076171875
15.8499999,-9.93354320526123,0.9624691009521484,0.4812345504760742,-10.894775390625,-2.471923828125,4.39453125
15.869999900000002,-9.974244117736816,1.139639973640442,0.545877993106842,0.396728515625,-14.0380859375,-5.157470703125
15.889999900000001,-9.962273597717285,1.0630255937576294,0.3926490843296051,2.471923828125,-8.3160400390625,-2.471923828125
15.9099999,-9.964667320251465,0.9744400978088379,0.363918662071228,10.4522705078125,-7.9498291015625,0.213623046875
15.9299999,-9.93354320526123,0.9888052940368652,0.4692635238170624,20.5535888671875,-15.716552734375,-4.8065185546875
15.9499999,-9.916783332824707,0.9289502501487732,0.6033388376235962,11.0321044921875,-17.27294921875,1.4190673828125
15.969999900000001,-9.909601211547852,0.9911994934082031,0.8858546018600464,-5.0506591796875,-3.021240234375,4.82177734375
15.9899999,-9.880870819091797,0.993593692779541,1.2018892765045166,-4.669189453125,-6.9732666015625,-1.03759765625
16.0099999,-9.895236015319824,0.9983820915222168,1.4437036514282227,-3.3416748046875,-8.5296630859375,-5.5389404296875
16.0299999,-9.799467086791992,0.933738648891449,1.4676456451416016,-6.500244140625,1.8157958984375,-1.0528564453125
16.0499999,-9.830592155456543,0.8906430602073669,1.4867992401123047,-4.4097900390625,7.01904296875,1.5716552734375
16.0699999,-9.768342971801758,0.950498104095459,1.434126853942871,-2.4566650390625,4.119873046875,-0.1373291015625
16.089999900000002,-9.806650161743164,1.039083480834961,1.314416766166687,-9.3231201171875,5.6304931640625,2.86865234375
16.109999900000002,-9.84256362915039,1.0558429956436157,1.158793568611145,-14.251708984375,8.7432861328125,3.0059814453125
16.1299999,-9.890447616577148,1.0271124839782715,0.9624691009521484,-4.3487548828125,1.0528564453125,-5.767822265625
16.1499999,-9.928754806518555,0.8379706144332886,0.6009446382522583,9.918212890625,-5.9051513671875,-6.439208984375
16.1699999,-9.981427192687988,0.6727706789970398,0.3878606855869293,21.3165283203125,-7.4462890625,-1.3885498046875
16.1899999,-9.96945571899414,0.6967126727104187,0.3232172429561615,22.6593017578125,-6.439208984375,0.1983642578125
16.2099999,-9.928754806518555,0.828393816947937,0.5961562395095825,9.46044921875,-3.7078857421875,1.251220703125
16.2299999,-9.852140426635742,1.0127472877502441,0.8930372595787048,-9.9334716796875,1.800537109375,2.716064453125
16.249999900000002,-9.816226959228516,1.1204863786697388,1.1683704853057861,-14.58740234375,3.7994384765625,2.1209716796875
16.269999900000002,-9.876082420349121,1.072602391242981,1.137245774269104,-4.5318603515625,-4.6844482421875,-0.1220703125
16.2899999,-9.876082420349121,0.8643068075180054,0.9026140570640564,7.2021484375,-6.89697265625,-2.0599365234375
16.3099999,-9.952696800231934,0.6584054827690125,0.5961562395095825,18.768310546875,-10.5133056640625,-1.3427734375
16.3299999,-9.986215591430664,0.5889736413955688,0.3878606855869293,25.5279541015625,-14.312744140625,4.058837890625
16.3499999,-9.931148529052734,0.7781155705451965,0.5674257874488831,13.4429931640625,-13.2904052734375,2.5634765625
16.3699999,-9.861717224121094,1.0414776802062988,0.9145850539207458,9.8114013671875,-14.1754150390625,3.7689208984375
16.3899999,-9.75637149810791,1.2641384601593018,1.4963760375976562,0.701904296875,-10.528564453125,4.058837890625
16.4099999,-9.66299819946289,1.5825673341751099,2.094926595687866,-21.9573974609375,3.9215087890625,-2.1514892578125
16.429999900000002,-9.50737476348877,1.659181833267212,2.5761611461639404,-43.9300537109375,22.0184326171875,-4.82177734375
16.4499999,-9.512163162231445,1.7477672100067139,2.7964274883270264,-43.7774658203125,28.7017822265625,-2.3345947265625
16.4699999,-9.497797966003418,1.5466543436050415,2.7054479122161865,-37.2314453125,28.9306640625,1.7242431640625
16.4899999,-9.682151794433594,1.2449848651885986,2.142810583114624,-36.5447998046875,33.050537109375,1.6021728515625
16.5099999,-9.828198432922363,0.8667010068893433,1.5298948287963867,-23.2391357421875,27.3590087890625,3.143310546875
16.5299999,-10.034099578857422,0.6368576288223267,0.8475474119186401,1.7852783203125,15.07568359375,1.64794921875
16.5499999,-10.180145263671875,0.5434837937355042,0.27054479718208313,15.0146484375,9.7503662109375,-0.7171630859375
16.5699999,-10.302249908447266,0.5937620401382446,-0.2059013396501541,18.9971923828125,9.2315673828125,-7.1563720703125
16.589999900000002,-10.299856185913086,0.7637503147125244,-0.37828385829925537,35.8123779296875,0.0762939453125,-9.58251953125
16.609999900000002,-10.24239444732666,0.8427590131759644,-0.36152446269989014,43.02978515625,-6.439208984375,-6.439208984375
16.6299999,-10.129867553710938,0.8307880163192749,-0.090979665517807,34.393310546875,-0.30517578125,2.6702880859375
16.6499999,-9.93354320526123,0.7398083209991455,0.42377370595932007,19.4244384765625,8.9111328125,7.2021484375
16.6699999,-9.80904483795166,0.6105214357376099,0.9409212470054626,2.410888671875,11.41357421875,7.5225830078125
16.6899999,-9.708487510681152,0.49799394607543945,1.2449848651885986,-7.1563720703125,16.3421630859375,13.18359375
16.7099999,-9.701305389404297,0.4644751250743866,1.259350061416626,-5.5389404296875,16.3726806640625,16.6778564453125
16.7299999,-9.758766174316406,0.5315127968788147,0.9600749015808105,0.823974609375,11.7950439453125,15.716552734375
16.749999900000002,-9.852140426635742,0.7326257228851318,0.5099649429321289,6.16455078125,6.5460205078125,14.0228271484375
16.769999900000002,-9.950302124023438,1.0534487962722778,0.08140286058187485,9.7503662109375,1.7242431640625,11.3677978515625
16.7899999,-9.988609313964844,1.4413094520568848,-0.15562310814857483,9.4451904296875,-1.6937255859375,5.8746337890625
16.8099999,-9.988609313964844,1.8100165128707886,-0.17238251864910126,3.4942626953125,-1.5411376953125,0.4730224609375
16.8299999,-9.943120002746582,2.030282974243164,-0.035913024097681046,-3.4942626953125,1.617431640625,-1.8157958984375
16.8499999,-9.885659217834473,2.03507137298584,0.19632454216480255,-5.950927734375,1.89208984375,-1.89208984375
16.8699999,-9.86650562286377,1.824381709098816,0.38067805767059326,-3.6773681640625,-0.3204345703125,-1.0986328125
16.8899999,-9.873687744140625,1.4676456451416016,0.5363011956214905,2.8076171875,-0.8087158203125,1.0223388671875
16.9099999,-9.895236015319824,1.1013327836990356,0.6655880808830261,10.8642578125,-0.1373291015625,6.195068359375
16.929999900000002,-10.718840599060059,0.9864110946655273,0.7757213711738586,16.845703125,0.2288818359375,8.1634521484375
16.9499999,-11.453861236572266,0.9050082564353943,0.7924807667732239,17.822265625,1.3275146484375,-7.537841796875
16.9699999,-13.06515884399414,1.2521674633026123,0.6799532771110535,17.76123046875,-3.1890869140625,-8.36181640625
16.9899999,-14.053963661193848,1.5729905366897583,0.4812345504760742,17.059326171875,-41.778564453125,-14.129638671875
17.0099999,-14.166491508483887,1.941697597503662,0.2992752194404602,21.05712890625,-63.65966796875,-26.092529296875
17.0299999,-13.15853214263916,2.2218191623687744,0.20350714027881622,25.146484375,-28.289794921875,-31.707763671875
17.0499999,-11.262324333190918,2.3367409706115723,0.22026655077934265,20.99609375,11.077880859375,-32.1502685546875
17.0699999,-9.138668060302734,2.2697031497955322,0.272938996553421,11.53564453125,12.786865234375,-25.4364013671875
17.089999900000002,-7.419631004333496,2.056619167327881,0.2753331959247589,0.946044921875,-0.9307861328125,-8.5296630859375
17.109999900000002,-6.311115741729736,1.7190368175506592,0.19871874153614044,-5.645751953125,-13.946533203125,11.1541748046875
17.1299999,-5.750872611999512,1.3120225667953491,0.090979665517807,-3.5858154296875,-15.655517578125,18.0816650390625
17.1499999,-5.652710437774658,0.9528923034667969,-0.026336219161748886,6.072998046875,-4.7149658203125,12.3443603515625
17.1699999,-5.937620162963867,0.6655880808830261,-0.07900865375995636,16.2353515625,9.063720703125,5.2032470703125
17.1899999,-6.538564682006836,0.47644615173339844,-0.023942016065120697,21.4080810546875,15.7623291015625,4.2877197265625
17.2099999,-7.378929615020752,0.37828385829925537,0.19632454216480255,20.7977294921875,11.810302734375,8.8348388671875
17.2299999,-8.305485725402832,0.363918662071228,0.5482721924781799,16.8609619140625,1.068115234375,12.969970703125
17.249999900000002,-9.172186851501465,0.42856210470199585,0.9720458984375,11.627197265625,-6.195068359375,11.8408203125
17.269999900000002,-9.830592155456543,0.5578489899635315,1.3982137441635132,7.4462890625,-4.8065185546875,6.6375732421875
17.2899999,-10.26394271850586,0.6967126727104187,1.742978811264038,2.0904541015625,0.7781982421875,3.875732421875
17.3099999,-10.505757331848145,0.8259995579719543,1.9512743949890137,-5.06591796875,2.8839111328125,5.9661865234375
17.3299999,-10.623072624206543,0.9050082564353943,2.013523578643799,-10.4827880859375,0.213623046875,7.904052734375
17.3499999,-10.682928085327148,0.9457096457481384,1.9081788063049316,-12.9547119140625,-1.1138916015625,8.056640625
17.3699999,-10.654197692871094,0.9576807022094727,1.6950948238372803,-13.12255859375,-4.69970703125,6.561279296875
17.3899999,-10.560823440551758,0.9720458984375,1.4245500564575195,-11.810302734375,-7.75146484375,3.7994384765625
17.409999900000003,-10.417171478271484,0.9911994934082031,1.137245774269104,-8.11767578125,-4.9285888671875,-0.244140625
17.429999900000002,-10.20648193359375,1.0199298858642578,0.8978256583213806,-3.23486328125,-2.74658203125,-3.570556640625
17.4499999,-10.017339706420898,1.0606313943862915,0.7230489253997803,-1.03759765625,-2.2430419921875,-2.3040771484375
17.4699999,-9.856928825378418,1.115697979927063,0.5985504388809204,-2.8228759765625,-4.08935546875,0.274658203125
17.4899999,-9.713275909423828,1.1563993692398071,0.5339069962501526,-4.486083984375,-8.7738037109375,-0.701904296875
17.5099999,-9.619902610778809,1.1827356815338135,0.5099649429321289,-2.7923583984375,-3.692626953125,-3.204345703125
17.5299999,-9.59835433959961,1.1779472827911377,0.5099649429321289,0.732421875,11.3983154296875,-4.8065185546875
17.5499999,-9.763554573059082,1.1659762859344482,0.5219359993934631,2.38037109375,13.427734375,-5.157470703125
17.5699999,-10.24000072479248,1.2665326595306396,0.5291185975074768,2.685546875,-3.6468505859375,-11.810302734375
17.589999900000002,-10.74996566772461,1.2449848651885986,0.5027823448181152,6.9122314453125,-6.77490234375,-8.209228515625
17.609999900000002,-11.034875869750977,1.4532804489135742,0.5171475410461426,10.25390625,-7.26318359375,3.8909912109375
17.6299999,-11.015722274780273,1.5179238319396973,0.5722141861915588,9.21630859375,-9.94873046875,-5.2337646484375
17.6499999,-10.63504409790039,1.5610195398330688,0.6847416758537292,6.65283203125,-8.4991455078125,-12.6190185546875
17.6699999,-10.204087257385254,1.5322890281677246,0.8690952062606812,3.1890869140625,-5.79833984375,-8.819580078125
17.6899999,-9.919178009033203,1.3766659498214722,1.094150185585022,-0.2899169921875,-5.7830810546875,-5.9661865234375
17.7099999,-9.739612579345703,1.1803414821624756,1.280897855758667,-3.9520263671875,-2.9144287109375,-5.0048828125
17.7299999,-9.643844604492188,0.9864110946655273,1.3910311460494995,-3.692626953125,1.220703125,-4.2572021484375
17.749999900000002,-9.660603523254395,0.8259995579719543,1.41257905960083,0.823974609375,0.9765625,-4.2572021484375
17.769999900000002,-9.720458984375,0.730231523513794,1.335964560508728,5.8135986328125,-0.79345703125,-2.5482177734375
17.7899999,-9.813833236694336,0.7254431247711182,1.213860273361206,10.43701171875,-0.518798828125,-0.79345703125
17.8099999,-9.895236015319824,0.751779317855835,1.1013327836990356,14.22119140625,-0.30517578125,-2.288818359375
17.8299999,-9.892841339111328,0.8427590131759644,1.1540051698684692,11.8255615234375,0.30517578125,-2.1820068359375
17.8499999,-9.837775230407715,0.950498104095459,1.290474772453308,-0.3814697265625,5.8135986328125,1.46484375
17.8699999,-9.751583099365234,1.0989385843276978,1.601720929145813,-13.5955810546875,14.16015625,2.01416015625
17.8899999,-9.615114212036133,1.2186486721038818,1.8938134908676147,-30.8074951171875,23.8800048828125,2.01416015625
17.909999900000003,-9.583989143371582,1.194706678390503,1.98958158493042,-49.468994140625,32.53173828125,4.33349609375
17.929999900000002,-9.57441234588623,1.2282254695892334,1.764526605606079,-50.6744384765625,34.6832275390625,5.79833984375
17.9499999,-9.725247383117676,1.0582371950149536,1.1252747774124146,-31.524658203125,30.2276611328125,3.3721923828125
17.9699999,-9.995792388916016,0.9074024558067322,0.2513911724090576,1.6326904296875,13.9312744140625,5.31005859375
17.9899999,-10.17296314239502,0.7733271718025208,-0.6727706789970398,30.426025390625,-8.9263916015625,3.4332275390625
18.0099999,-10.321403503417969,0.6991068720817566,-1.2713210582733154,46.1578369140625,-18.61572265625,-7.781982421875
18.0299999,-10.321403503417969,0.7110779285430908,-1.50355863571167,49.072265625,-22.5067138671875,-5.2032470703125
18.0499999,-10.230423927307129,0.7493851184844971,-1.2042834758758545,35.2020263671875,-21.78955078125,2.9754638671875
18.0699999,-10.110713958740234,0.9241618514060974,-0.6153098344802856,14.5111083984375,-23.3612060546875,9.3994140625
18.089999900000002,-9.943120002746582,1.0654197931289673,0.06464344263076782,1.0986328125,-25.8636474609375,9.6282958984375
18.109999900000002,-9.854534149169922,1.2617442607879639,0.7948749661445618,1.6326904296875,-24.59716796875,-3.3111572265625
18.1299999,-9.703699111938477,1.5466543436050415,1.3742717504501343,10.7879638671875,-18.4326171875,-7.1258544921875
18.1499999,-9.591172218322754,1.8507179021835327,1.9704279899597168,8.1787109375,-8.60595703125,-5.3253173828125
18.1699999,-9.5408935546875,1.9847931861877441,2.4588451385498047,-10.19287109375,2.197265625,-5.859375
18.1899999,-9.464279174804688,2.03507137298584,2.779668092727661,-27.618408203125,11.77978515625,-5.9356689453125
18.2099999,-9.48343276977539,1.8339585065841675,2.8371291160583496,-36.4532470703125,16.0369873046875,-9.8876953125
18.2299999,-9.485827445983887,1.4772224426269531,2.6599581241607666,-39.1082763671875,25.115966796875,-12.0086669921875
18.249999900000002,-9.622296333312988,1.0558429956436157,2.2194249629974365,-34.48486328125,31.890869140625,-1.3427734375
18.269999900000002,-9.667786598205566,0.646434485912323,1.7190368175506592,-30.181884765625,33.99658203125,3.7078857421875
18.2899999,-9.840168952941895,0.31842881441116333,1.170764684677124,-27.374267578125,28.0914306640625,7.5836181640625
18.3099999,-10.014945983886719,0.23702596127986908,0.6177040338516235,-20.1568603515625,17.120361328125,4.45556640625
18.3299999,-10.108319282531738,0.19393034279346466,-0.031124621629714966,-1.4190673828125,14.2822265625,-2.105712890625
18.3499999,-10.196905136108398,0.44771572947502136,-0.5315127968788147,24.59716796875,4.21142578125,-0.5950927734375
18.3699999,-10.20648193359375,0.6655880808830261,-0.8882488012313843,32.4859619140625,-8.7432861328125,4.1961669921875
18.3899999,-10.110713958740234,0.9864110946655273,-0.8475474119186401,26.0772705078125,-10.1470947265625,1.64794921875
18.409999900000003,-10.041281700134277,1.292868971824646,-0.5722141861915588,11.5509033203125,-14.5721435546875,-1.2359619140625
18.429999900000002,-9.880870819091797,1.4245500564575195,0.1628057211637497,-13.4124755859375,-8.48388671875,-5.55419921875
18.4499999,-9.797073364257812,1.4508862495422363,0.629675030708313,-35.5072021484375,6.591796875,-1.3885498046875
18.4699999,-9.787496566772461,1.2449848651885986,1.2234370708465576,-31.341552734375,7.9498291015625,5.7373046875
18.4899999,-9.849745750427246,0.9576807022094727,1.1252747774124146,-20.4315185546875,6.8206787109375,7.87353515625
18.5099999,-10.04846477508545,0.5506663918495178,0.7781155705451965,4.180908203125,-5.9356689453125,7.99560546875
18.5299999,-10.218452453613281,0.395043283700943,0.2322375625371933,41.9464111328125,-25.9552001953125,1.5106201171875
18.5499999,-10.230423927307129,0.33758243918418884,-0.2346317619085312,55.511474609375,-28.50341796875,0.6103515625
18.5699999,-10.223240852355957,0.5626373887062073,-0.15562310814857483,48.15673828125,-22.491455078125,1.373291015625
18.589999900000002,-10.022128105163574,0.9983820915222168,0.2322375625371933,27.9541015625,-18.7530517578125,5.43212890625
18.609999900000002,-9.823410034179688,1.3910311460494995,0.912190854549408,1.7852783203125,-7.4920654296875,6.5460205078125
18.6299999,-9.586383819580078,1.7980455160140991,1.6711528301239014,-12.3138427734375,-2.4566650390625,4.6539306640625
18.6499999,-9.528923034667969,2.008735179901123,2.229001760482788,-24.1241455078125,6.3323974609375,-0.213623046875
18.6699999,-9.473855972290039,1.9081788063049316,2.2601263523101807,-24.627685546875,14.70947265625,-2.9296875
18.6899999,-9.639056205749512,1.7334020137786865,2.1308395862579346,-2.86865234375,8.6212158203125,-4.0435791015625
18.7099999,-9.77791976928711,1.4508862495422363,1.6089035272598267,6.2255859375,7.232666015625,-4.3182373046875
18.7299999,-9.907206535339355,1.2258312702178955,1.1492167711257935,0.5035400390625,13.458251953125,-5.5389404296875
18.749999900000002,-9.99339771270752,1.1540051698684692,0.8643068075180054,-3.5247802734375,15.1824951171875,-6.9427490234375
18.769999900000002,-10.02452278137207,1.0965443849563599,0.6943184733390808,-2.4261474609375,11.962890625,-6.9122314453125
18.7899999,-10.050858497619629,0.9744400978088379,0.6009446382522583,-1.6326904296875,10.711669921875,-3.7384033203125
18.8099999,-10.036493301391602,0.8595184087753296,0.5985504388809204,0.1068115234375,11.138916015625,1.6021728515625
18.8299999,-10.108319282531738,0.5937620401382446,0.7374141216278076,2.6702880859375,15.2740478515625,12.4359130859375
18.8499999,-9.950302124023438,0.5147533416748047,0.8690952062606812,-1.2969970703125,16.9219970703125,15.1519775390625
18.8699999,-9.888052940368652,0.35434186458587646,0.8810662031173706,-4.5166015625,15.3045654296875,15.8843994140625
18.8899999,-9.739612579345703,0.3758896589279175,0.751779317855835,1.495361328125,11.810302734375,19.683837890625
18.909999900000003,-9.710882186889648,0.5219359993934631,0.49799394607543945,5.5389404296875,7.720947265625,20.0653076171875
18.929999900000002,-9.761159896850586,0.7805097699165344,0.22026655077934265,0.732421875,6.439208984375,17.852783203125
18.9499999,-9.84256362915039,1.1659762859344482,0.014365210197865963,-4.69970703125,6.5765380859375,13.275146484375
18.9699999,-9.880870819091797,1.5729905366897583,-0.11252748221158981,-5.2490234375,4.7149658203125,7.6446533203125
18.9899999,-9.909601211547852,1.9177556037902832,-0.14365209639072418,-4.45556640625,1.1749267578125,1.8157958984375
19.0099999,-9.938331604003906,2.0614075660705566,-0.08379705995321274,-4.852294921875,-0.4730224609375,-1.220703125
19.0299999,-9.979032516479492,2.0470423698425293,0.07900865375995636,-4.5013427734375,0.091552734375,1.0833740234375
19.0499999,-9.945513725280762,1.8555063009262085,0.2849099934101105,-1.5106201171875,-1.2359619140625,3.8299560546875
19.0699999,-9.904812812805176,1.6376339197158813,0.5291185975074768,1.7242431640625,-0.8544921875,2.9449462890625
19.089999900000002,-9.864110946655273,1.400607943534851,0.7206547260284424,0.3662109375,4.0283203125,2.8076171875
19.109999900000002,-9.806650161743164,1.2234370708465576,0.8020575642585754,-2.1209716796875,6.7138671875,8.30078125
19.1299999,-9.794678688049316,1.1635819673538208,0.8212111592292786,1.8768310546875,3.2501220703125,11.6729736328125
19.1499999,-9.775525093078613,1.1875240802764893,0.730231523513794,6.134033203125,2.7923583984375,9.6893310546875
19.1699999,-9.75637149810791,1.3479355573654175,0.608127236366272,3.8604736328125,6.04248046875,7.4920654296875
19.1899999,-9.75397777557373,1.5658079385757446,0.5003881454467773,-0.9765625,7.4615478515625,5.462646484375
19.2099999,-9.761159896850586,1.766920804977417,0.4189853072166443,-3.8299560546875,6.805419921875,2.6397705078125
19.2299999,-9.821015357971191,1.8914192914962769,0.3256114423274994,-4.45556640625,7.965087890625,1.4495849609375
19.249999900000002,-9.859322547912598,1.9177556037902832,0.19632454216480255,-4.1961669921875,6.866455078125,2.288818359375
19.269999900000002,-10.876858711242676,2.051830768585205,0.20350714027881622,-2.227783203125,1.1444091796875,0.732421875
19.2899999,-12.765883445739746,1.8602946996688843,0.17238251864910126,-1.068115234375,-0.8697509765625,-35.2630615234375
19.3099999,-14.90869426727295,1.9273324012756348,0.23702596127986908,-0.396728515625,-39.581298828125,-67.657470703125
19.3299999,-16.630125045776367,1.7310078144073486,0.21787235140800476,11.932373046875,-67.6116943359375,-66.8487548828125
19.3499999,-16.510414123535156,1.601720929145813,0.17238251864910126,28.13720703125,-63.079833984375,-63.4307861328125
19.3699999,-14.683638572692871,1.525106430053711,0.05267243832349777,40.069580078125,-28.6407470703125,-52.734375
19.3899999,-11.870451927185059,1.4748282432556152,-0.0454898327589035,39.581298828125,-5.3253173828125,-40.008544921875
19.409999900000003,-8.973467826843262,1.45806884765625,-0.035913024097681046,34.48486328125,-18.1121826171875,-27.2979736328125
19.429999900000002,-6.7061591148376465,1.5059528350830078,0.07182604819536209,28.9459228515625,-23.0255126953125,-13.73291015625
19.4499999,-5.185841083526611,1.525106430053711,0.2849099934101105,16.8914794921875,-3.2501220703125,-6.6375732421875
19.4699999,-4.395754337310791,1.5538369417190552,0.5219359993934631,1.9683837890625,18.3258056640625,-6.866455078125
19.4899999,-4.2090067863464355,1.479616641998291,0.629675030708313,-7.9498291015625,32.53173828125,-10.0250244140625
19.5099999,-4.537012100219727,1.2641384601593018,0.5363011956214905,-11.3525390625,36.956787109375,-4.669189453125
19.5299999,-5.219359874725342,0.8858546018600464,0.2585737705230713,-8.5296630859375,25.7720947265625,7.8125
19.5499999,-6.054935932159424,0.38067805767059326,-0.035913024097681046,2.593994140625,8.30078125,14.5263671875
19.5699999,-6.983886241912842,-0.11971008777618408,-0.2513911724090576,17.486572265625,7.9803466796875,15.777587890625
19.589999900000002,-7.920019149780273,-0.45250412821769714,-0.2801215946674347,25.0701904296875,7.4920654296875,16.357421875
19.609999900000002,-8.681375503540039,-0.5554547905921936,-0.08858546614646912,23.13232421875,-8.3160400390625,10.650634765625
19.6299999,-9.255983352661133,-0.4572925269603729,0.28969839215278625,18.6614990234375,-12.7716064453125,2.74658203125
19.6499999,-9.655815124511719,-0.22026655077934265,0.7852981686592102,11.8865966796875,1.9073486328125,2.62451171875
19.6699999,-9.950302124023438,0.07661445438861847,1.2761094570159912,-0.640869140625,13.153076171875,5.889892578125
19.6899999,-10.180145263671875,0.3256114423274994,1.6376339197158813,-12.8173828125,10.833740234375,3.082275390625
19.7099999,-10.407594680786133,0.507570743560791,1.7693150043487549,-16.9219970703125,7.904052734375,0.732421875
19.7299999,-10.587160110473633,0.6153098344802856,1.6711528301239014,-13.7176513671875,11.0321044921875,6.439208984375
19.749999900000002,-10.6925048828125,0.6799532771110535,1.4197616577148438,-9.735107421875,11.6119384765625,11.0626220703125
19.769999900000002,-10.754754066467285,0.7230489253997803,1.1228805780410767,-6.3018798828125,6.3934326171875,6.6680908203125
19.7899999,-10.81460952758789,0.768538773059845,0.8738836050033569,-2.3651123046875,0.2593994140625,2.166748046875
19.8099999,-10.881647109985352,0.8092401623725891,0.7374141216278076,0.152587890625,-4.2877197265625,5.340576171875
19.8299999,-10.931924819946289,0.8307880163192749,0.727837324142456,-0.9613037109375,-4.425048828125,5.9814453125
19.8499999,-10.903194427490234,0.811634361743927,0.7948749661445618,-3.4027099609375,0.0152587890625,-2.9144287109375
19.8699999,-10.788272857666016,0.8092401623725891,0.8882488012313843,-5.67626953125,1.739501953125,-9.6588134765625
19.8899999,-10.57040023803711,0.7972691655158997,0.9265560507774353,-7.8887939453125,3.0059814453125,-8.2550048828125
19.909999900000003,-10.307038307189941,0.7805097699165344,0.8930372595787048,-7.7056884765625,5.5999755859375,-4.974365234375
19.929999900000002,-10.079588890075684,0.768538773059845,0.7948749661445618,-3.5858154296875,5.1422119140625,-2.7008056640625
19.9499999,-9.907206535339355,0.751779317855835,0.6799532771110535,-0.091552734375,-1.495361328125,1.861572265625
19.9699999,-9.80904483795166,0.7924807667732239,0.5770025849342346,0.732421875,-7.3394775390625,7.2021484375
19.9899999,-10.230423927307129,0.9840168952941895,0.5147533416748047,0.5645751953125,-8.8348388671875,0.48828125
20.0099999,-10.551246643066406,1.1061211824417114,0.44771572947502136,2.0599365234375,1.190185546875,-12.8326416015625
20.0299999,-10.92953109741211,1.3000515699386597,0.363918662071228,1.0986328125,1.983642578125,-0.396728515625
20.0499999,-11.037269592285156,1.316810965538025,0.272938996553421,-2.01416015625,-5.1727294921875,-1.0528564453125
20.0699999,-10.72841739654541,1.1899182796478271,0.1867477297782898,-2.655029296875,-7.4615478515625,-6.591796875
20.089999900000002,-10.35252857208252,0.8906430602073669,0.16998831927776337,-2.9754638671875,-7.4920654296875,-2.50244140625
20.109999900000002,-10.11550235748291,0.6105214357376099,0.272938996553421,-5.7220458984375,-8.9569091796875,3.47900390625
20.1299999,-9.952696800231934,0.30885201692581177,0.4141969084739685,-7.537841796875,-9.8419189453125,6.439208984375
20.1499999,-9.8784761428833,0.17238251864910126,0.5482721924781799,-5.0048828125,-8.331298828125,7.781982421875
20.1699999,-9.86889934539795,0.1843535304069519,0.6224924325942993,1.46484375,-9.8114013671875,8.4075927734375
