# Time (seconds),Accel_X,Accel_Y,Accel_Z,Gyro_X,Gyro_Y,Gyro_Z
0.0099999,-10.548852920532227,-0.12928688526153564,0.7541735172271729,-6.7901611328125,-2.1209716796875,-0.274658203125
0.029999900000000003,-10.685321807861328,-0.14365209639072418,0.7422025203704834,-5.55419921875,-1.6937255859375,5.859375
0.0499999,-10.584765434265137,-0.19632454216480255,0.7158663272857666,-4.6234130859375,-2.62451171875,6.2255859375
0.0699999,-10.295066833496094,-0.304063618183136,0.7110779285430908,-3.265380859375,-1.3885498046875,9.7808837890625
0.08999990000000001,-10.103530883789062,-0.4644751250743866,0.7254431247711182,-1.5869140625,-3.2958984375,13.946533203125
0.10999990000000001,-9.897629737854004,-0.6512228846549988,0.7637503147125244,-0.48828125,-6.5765380859375,7.14111328125
0.1299999,-9.926360130310059,-0.8307880163192749,0.7972691655158997,0.6561279296875,-6.103515625,11.138916015625
0.14999990000000002,-9.921571731567383,-0.8547300100326538,0.8212111592292786,1.861572265625,-3.4637451171875,14.6942138671875
0.1699999,-9.945513725280762,-0.7445967197418213,0.8188169598579407,2.3040771484375,-4.5166015625,19.71435546875
0.1899999,-9.962273597717285,-0.44532153010368347,0.7972691655158997,1.2664794921875,-6.317138671875,19.134521484375
0.20999990000000002,-9.967061996459961,-0.06703764945268631,0.751779317855835,-0.823974609375,-8.056640625,16.6778564453125
0.2299999,-9.955090522766113,0.31603461503982544,0.7110779285430908,-3.326416015625,-9.124755859375,13.580322265625
0.2499999,-9.93593692779541,0.6105214357376099,0.6919242739677429,-4.425048828125,-10.3302001953125,9.7198486328125
0.2699999,-9.926360130310059,0.7661445140838623,0.6943184733390808,-4.180908203125,-12.20703125,6.866455078125
0.28999990000000003,-9.919178009033203,0.7972691655158997,0.7182605266571045,-2.62451171875,-14.495849609375,5.5694580078125
0.3099999,-9.916783332824707,0.7445967197418213,0.8212111592292786,0.396728515625,-15.9149169921875,3.814697265625
0.3299999,-9.895236015319824,0.6248866319656372,0.9672574996948242,2.0904541015625,-15.13671875,1.64794921875
0.34999990000000003,-9.864110946655273,0.4836287498474121,1.173158884048462,1.617431640625,-13.153076171875,1.0528564453125
0.3699999,-9.835380554199219,0.33997663855552673,1.403002142906189,0.79345703125,-11.322021484375,2.227783203125
0.3899999,-9.816226959228516,0.19871874153614044,1.6304513216018677,-0.885009765625,-8.3770751953125,3.936767578125
0.40999990000000003,-9.787496566772461,0.0933738648891449,1.7884687185287476,-5.096435546875,-4.2572021484375,5.6304931640625
0.4299999,-9.775525093078613,0.043095629662275314,1.8746598958969116,-8.453369140625,-1.3580322265625,7.2784423828125
0.4499999,-9.787496566772461,0.06703764945268631,1.8914192914962769,-8.8653564453125,-0.06103515625,8.453369140625
0.4699999,-9.81143856048584,0.12449848651885986,1.8171991109848022,-8.30078125,1.3427734375,8.9263916015625
0.4899999,-9.830592155456543,0.21547815203666687,1.6639702320098877,-7.904052734375,2.1514892578125,8.7127685546875
0.5099999,-9.861717224121094,0.30885201692581177,1.4508862495422363,-6.6680908203125,0.3662109375,7.99560546875
0.5299999,-9.90241813659668,0.42377370595932007,1.2545616626739502,-2.777099609375,-2.960205078125,6.6680908203125
0.5499999,-9.938331604003906,0.5123591423034668,1.0989385843276978,1.2359619140625,-5.2337646484375,5.523681640625
0.5699999,-9.955090522766113,0.5961562395095825,1.036689281463623,2.197265625,-6.1187744140625,4.180908203125
0.5899998999999999,-9.940725326538086,0.6416460275650024,1.0295066833496094,1.861572265625,-7.232666015625,2.960205078125
0.6099998999999999,-9.909601211547852,0.6847416758537292,1.1252747774124146,3.0517578125,-8.85009765625,1.8463134765625
0.6299999,-9.864110946655273,0.6799532771110535,1.2449848651885986,3.814697265625,-8.7127685546875,0.54931640625
0.6499999,-9.859322547912598,0.6440402865409851,1.403002142906189,2.9754638671875,-7.2174072265625,0.152587890625
0.6699999,-9.821015357971191,0.6105214357376099,1.6041151285171509,2.044677734375,-6.28662109375,1.373291015625
0.6899999,-9.749189376831055,0.6368576288223267,1.9105730056762695,-2.9144287109375,-2.838134765625,2.105712890625
0.7099999,-9.66299819946289,0.6488286852836609,2.2146365642547607,-14.8773193359375,6.195068359375,0.0152587890625
0.7299998999999999,-9.545681953430176,0.7445967197418213,2.4444799423217773,-25.360107421875,14.923095703125,-2.3040771484375
0.7499998999999999,-9.531316757202148,0.7206547260284424,2.47560453414917,-26.275634765625,17.5628662109375,-2.4261474609375
0.7699999,-9.643844604492188,0.5722141861915588,2.140416383743286,-17.5933837890625,15.838623046875,-0.640869140625
0.7899999,-9.806650161743164,0.3280056416988373,1.6687586307525635,-4.4097900390625,11.53564453125,1.46484375
0.8099999,-10.04846477508545,0.07661445438861847,1.0630255937576294,8.5906982421875,4.7760009765625,2.685546875
0.8299999,-10.153809547424316,-0.06464344263076782,0.6751648783683777,17.5628662109375,-3.11279296875,4.5013427734375
0.8499998999999999,-10.180145263671875,0.05027823522686958,0.4908113479614258,18.9666748046875,-7.9345703125,6.7138671875
0.8699998999999999,-10.101137161254883,0.2777273952960968,0.5171475410461426,13.580322265625,-11.871337890625,5.126953125
0.8899999,-10.041281700134277,0.569819986820221,0.7541735172271729,9.185791015625,-13.9312744140625,0.244140625
0.9099999,-9.8784761428833,0.7469909191131592,1.161187767982483,6.4239501953125,-11.9476318359375,-1.5106201171875
0.9299999,-9.775525093078613,0.8451532125473022,1.5729905366897583,1.4801025390625,-3.47900390625,-2.044677734375
0.9499999,-9.667786598205566,0.811634361743927,1.9105730056762695,-2.0599365234375,4.0283203125,-2.5177001953125
0.9699998999999999,-9.636661529541016,0.790086567401886,2.097320795059204,-2.044677734375,5.18798828125,-1.800537109375
0.9899998999999999,-9.639056205749512,0.7422025203704834,2.1140801906585693,-2.6702880859375,5.7830810546875,0.5645751953125
1.0099999,-9.725247383117676,0.7326257228851318,1.98958158493042,-6.5460205078125,6.77490234375,2.899169921875
1.0299999,-9.782708168029785,0.629675030708313,1.745373010635376,-7.9193115234375,3.23486328125,2.6702880859375
1.0499999,-9.8784761428833,0.6057330369949341,1.53707754611969,-2.593994140625,-2.685546875,-0.762939453125
1.0699999,-9.895236015319824,0.569819986820221,1.357512354850769,2.7313232421875,-4.4097900390625,-4.9591064453125
1.0899999,-9.907206535339355,0.5291185975074768,1.278503656387329,2.3193359375,0.6561279296875,-7.4920654296875
1.1099999,-9.880870819091797,0.4884171485900879,1.3048399686813354,0.2899169921875,4.7149658203125,-5.401611328125
1.1299999,-9.854534149169922,0.395043283700943,1.3646949529647827,-1.617431640625,3.90625,-0.457763671875
1.1499999,-9.876082420349121,0.35434186458587646,1.3431471586227417,-3.7078857421875,2.410888671875,4.21142578125
1.1699998999999999,-9.945513725280762,0.31842881441116333,1.2401964664459229,-1.7242431640625,-1.6632080078125,5.0811767578125
1.1899998999999999,-9.988609313964844,0.42616790533065796,1.1875240802764893,4.9591064453125,-9.9029541015625,3.5400390625
1.2099999,-9.945513725280762,0.5674257874488831,1.216254472732544,8.575439453125,-13.12255859375,-2.0599365234375
1.2299999,-9.825803756713867,0.7757213711738586,1.3958195447921753,4.119873046875,-8.056640625,-8.514404296875
1.2499999,-9.720458984375,0.8834604024887085,1.6184803247451782,-1.861572265625,2.0751953125,-11.6424560546875
1.2699999,-9.648633003234863,0.9648633003234863,1.9297266006469727,-5.0048828125,6.5765380859375,-8.5296630859375
1.2899999,-9.617507934570312,0.8667010068893433,2.1380221843719482,-10.894775390625,9.368896484375,-5.0201416015625
1.3099999,-9.670180320739746,0.7733271718025208,2.1475989818573,-16.7694091796875,13.5650634765625,-3.9825439453125
1.3299999,-9.768342971801758,0.5746083855628967,1.9847931861877441,-14.0380859375,11.3983154296875,-4.2572021484375
1.3499999,-9.854534149169922,0.4141969084739685,1.721431016921997,-5.92041015625,2.716064453125,-3.8604736328125
1.3699999,-9.959878921508789,0.16759411990642548,1.3120225667953491,0.8697509765625,-2.838134765625,-5.3863525390625
1.3899999,-10.012551307678223,-0.05506663769483566,1.0295066833496094,7.080078125,-2.5177001953125,-8.5296630859375
1.4099999,-10.010157585144043,-0.23702596127986908,0.8451532125473022,14.1143798828125,-1.9378662109375,-5.3558349609375
1.4299998999999999,-9.96945571899414,-0.26575639843940735,0.8307880163192749,12.2833251953125,-3.509521484375,2.349853515625
1.4499999,-9.952696800231934,-0.10534487664699554,0.8690952062606812,1.5716552734375,-2.9449462890625,4.6234130859375
1.4699999,-9.950302124023438,0.1628057211637497,1.113303780555725,-4.486083984375,-3.875732421875,2.3345947265625
1.4899999,-9.926360130310059,0.47884035110473633,1.2976573705673218,-5.3253173828125,-3.997802734375,0.7781982421875
1.5099999,-9.9000244140625,0.7182605266571045,1.4724340438842773,-3.509521484375,-7.6141357421875,1.5716552734375
1.5299999,-9.8784761428833,0.8164227604866028,1.678335428237915,-1.2359619140625,-10.7879638671875,-3.1280517578125
1.5499999,-9.821015357971191,0.6536170840263367,1.7741034030914307,-0.8544921875,-8.0718994140625,-7.7667236328125
1.5699999,-9.75637149810791,0.4118026793003082,1.9800047874450684,-1.89208984375,0.579833984375,-6.0272216796875
1.5899999,-9.708487510681152,0.15322890877723694,2.099714994430542,-7.232666015625,7.8277587890625,1.9378662109375
1.6099999,-9.646238327026367,0.021547814831137657,2.1523873805999756,-13.2598876953125,8.9263916015625,5.43212890625
1.6299999,-9.636661529541016,0.08619125932455063,2.0661959648132324,-14.5721435546875,9.1400146484375,4.2572021484375
1.6499999,-9.725247383117676,0.21787235140800476,1.8411411046981812,-9.8724365234375,8.48388671875,3.753662109375
1.6699999,-9.78989028930664,0.4189853072166443,1.5538369417190552,-2.38037109375,0.6561279296875,1.7547607421875
1.6899998999999999,-9.921571731567383,0.5746083855628967,1.2880805730819702,4.4403076171875,-4.8370361328125,-4.7607421875
1.7099999,-9.93593692779541,0.6033388376235962,1.1803414821624756,9.307861328125,-4.8980712890625,-11.5966796875
1.7299999,-9.86650562286377,0.5315127968788147,1.2449848651885986,11.4593505859375,0.9002685546875,-11.627197265625
1.7499999,-9.799467086791992,0.4381389021873474,1.4939818382263184,7.1258544921875,7.2479248046875,-6.378173828125
1.7699999,-9.72285270690918,0.304063618183136,1.7693150043487549,-2.6702880859375,10.1165771484375,-2.74658203125
1.7899999,-9.744400978088379,0.21787235140800476,1.9369091987609863,-12.1612548828125,15.899658203125,-2.25830078125
1.8099999,-9.773131370544434,0.24899697303771973,1.946485996246338,-15.1214599609375,15.6097412109375,0.2593994140625
1.8299999,-9.86650562286377,0.19632454216480255,1.6711528301239014,-12.3748779296875,8.087158203125,0.42724609375
1.8499999,-9.962273597717285,0.1173158809542656,1.314416766166687,-5.0811767578125,0.1983642578125,-0.6561279296875
1.8699999,-10.050858497619629,-0.023942016065120697,0.9385270476341248,7.781982421875,-6.3323974609375,-3.997802734375
1.8899999,-10.046070098876953,-0.10534487664699554,0.6991068720817566,17.27294921875,-7.6751708984375,-5.67626953125
1.9099999,-10.053253173828125,-0.16998831927776337,0.6703764796257019,16.9830322265625,-6.500244140625,-2.8228759765625
1.9299998999999999,-9.931148529052734,-0.0694318488240242,0.8212111592292786,7.6141357421875,-6.3323974609375,2.2125244140625
1.9499999,-9.864110946655273,0.12210428714752197,1.194706678390503,-7.9803466796875,-0.6561279296875,3.8299560546875
1.9699999,-9.785101890563965,0.26815059781074524,1.5155296325683594,-20.3399658203125,2.7923583984375,5.67626953125
1.9899999,-9.746794700622559,0.42616790533065796,1.7717092037200928,-24.200439453125,1.4801025390625,5.06591796875
2.0099999,-9.794678688049316,0.3998316824436188,1.7980455160140991,-19.439697265625,-2.4871826171875,3.90625
2.0299999,-9.840168952941895,0.2849099934101105,1.723825216293335,-8.11767578125,-5.8441162109375,2.3040771484375
2.0499999,-9.907206535339355,0.11971008777618408,1.5107412338256836,5.218505859375,-5.9051513671875,-1.3275146484375
2.0699999,-9.923966407775879,-0.05027823522686958,1.3503297567367554,17.02880859375,-4.0130615234375,-2.1209716796875
2.0899999,-9.904812812805176,0.043095629662275314,1.3479355573654175,20.3399658203125,-5.950927734375,0.885009765625
2.1099999,-9.785101890563965,0.181959331035614,1.5179238319396973,7.965087890625,-2.8076171875,2.777099609375
2.1299999,-9.710882186889648,0.5770025849342346,1.845929503440857,-13.702392578125,7.904052734375,2.105712890625
2.1499999,-9.610325813293457,0.811634361743927,2.1332337856292725,-28.0609130859375,13.9312744140625,-1.6937255859375
2.1699999,-9.643844604492188,0.912190854549408,2.2912509441375732,-27.740478515625,12.4053955078125,-3.7384033203125
2.1899999,-9.739612579345703,0.790086567401886,2.1499931812286377,-17.15087890625,9.307861328125,-4.08935546875
2.2099999,-9.859322547912598,0.45489832758903503,1.7860745191574097,-2.899169921875,7.01904296875,-6.744384765625
2.2299999,-9.99100399017334,0.043095629662275314,1.3527239561080933,12.481689453125,6.4239501953125,-8.392333984375
2.2499999,-10.04846477508545,-0.22026655077934265,0.8858546018600464,22.2015380859375,2.74658203125,-4.9896240234375
2.2699999,-10.079588890075684,-0.35673606395721436,0.6584054827690125,19.6533203125,-1.9073486328125,0.0152587890625
2.2899999,-10.077195167541504,-0.2346317619085312,0.5985504388809204,9.2926025390625,-3.0059814453125,3.23486328125
2.3099999,-9.959878921508789,0.19153612852096558,1.0055646896362305,-4.669189453125,-6.77490234375,2.7618408203125
2.3299999,-9.938331604003906,0.33039984107017517,1.213860273361206,-3.173828125,-10.162353515625,1.77001953125
2.3499999,-9.9000244140625,0.31842881441116333,1.4532804489135742,-2.1820068359375,-8.9569091796875,1.1444091796875
2.3699999,-9.806650161743164,0.2968810200691223,1.678335428237915,-1.190185546875,-6.16455078125,-2.2735595703125
2.3899999,-9.68694019317627,0.2322375625371933,1.922544002532959,-2.3651123046875,2.532958984375,-4.2266845703125
2.4099999,-9.600749015808105,0.2825157940387726,2.1787235736846924,-8.7738037109375,12.3443603515625,-1.4801025390625
2.4299999,-9.567230224609375,0.3663128614425659,2.3032219409942627,-16.5557861328125,16.4642333984375,-0.244140625
2.4499999,-9.619902610778809,0.49799394607543945,2.315192937850952,-20.7977294921875,17.974853515625,0.091552734375
2.4699999,-9.710882186889648,0.49559974670410156,1.9943699836730957,-16.66259765625,16.693115234375,-2.0751953125
2.4899999,-9.871294021606445,0.36152446269989014,1.4915876388549805,-1.3580322265625,7.32421875,-5.0048828125
2.5099999,-10.034099578857422,0.08858546614646912,0.8762778043746948,19.1192626953125,-5.3253173828125,-5.67626953125
2.5299999,-10.177751541137695,-0.22266076505184174,0.4141969084739685,34.515380859375,-15.0146484375,-6.0272216796875
2.5499999,-10.170568466186523,-0.42377370595932007,0.2082955539226532,39.5050048828125,-16.265869140625,-7.75146484375
2.5699999,-10.132261276245117,-0.4213795065879822,0.3711012601852417,34.66796875,-11.23046875,-6.2255859375
2.5899999,-9.99100399017334,-0.2537853717803955,0.8188169598579407,22.9644775390625,-8.5601806640625,-0.8544921875
2.6099999,-9.813833236694336,0.14604631066322327,1.4628572463989258,3.662109375,-4.669189453125,2.960205078125
2.6299999,-9.713275909423828,0.49320554733276367,2.073378562927246,-18.9666748046875,4.791259765625,2.3345947265625
2.6499999,-9.651026725769043,0.7469909191131592,2.516305923461914,-31.7535400390625,12.6800537109375,0.2899169921875
2.6699999,-9.607931137084961,0.7589619159698486,2.6360161304473877,-29.60205078125,11.138916015625,0.244140625
2.6899999,-9.746794700622559,0.4836287498474121,2.4157495498657227,-18.00537109375,7.3699951171875,1.0986328125
2.7099999,-9.818621635437012,0.043095629662275314,1.9345149993896484,-2.7313232421875,2.9754638671875,-0.5340576171875
2.7299999,-9.926360130310059,-0.35913026332855225,1.3024457693099976,10.4827880859375,0.54931640625,-1.77001953125
2.7499999,-10.031704902648926,-0.5602431893348694,0.8068459630012512,15.472412109375,-1.3275146484375,1.52587890625
2.7699999,-10.055646896362305,-0.4213795065879822,0.45250412821769714,11.5203857421875,-5.7830810546875,5.9051513671875
2.7899999,-10.086771965026855,-0.13407529890537262,0.4405331015586853,4.2572021484375,-7.6141357421875,6.072998046875
2.8099999,-10.014945983886719,0.3280056416988373,0.730231523513794,-2.288818359375,-6.89697265625,3.6468505859375
2.8299999,-9.928754806518555,0.6368576288223267,1.2090718746185303,-7.0343017578125,-4.82177734375,0.640869140625
2.8499999,-9.895236015319824,0.7781155705451965,1.6519991159439087,-8.2550048828125,-4.1656494140625,-0.8087158203125
2.8699999,-9.816226959228516,0.7733271718025208,1.987187385559082,-6.195068359375,-1.6021728515625,-2.44140625
2.8899999,-9.770736694335938,0.5291185975074768,2.1068975925445557,-1.6326904296875,-0.244140625,-7.38525390625
2.9099999,-9.677363395690918,0.28730419278144836,2.0805611610412598,5.3558349609375,3.11279296875,-10.1318359375
2.9299999,-9.696516990661621,0.11971008777618408,2.0207061767578125,8.270263671875,9.796142578125,-6.6375732421875
2.9499999,-9.651026725769043,0.043095629662275314,2.049436569213867,4.8065185546875,14.3280029296875,-1.64794921875
2.9699999,-9.68694019317627,0.08858546614646912,1.9704279899597168,-0.0152587890625,17.852783203125,-2.99072265625
2.9899999,-9.725247383117676,0.2513911724090576,1.9608511924743652,-0.3204345703125,18.798828125,-5.06591796875
3.0099999,-9.75637149810791,0.26815059781074524,1.699883222579956,1.52587890625,15.8538818359375,-6.4697265625
3.0299999,-9.885659217834473,0.21547815203666687,1.3886369466781616,5.615234375,8.8653564453125,-7.8582763671875
3.0499999,-10.017339706420898,0.0071826050989329815,0.9648633003234863,11.871337890625,0.9918212890625,-7.9803466796875
3.0699999,-10.079588890075684,-0.2322375625371933,0.629675030708313,14.129638671875,-2.7923583984375,-6.89697265625
3.0899999,-10.122684478759766,-0.45489832758903503,0.3423708379268646,11.71875,-1.52587890625,-4.08935546875
3.1099999,-10.08198356628418,-0.4596867263317108,0.37828385829925537,6.622314453125,-3.570556640625,0.4425048828125
3.1299999,-9.998186111450195,-0.3280056416988373,0.524330198764801,-1.129150390625,-4.94384765625,4.638671875
3.1499999,-9.919178009033203,0.06703764945268631,0.9911994934082031,-14.1143798828125,-2.1514892578125,5.9967041015625
3.1699999,-9.799467086791992,0.35434186458587646,1.4963760375976562,-30.5633544921875,4.8675537109375,2.593994140625
3.1899999,-9.713275909423828,0.646434485912323,2.049436569213867,-40.069580078125,9.46044921875,-0.3509521484375
3.2099999,-9.670180320739746,0.6631938815116882,2.4444799423217773,-46.9512939453125,15.9454345703125,-1.0223388671875
3.2299999,-9.780313491821289,0.4908113479614258,2.5761611461639404,-47.9583740234375,27.2064208984375,-0.7781982421875
3.2499999,-9.775525093078613,0.33758243918418884,2.557007312774658,-39.9932861328125,27.099609375,2.25830078125
3.2699999,-9.86889934539795,0.31603461503982544,2.4899697303771973,-50.96435546875,33.203125,3.4027099609375
3.2899999,-9.72285270690918,0.5770025849342346,2.557007312774658,-80.7037353515625,51.177978515625,1.678466796875
3.3099999,-8.96389102935791,0.5219359993934631,2.078166961669922,-101.9439697265625,68.5577392578125,5.126953125
3.3299999000000002,-8.458714485168457,0.2513911724090576,1.3503297567367554,-70.526123046875,57.9071044921875,5.8135986328125
3.3499999,-8.010998725891113,-0.5817909836769104,-0.17956513166427612,-11.810302734375,36.6973876953125,-3.2501220703125
3.3699999,-8.4108304977417,-1.4245500564575195,-1.8387469053268433,43.914794921875,4.6844482421875,8.880615234375
3.3899999,-9.53849983215332,-1.7094600200653076,-2.6815059185028076,71.10595703125,-25.0396728515625,11.3067626953125
3.4099999,-10.802638053894043,-1.3024457693099976,-2.497152328491211,30.1055908203125,-19.744873046875,14.5721435546875
3.4299999,-11.870451927185059,-0.22266076505184174,-1.1300631761550903,-47.6837158203125,8.087158203125,17.08984375
3.4499999,-12.356474876403809,0.8978256583213806,0.33518823981285095,-120.7733154296875,38.0401611328125,15.899658203125
3.4699999,-12.430695533752441,1.4532804489135742,1.137245774269104,-123.2757568359375,45.8984375,9.307861328125
3.4899999,-12.136208534240723,1.3718775510787964,0.8786720037460327,-47.91259765625,11.8255615234375,2.716064453125
3.5099999,-11.63342571258545,0.7374141216278076,-0.12689268589019775,30.364990234375,-21.2249755859375,-6.3323974609375
3.5299999,-10.927136421203613,0.05746084079146385,-0.8930372595787048,72.2503662109375,-39.1387939453125,-8.5296630859375
3.5499999,-10.144232749938965,-0.3016694188117981,-0.8547300100326538,57.9833984375,-31.3873291015625,-6.16455078125
3.5699999,-9.346963882446289,-0.3208230137825012,-0.12449848651885986,1.922607421875,-3.4027099609375,1.007080078125
3.5899999,-8.71728801727295,-0.1843535304069519,0.7182605266571045,-40.771484375,17.9290771484375,7.7056884765625
3.6099999,-8.355764389038086,-0.11971008777618408,1.0845733880996704,-39.6270751953125,16.754150390625,12.1002197265625
3.6299999,-8.336610794067383,-0.17956513166427612,0.7589619159698486,-10.1470947265625,-0.396728515625,12.7410888671875
3.6499999,-8.609549522399902,-0.21787235140800476,0.11252748221158981,19.3023681640625,-18.1884765625,10.25390625
3.6699999,-9.081207275390625,-0.05746084079146385,-0.29209262132644653,29.9224853515625,-23.3917236328125,7.080078125
3.6899999,-9.567230224609375,0.3256114423274994,-0.2059013396501541,15.6402587890625,-15.3961181640625,2.532958984375
3.7099999,-10.012551307678223,0.8044517636299133,0.2777273952960968,-9.765625,-2.0294189453125,-2.99072265625
3.7299999,-10.35252857208252,1.1109095811843872,0.7709329724311829,-23.8189697265625,7.3699951171875,-6.53076171875
3.7499999,-10.599130630493164,1.1492167711257935,1.0271124839782715,-15.777587890625,6.622314453125,-8.056640625
3.7699999,-10.723628997802734,0.9265560507774353,0.9600749015808105,5.584716796875,-1.0833740234375,-9.9639892578125
3.7899999,-10.663774490356445,0.5722141861915588,0.751779317855835,20.2178955078125,-5.55419921875,-12.9852294921875
3.8099999,-10.436325073242188,0.272938996553421,0.608127236366272,16.3726806640625,-2.7008056640625,-11.7034912109375
3.8299999000000002,-10.02452278137207,0.05746084079146385,0.6368576288223267,0.457763671875,3.60107421875,-7.8887939453125
3.8499999,-9.581595420837402,-0.07182604819536209,0.730231523513794,-13.5040283203125,10.3759765625,-4.08935546875
3.8699999,-9.244012832641602,-0.17717093229293823,0.7398083209991455,-15.56396484375,14.4500732421875,-2.25830078125
3.8899999,-9.107542991638184,-0.2585737705230713,0.5578489899635315,-5.8135986328125,9.9029541015625,-0.79345703125
3.9099999,-9.205705642700195,-0.2753331959247589,0.22505496442317963,6.8359375,0.1678466796875,-0.8544921875
3.9299999,-9.442731857299805,-0.20111294090747833,-0.06224924325942993,12.7105712890625,-7.9803466796875,-4.82177734375
3.9499999,-9.751583099365234,-0.05746084079146385,-0.1628057211637497,8.8653564453125,-6.744384765625,-6.4849853515625
3.9699999,-10.053253173828125,0.13168109953403473,-0.06224924325942993,-1.0986328125,-2.0599365234375,-3.8299560546875
3.9899999,-10.26394271850586,0.2298433631658554,0.15801730751991272,-8.087158203125,-1.1444091796875,-3.2806396484375
4.0099999,-10.412383079528809,0.2346317619085312,0.37828385829925537,-3.90625,-1.5106201171875,-3.814697265625
4.029999900000001,-10.42195987701416,0.0933738648891449,0.545877993106842,7.110595703125,-0.7476806640625,-4.730224609375
4.0499999,-10.333374977111816,-0.12449848651885986,0.6751648783683777,13.7176513671875,1.007080078125,-2.4871826171875
4.069999900000001,-10.225635528564453,-0.2801215946674347,0.730231523513794,9.27734375,3.6468505859375,3.662109375
4.0899999000000005,-10.04846477508545,-0.3758896589279175,0.8307880163192749,-1.5411376953125,7.080078125,5.9967041015625
4.1099999,-9.911994934082031,-0.4213795065879822,0.7948749661445618,-4.2266845703125,12.4969482421875,6.256103515625
4.1299999000000005,-9.806650161743164,-0.40462008118629456,0.7637503147125244,0.9918212890625,12.2528076171875,10.9405517578125
4.1499999,-9.72285270690918,-0.35913026332855225,0.5554547905921936,0.91552734375,8.697509765625,14.617919921875
4.1699999000000005,-9.75637149810791,-0.19393034279346466,0.26336219906806946,-4.5928955078125,4.8828125,14.2364501953125
4.1899999,-9.897629737854004,0.11252748221158981,-0.05746084079146385,-5.615234375,-0.0457763671875,8.5296630859375
4.209999900000001,-10.113107681274414,0.5195417404174805,-0.2537853717803955,-1.220703125,-6.04248046875,1.0223388671875
4.2299999,-10.378864288330078,0.8571242094039917,-0.35673606395721436,0.9765625,-8.209228515625,-3.96728515625
4.249999900000001,-10.625467300415039,0.9672574996948242,-0.2968810200691223,-2.1209716796875,-9.1094970703125,-6.103515625
4.2699999,-10.76193618774414,0.8690952062606812,-0.17477671802043915,-3.11279296875,-11.810302734375,-6.7291259765625
4.289999900000001,-10.754754066467285,0.5410895943641663,-0.002394201699644327,1.373291015625,-13.9312744140625,-4.9591064453125
4.3099999,-10.572794914245605,0.1173158809542656,0.2298433631658554,6.0272216796875,-13.2598876953125,-1.3427734375
4.329999900000001,-10.290278434753418,-0.19393034279346466,0.5123591423034668,5.1116943359375,-9.613037109375,3.35693359375
4.3499999,-9.959878921508789,-0.3208230137825012,0.8044517636299133,0.0762939453125,-5.43212890625,5.06591796875
4.369999900000001,-9.674968719482422,-0.26575639843940735,1.0414776802062988,-4.9285888671875,-0.244140625,3.8299560546875
4.3899999,-9.495404243469238,-0.1388636976480484,1.094150185585022,-6.9732666015625,3.9215087890625,4.8065185546875
4.409999900000001,-9.550470352172852,-0.06464344263076782,0.7924807667732239,-0.1068115234375,1.220703125,6.16455078125
4.4299999,-9.72285270690918,-0.05746084079146385,0.2537853717803955,28.4271240234375,-13.671875,1.312255859375
4.449999900000001,-10.014945983886719,-0.06464344263076782,-0.3998316824436188,63.0950927734375,-32.501220703125,-3.2196044921875
4.4699999,-10.333374977111816,0.011971008032560349,-0.9289502501487732,83.1146240234375,-43.3197021484375,-4.852294921875
4.489999900000001,-10.36449909210205,0.10295066982507706,-0.9241618514060974,86.48681640625,-45.3338623046875,-6.65283203125
4.5099999,-10.32858657836914,0.33758243918418884,-0.4213795065879822,91.033935546875,-46.08154296875,-8.148193359375
4.529999900000001,-9.995792388916016,0.5506663918495178,0.6751648783683777,78.5980224609375,-35.7666015625,-9.0789794921875
4.5499999,-9.782708168029785,0.6823474764823914,1.6112977266311646,48.6297607421875,-13.85498046875,-8.9874267578125
4.569999900000001,-9.567230224609375,0.7445967197418213,2.3127987384796143,39.55078125,-0.9918212890625,-10.7879638671875
4.5899999000000005,-9.730035781860352,0.7134721279144287,2.5019407272338867,50.6439208984375,4.425048828125,-17.9901123046875
4.609999900000001,-9.835380554199219,0.6727706789970398,2.190694570541382,40.6341552734375,0.7781982421875,-20.1416015625
4.6299999000000005,-10.125079154968262,0.6368576288223267,1.8626888990402222,20.721435546875,0.701904296875,-11.3372802734375
4.6499999,-10.103530883789062,0.7326257228851318,1.764526605606079,13.946533203125,-4.0130615234375,-9.490966796875
4.6699999000000005,-9.964667320251465,0.608127236366272,1.8363527059555054,-8.7738037109375,5.157470703125,-6.4849853515625
4.6899999,-9.62947940826416,0.5195417404174805,2.094926595687866,-31.6619873046875,23.86474609375,-6.3323974609375
4.709999900000001,-9.220070838928223,0.36152446269989014,2.2697031497955322,-36.4990234375,28.0303955078125,-1.8463134765625
4.7299999,-9.066842079162598,0.2082955539226532,2.1284453868865967,-43.1365966796875,37.689208984375,4.3182373046875
4.749999900000001,-9.131484985351562,-0.12689268589019775,1.3838485479354858,-39.00146484375,30.4718017578125,-1.9683837890625
4.7699999,-9.452308654785156,-0.3280056416988373,0.5147533416748047,-6.3629150390625,7.1563720703125,-3.7841796875
4.789999900000001,-9.921571731567383,-0.5722141861915588,-0.3280056416988373,20.3704833984375,-10.68115234375,2.0751953125
4.8099999,-10.29746150970459,-0.5746083855628967,-0.5650315880775452,19.3939208984375,-10.7574462890625,1.8463134765625
4.829999900000001,-10.496180534362793,-0.26575639843940735,-0.08619125932455063,2.8228759765625,-1.739501953125,1.0986328125
4.8499999,-10.572794914245605,0.20111294090747833,0.871489405632019,-23.2391357421875,16.0064697265625,3.7689208984375
4.869999900000001,-10.608707427978516,0.6105214357376099,1.8602946996688843,-49.1790771484375,34.1339111328125,0.7781982421875
4.8899999,-10.460267066955566,0.9816226959228516,2.3702597618103027,-61.0198974609375,45.3338623046875,-2.8228759765625
4.909999900000001,-10.90798282623291,0.9409212470054626,2.252943754196167,-51.239013671875,39.36767578125,-0.640869140625
4.9299999,-11.159374237060547,0.6991068720817566,1.522712230682373,-25.1007080078125,15.3045654296875,-18.37158203125
4.949999900000001,-11.657367706298828,0.22026655077934265,0.5171475410461426,6.0272216796875,-11.9171142578125,-18.4326171875
4.9699999,-11.829751014709473,-0.26815059781074524,-0.395043283700943,33.355712890625,-33.843994140625,-7.598876953125
4.989999900000001,-11.554417610168457,-0.5578489899635315,-0.9265560507774353,50.23193359375,-42.2821044921875,-5.2490234375
5.0099999,-10.946290016174316,-0.608127236366272,-0.9576807022094727,53.3447265625,-33.99658203125,-8.2550048828125
5.029999900000001,-10.201693534851074,-0.44771572947502136,-0.5506663918495178,44.12841796875,-22.552490234375,-9.0789794921875
5.0499999,-9.461885452270508,-0.22505496442317963,0.10295066982507706,28.01513671875,-10.92529296875,-9.063720703125
5.069999900000001,-8.882488250732422,0,0.7469909191131592,12.786865234375,7.14111328125,-10.2386474609375
5.0899999000000005,-8.508993148803711,0.14365209639072418,1.2665326595306396,1.9378662109375,20.1873779296875,-9.1552734375
5.109999900000001,-8.336610794067383,0.1173158809542656,1.5155296325683594,-11.8255615234375,27.374267578125,-6.0882568359375
5.1299999000000005,-8.372523307800293,0.028730420395731926,1.434126853942871,-21.8048095703125,32.2113037109375,-3.692626953125
5.1499999,-8.554482460021973,-0.16998831927776337,1.0989385843276978,-13.1988525390625,27.801513671875,0.823974609375
5.1699999000000005,-8.81784439086914,-0.3687070608139038,0.5746083855628967,0.4119873046875,10.009765625,8.3770751953125
5.1899999,-9.090784072875977,-0.5003881454467773,0.05746084079146385,10.711669921875,-11.7034912109375,16.3116455078125
5.209999900000001,-9.327810287475586,-0.5363011956214905,-0.26336219906806946,18.6614990234375,-19.287109375,18.4783935546875
5.2299999,-9.526528358459473,-0.47165772318840027,-0.33279404044151306,25.115966796875,-8.575439453125,9.9945068359375
5.249999900000001,-9.694122314453125,-0.3280056416988373,-0.16998831927776337,27.435302734375,0.42724609375,-1.1444091796875
5.2699999,-9.84495735168457,-0.14844051003456116,0.1388636976480484,24.3377685546875,-6.40869140625,-4.5928955078125
5.289999900000001,-9.919178009033203,-0.002394201699644327,0.49799394607543945,18.646240234375,-16.2506103515625,-1.3885498046875
5.3099999,-9.909601211547852,0.08858546614646912,0.8475474119186401,13.24462890625,-15.2130126953125,3.6468505859375
5.329999900000001,-9.854534149169922,0.12210428714752197,1.1324573755264282,7.904052734375,-6.439208984375,7.8887939453125
5.3499999,-9.799467086791992,0.11252748221158981,1.2976573705673218,2.0599365234375,-0.3509521484375,7.4615478515625
5.369999900000001,-9.775525093078613,0.08379705995321274,1.3455413579940796,-2.0904541015625,0.5340576171875,2.227783203125
5.3899999,-9.794678688049316,0.043095629662275314,1.2761094570159912,-2.6092529296875,2.62451171875,-0.762939453125
5.409999900000001,-9.720458984375,0.08619125932455063,1.2042834758758545,-1.77001953125,1.251220703125,2.38037109375
5.4299999,-9.751583099365234,-0.05267243832349777,1.0007762908935547,-0.7476806640625,13.336181640625,5.1727294921875
5.449999900000001,-9.730035781860352,-0.004788403399288654,0.9050082564353943,2.0751953125,23.3001708984375,5.645751953125
5.4699999,-9.861717224121094,-0.1173158809542656,0.7182605266571045,2.9144287109375,23.6968994140625,1.6021728515625
5.489999900000001,-10.043676376342773,-0.12928688526153564,0.5913678407669067,2.8839111328125,12.0086669921875,-5.55419921875
5.5099999,-10.182539939880371,-0.1364694982767105,0.49799394607543945,2.777099609375,2.7008056640625,-11.444091796875
5.529999900000001,-10.211270332336426,-0.14365209639072418,0.45250412821769714,3.8299560546875,-3.6468505859375,-6.9122314453125
5.5499999,-10.113107681274414,-0.14844051003456116,0.45489832758903503,4.669189453125,-5.523681640625,3.23486328125
5.569999900000001,-9.938331604003906,-0.15083470940589905,0.5003881454467773,4.8370361328125,-2.5177001953125,9.490966796875
5.5899999000000005,-9.830592155456543,-0.11971008777618408,0.569819986820221,5.43212890625,2.777099609375,11.260986328125
5.609999900000001,-9.86889934539795,-0.05506663769483566,0.6607996821403503,4.8065185546875,1.8768310546875,10.4217529296875
5.6299999000000005,-10.02452278137207,0.023942016065120697,0.7350199222564697,1.8768310546875,0.579833984375,5.1116943359375
5.6499999,-10.249577522277832,0.11252748221158981,0.7948749661445618,-0.9307861328125,7.4920654296875,-2.4261474609375
5.6699999000000005,-10.484209060668945,0.21787235140800476,0.8188169598579407,-2.1820068359375,17.6544189453125,-8.7890625
5.6899999,-10.649409294128418,0.24420857429504395,0.7613561153411865,-2.8839111328125,20.782470703125,-16.5557861328125
5.709999900000001,-10.759542465209961,0.2322375625371933,0.6440402865409851,-2.3345947265625,9.7503662109375,-22.15576171875
5.7299999,-10.733205795288086,0.1149216815829277,0.47644615173339844,0.5340576171875,-4.6539306640625,-22.76611328125
5.749999900000001,-10.565611839294434,-0.07661445438861847,0.31364041566848755,5.6304931640625,-11.9781494140625,-19.073486328125
5.7699999,-10.278307914733887,-0.28969839215278625,0.2059013396501541,10.4827880859375,-15.7928466796875,-11.16943359375
5.789999900000001,-9.940725326538086,-0.45010992884635925,0.19871874153614044,13.702392578125,-21.5301513671875,-2.1514892578125
5.8099999,-9.636661529541016,-0.5291185975074768,0.2777273952960968,15.6097412109375,-23.6968994140625,3.143310546875
5.829999900000001,-9.411606788635254,-0.507570743560791,0.4381389021873474,16.815185546875,-19.1192626953125,4.852294921875
5.8499999,-9.320627212524414,-0.4118026793003082,0.6416460275650024,16.876220703125,-11.29150390625,4.8675537109375
5.869999900000001,-9.337387084960938,-0.29209262132644653,0.8619126081466675,14.70947265625,-8.270263671875,3.6773681640625
5.8899999,-9.459490776062012,-0.15562310814857483,1.070208191871643,10.6201171875,-9.9639892578125,0.213623046875
5.909999900000001,-9.605537414550781,-0.05027823522686958,1.256955862045288,5.7830810546875,-7.598876953125,-5.4931640625
5.9299999,-9.715670585632324,0.019153613597154617,1.41257905960083,0.732421875,0.6256103515625,-9.002685546875
5.949999900000001,-9.749189376831055,0.0454898327589035,1.5275006294250488,-4.3487548828125,6.0577392578125,-7.568359375
5.9699999,-9.6989107131958,0.026336219161748886,1.5873557329177856,-8.30078125,3.1890869140625,-3.96728515625
5.989999900000001,-9.469067573547363,-0.05506663769483566,1.5538369417190552,-8.4381103515625,-0.1678466796875,2.86865234375
6.0099999,-9.385271072387695,-0.07182604819536209,1.501164436340332,-7.4920654296875,0.4730224609375,5.340576171875
6.029999900000001,-9.368511199951172,-0.05985504388809204,1.4652514457702637,-8.026123046875,-4.8675537109375,6.3629150390625
6.0499999,-9.442731857299805,-0.031124621629714966,1.45806884765625,-9.765625,-11.2762451171875,5.67626953125
6.069999900000001,-9.545681953430176,-0.014365210197865963,1.4772224426269531,-11.5814208984375,-15.3656005859375,6.256103515625
6.0899999000000005,-9.658209800720215,-0.019153613597154617,1.50355863571167,-12.7105712890625,-14.6484375,8.6517333984375
6.109999900000001,-9.768342971801758,-0.040701430290937424,1.5083470344543457,-12.4053955078125,-6.988525390625,7.232666015625
6.1299999000000005,-9.852140426635742,-0.07182604819536209,1.4700398445129395,-11.5203857421875,-0.8087158203125,1.861572265625
6.149999900000001,-9.9000244140625,-0.09576806426048279,1.3910311460494995,-11.29150390625,-4.791259765625,1.708984375
6.1699999000000005,-9.885659217834473,-0.11252748221158981,1.2832920551300049,-11.0321044921875,-12.2528076171875,8.270263671875
6.1899999,-9.799467086791992,-0.12449848651885986,1.1659762859344482,-9.9945068359375,-13.3514404296875,13.458251953125
6.209999900000001,-9.701305389404297,-0.10534487664699554,1.0534487962722778,-9.2620849609375,-9.4757080078125,14.46533203125
6.2299999,-9.658209800720215,-0.07661445438861847,0.9361328482627869,-9.46044921875,-4.4708251953125,12.969970703125
6.249999900000001,-9.710882186889648,-0.033518824726343155,0.8212111592292786,-8.514404296875,1.2969970703125,9.09423828125
6.2699999,-9.830592155456543,-0.019153613597154617,0.7015010714530945,-5.7373046875,6.500244140625,4.8370361328125
6.289999900000001,-9.99100399017334,-0.031124621629714966,0.6009446382522583,-3.8909912109375,5.4779052734375,4.6539306640625
6.3099999,-10.165780067443848,-0.06464344263076782,0.5386953949928284,-3.082275390625,4.1046142578125,5.9967041015625
6.329999900000001,-10.335768699645996,-0.09576806426048279,0.5123591423034668,-0.8697509765625,8.636474609375,2.13623046875
6.3499999,-10.460267066955566,-0.12928688526153564,0.524330198764801,1.9378662109375,8.697509765625,-3.662109375
6.369999900000001,-10.496180534362793,-0.15083470940589905,0.5482721924781799,3.082275390625,0.0152587890625,-3.60107421875
6.3899999,-10.405200958251953,-0.16998831927776337,0.6009446382522583,4.058837890625,-4.6844482421875,0.4730224609375
6.409999900000001,-10.254365921020508,-0.1604115068912506,0.6631938815116882,6.103515625,6.89697265625,1.1749267578125
6.4299999,-10.108319282531738,-0.12449848651885986,0.7350199222564697,7.3394775390625,16.41845703125,-1.3580322265625
6.449999900000001,-10.055646896362305,-0.05746084079146385,0.8259995579719543,5.6915283203125,7.7667236328125,-0.91552734375
6.4699999,-10.098742485046387,0.019153613597154617,0.9169792532920837,2.8076171875,-2.0751953125,0.4119873046875
6.489999900000001,-10.134655952453613,0.08858546614646912,1.0031704902648926,1.2969970703125,-0.030517578125,-3.6773681640625
6.5099999,-10.0580415725708,0.1388636976480484,1.0582371950149536,1.1138916015625,8.2550048828125,-8.0413818359375
6.529999900000001,-9.837775230407715,0.17956513166427612,1.048660397529602,2.01416015625,13.7481689453125,-3.3721923828125
6.5499999,-9.710882186889648,0.22026655077934265,1.0247182846069336,4.21142578125,12.5885009765625,7.4920654296875
6.569999900000001,-9.840168952941895,0.22505496442317963,0.9648633003234863,5.4168701171875,-0.9765625,7.8277587890625
6.5899999000000005,-9.979032516479492,0.23942017555236816,0.933738648891449,5.67626953125,-8.544921875,-6.53076171875
6.609999900000001,-10.44350814819336,0.17238251864910126,0.9217676520347595,7.9803466796875,-6.927490234375,3.631591796875
6.6299999000000005,-10.524910926818848,0.17717093229293823,0.9217676520347595,9.58251953125,-5.7525634765625,8.3770751953125
6.649999900000001,-10.448296546936035,0.15322890877723694,0.9026140570640564,11.0015869140625,-7.293701171875,5.7830810546875
6.6699999000000005,-10.254365921020508,0.16759411990642548,0.8930372595787048,13.2293701171875,-9.033203125,2.655029296875
6.6899999,-10.012551307678223,0.2513911724090576,0.9409212470054626,13.336181640625,-9.9334716796875,1.861572265625
6.709999900000001,-9.864110946655273,0.33758243918418884,1.048660397529602,8.5906982421875,-8.2244873046875,2.62451171875
6.7299999,-9.787496566772461,0.4165911078453064,1.1899182796478271,2.105712890625,-5.218505859375,2.3956298828125
6.749999900000001,-9.72285270690918,0.5147533416748047,1.3694833517074585,-3.326416015625,-2.9449462890625,1.2664794921875
6.7699999,-9.674968719482422,0.5889736413955688,1.5203180313110352,-7.7667236328125,-0.4119873046875,0.274658203125
6.789999900000001,-9.66539192199707,0.6607996821403503,1.647210717201233,-13.3209228515625,3.3721923828125,-1.068115234375
6.8099999,-9.725247383117676,0.6512228846549988,1.7070658206939697,-20.8740234375,7.6751708984375,-2.5634765625
6.829999900000001,-9.804255485534668,0.5841852426528931,1.6663644313812256,-24.322509765625,8.9111328125,-2.8076171875
6.8499999,-9.854534149169922,0.4118026793003082,1.5418659448623657,-22.6593017578125,10.528564453125,-1.40380859375
6.869999900000001,-9.892841339111328,0.2082955539226532,1.292868971824646,-15.380859375,10.589599609375,-0.67138671875
6.8899999,-9.99100399017334,-0.07182604819536209,0.9217676520347595,-4.150390625,5.2490234375,0.91552734375
6.909999900000001,-10.079588890075684,-0.16759411990642548,0.5722141861915588,4.608154296875,-2.8228759765625,3.84521484375
6.9299999,-10.20648193359375,-0.2513911724090576,0.2849099934101105,8.9263916015625,-9.7503662109375,5.5694580078125
6.949999900000001,-10.247182846069336,-0.090979665517807,0.11252748221158981,11.2762451171875,-15.9759521484375,4.0283203125
6.9699999,-10.201693534851074,0.1628057211637497,0.24899697303771973,14.2974853515625,-20.3704833984375,-0.946044921875
6.989999900000001,-10.125079154968262,0.42377370595932007,0.5434837937355042,15.625,-20.8587646484375,-5.8746337890625
7.0099999,-9.95748519897461,0.6991068720817566,1.048660397529602,12.237548828125,-15.655517578125,-9.4451904296875
7.029999900000001,-9.823410034179688,0.7996633648872375,1.5729905366897583,6.256103515625,-5.7525634765625,-11.8560791015625
7.0499999,-9.674968719482422,0.8403648138046265,1.9776105880737305,0.244140625,1.5106201171875,-12.14599609375
7.069999900000001,-9.588777542114258,0.8595184087753296,2.2649147510528564,-6.744384765625,5.584716796875,-11.71875
7.0899999000000005,-9.59596061706543,0.667982280254364,2.3032219409942627,-15.0299072265625,12.176513671875,-10.6201171875
7.109999900000001,-9.670180320739746,0.4429273009300232,2.212242364883423,-21.0418701171875,18.0816650390625,-6.3323974609375
7.1299999000000005,-9.749189376831055,0.17717093229293823,1.9512743949890137,-20.5841064453125,17.120361328125,-2.13623046875
7.149999900000001,-9.86889934539795,-0.12210428714752197,1.5322890281677246,-12.725830078125,8.8348388671875,-3.173828125
7.1699999000000005,-9.99339771270752,-0.33279404044151306,1.1204863786697388,-0.6103515625,2.25830078125,-6.2713623046875
7.1899999,-10.077195167541504,-0.47644615173339844,0.6847416758537292,8.9263916015625,-1.52587890625,-6.6375732421875
7.209999900000001,-10.101137161254883,-0.5051765441894531,0.4668693244457245,14.2822265625,-1.953125,-5.92041015625
7.2299999,-10.077195167541504,-0.4572925269603729,0.3926490843296051,17.88330078125,-3.814697265625,-5.4779052734375
7.249999900000001,-10.041281700134277,-0.3256114423274994,0.4596867263317108,17.303466796875,-6.40869140625,-4.1961669921875
7.2699999,-9.99100399017334,-0.21547815203666687,0.6344634294509888,11.322021484375,-6.3629150390625,-0.9002685546875
7.289999900000001,-9.938331604003906,-0.023942016065120697,0.9385270476341248,3.753662109375,-4.7760009765625,1.708984375
7.3099999,-9.90241813659668,0.07182604819536209,1.1851298809051514,-1.2054443359375,-4.3182373046875,1.9989013671875
7.329999900000001,-9.873687744140625,0.1412578970193863,1.4317326545715332,-4.0435791015625,-6.6375732421875,-0.0457763671875
7.3499999,-9.854534149169922,0.13407529890537262,1.5897499322891235,-5.340576171875,-6.103515625,-1.6632080078125
7.369999900000001,-9.84256362915039,0.05746084079146385,1.6184803247451782,-4.33349609375,-4.5623779296875,-2.7008056640625
7.3899999,-9.840168952941895,-0.07182604819536209,1.5729905366897583,-2.5177001953125,0.1068115234375,-3.2958984375
7.409999900000001,-9.856928825378418,-0.15562310814857483,1.4652514457702637,-2.86865234375,1.4801025390625,-1.068115234375
7.4299999,-9.873687744140625,-0.2082955539226532,1.3431471586227417,-4.5318603515625,-0.42724609375,2.0294189453125
7.449999900000001,-9.907206535339355,-0.16759411990642548,1.2737152576446533,-4.608154296875,-1.9073486328125,3.2806396484375
7.4699999,-9.909601211547852,-0.07182604819536209,1.256955862045288,-3.0059814453125,-1.28173828125,1.9683837890625
7.489999900000001,-9.926360130310059,0.0454898327589035,1.3120225667953491,-2.1514892578125,-2.44140625,1.434326171875
7.5099999,-9.911994934082031,0.1628057211637497,1.4053963422775269,-2.3193359375,-5.5389404296875,-1.5716552734375
7.529999900000001,-9.895236015319824,0.17477671802043915,1.534683346748352,-3.2196044921875,-4.3182373046875,-5.4473876953125
7.5499999,-9.825803756713867,0.1364694982767105,1.6687586307525635,-4.57763671875,1.983642578125,-8.1939697265625
7.569999900000001,-9.773131370544434,0.009576806798577309,1.800439715385437,-5.4779052734375,9.674072265625,-5.6610107421875
7.5899999000000005,-9.727641105651855,-0.11971008777618408,1.8195933103561401,-6.317138671875,11.3372802734375,-0.244140625
7.609999900000001,-9.801861763000488,-0.272938996553421,1.699883222579956,-4.6539306640625,9.27734375,2.1514892578125
7.6299999000000005,-9.821015357971191,-0.4596867263317108,1.558625340461731,0.091552734375,5.523681640625,1.190185546875
7.649999900000001,-9.890447616577148,-0.33039984107017517,1.2856862545013428,1.708984375,3.47900390625,-0.1220703125
7.6699999000000005,-9.95748519897461,-0.2537853717803955,1.137245774269104,0.79345703125,3.1280517578125,2.13623046875
7.6899999,-10.014945983886719,0.014365210197865963,0.9911994934082031,3.2958984375,-3.204345703125,1.2359619140625
7.709999900000001,-10.08198356628418,0.16759411990642548,0.9576807022094727,6.4239501953125,-7.720947265625,-4.9285888671875
7.7299999,-10.017339706420898,0.23702596127986908,1.1348515748977661,3.265380859375,-5.218505859375,-9.70458984375
7.749999900000001,-9.8784761428833,0.11013327538967133,1.3958195447921753,-6.77490234375,7.0648193359375,-8.087158203125
7.7699999,-9.785101890563965,0.028730420395731926,1.6615760326385498,-15.380859375,16.387939453125,-1.8768310546875
7.789999900000001,-9.725247383117676,-0.1412578970193863,1.7501614093780518,-16.845703125,14.6942138671875,1.190185546875
7.8099999,-9.794678688049316,-0.26336219906806946,1.6160861253738403,-12.1307373046875,9.796142578125,-0.5035400390625
7.829999900000001,-9.876082420349121,-0.27054479718208313,1.2066776752471924,-4.33349609375,6.1492919921875,-0.91552734375
7.8499999,-10.022128105163574,-0.3519476354122162,0.7637503147125244,6.683349609375,-1.3885498046875,0.18310546875
7.869999900000001,-10.077195167541504,-0.2753331959247589,0.44771572947502136,16.845703125,-14.9688720703125,-2.1209716796875
7.8899999,-10.096348762512207,-0.272938996553421,0.33758243918418884,19.134521484375,-19.83642578125,-6.2103271484375
7.909999900000001,-10.038887977600098,-0.24899697303771973,0.545877993106842,14.95361328125,-16.05224609375,-9.033203125
7.9299999,-9.919178009033203,-0.26575639843940735,0.9265560507774353,10.3759765625,-9.9029541015625,-8.819580078125
7.949999900000001,-9.80904483795166,-0.2968810200691223,1.41257905960083,4.5928955078125,-3.0364990234375,-2.5634765625
7.9699999,-9.763554573059082,-0.2968810200691223,1.7932571172714233,-1.9073486328125,0.640869140625,2.532958984375
7.989999900000001,-9.72285270690918,-0.30885201692581177,2.049436569213867,-5.9814453125,2.838134765625,2.9296875
8.0099999,-9.780313491821289,-0.21787235140800476,2.2673089504241943,-9.1705322265625,7.354736328125,2.5787353515625
8.0299999,-9.775525093078613,-0.1604115068912506,2.1763293743133545,-12.115478515625,8.453369140625,4.3792724609375
8.049999900000001,-9.864110946655273,-0.021547814831137657,1.9800047874450684,-13.1378173828125,5.3863525390625,3.5400390625
8.069999900000001,-9.916783332824707,0.05746084079146385,1.6280571222305298,-9.8419189453125,2.3040771484375,-2.7008056640625
8.0899999,-9.947908401489258,-0.026336219161748886,1.1563993692398071,-4.8065185546875,-1.2054443359375,-8.1939697265625
8.1099999,-9.911994934082031,-0.15322890877723694,0.9193734526634216,-0.1678466796875,0.30517578125,-9.2926025390625
8.129999900000001,-9.859322547912598,-0.33518823981285095,0.8259995579719543,3.7689208984375,4.638671875,-5.9356689453125
8.149999900000001,-9.890447616577148,-0.4572925269603729,0.8978256583213806,5.2490234375,2.655029296875,-1.9989013671875
8.1699999,-9.859322547912598,-0.4644751250743866,1.170764684677124,1.8157958984375,1.40380859375,-1.251220703125
8.1899999,-9.907206535339355,-0.33758243918418884,1.259350061416626,-4.3792724609375,4.7607421875,-0.9765625
8.2099999,-9.947908401489258,-0.24660277366638184,1.3862427473068237,-7.0648193359375,5.035400390625,-0.9765625
8.229999900000001,-9.928754806518555,-0.19153612852096558,1.292868971824646,-5.1422119140625,0.7781982421875,-1.4801025390625
8.2499999,-9.981427192687988,-0.1843535304069519,1.2042834758758545,-0.0762939453125,-6.0577392578125,-0.5645751953125
8.2699999,-9.986215591430664,-0.31842881441116333,1.1635819673538208,4.180908203125,-7.965087890625,-1.708984375
8.2899999,-9.955090522766113,-0.47644615173339844,1.2066776752471924,6.2255859375,-6.683349609375,-4.5166015625
8.309999900000001,-9.931148529052734,-0.5578489899635315,1.2306196689605713,7.293701171875,-3.2196044921875,-5.0811767578125
8.3299999,-9.916783332824707,-0.608127236366272,1.3479355573654175,7.5225830078125,-2.0904541015625,-1.03759765625
8.3499999,-9.861717224121094,-0.4381389021873474,1.4891934394836426,1.5716552734375,-1.678466796875,3.0670166015625
8.3699999,-9.837775230407715,-0.23702596127986908,1.6424223184585571,-10.1165771484375,5.18798828125,0.8697509765625
8.389999900000001,-9.787496566772461,-0.028730420395731926,1.7693150043487549,-17.425537109375,10.3759765625,-1.8768310546875
8.4099999,-9.72285270690918,0.016759412363171577,1.8124107122421265,-14.8773193359375,7.659912109375,-2.9754638671875
8.4299999,-9.739612579345703,-0.021547814831137657,1.7286136150360107,-7.537841796875,5.889892578125,-2.044677734375
8.4499999,-9.847352027893066,-0.24660277366638184,1.53707754611969,2.4261474609375,4.241943359375,-1.64794921875
8.469999900000001,-9.955090522766113,-0.47165772318840027,1.4053963422775269,12.5732421875,2.5787353515625,-4.1656494140625
8.4899999,-10.029311180114746,-0.6129156351089478,1.2641384601593018,18.524169921875,3.11279296875,-6.591796875
8.5099999,-9.99100399017334,-0.6560112833976746,1.1204863786697388,20.233154296875,5.584716796875,-6.89697265625
8.5299999,-9.971850395202637,-0.545877993106842,1.0582371950149536,18.157958984375,5.7830810546875,-5.3863525390625
8.549999900000001,-9.921571731567383,-0.3663128614425659,1.01753568649292,11.7645263671875,3.6163330078125,-6.2408447265625
8.569999900000001,-9.93354320526123,-0.07661445438861847,1.0127472877502441,2.5482177734375,4.241943359375,-6.3323974609375
8.5899999,-10.036493301391602,0.05027823522686958,1.0558429956436157,-6.8359375,6.5460205078125,-6.622314453125
8.6099999,-10.017339706420898,0.10055647045373917,1.0558429956436157,-9.09423828125,3.692626953125,-8.1329345703125
8.629999900000001,-10.089165687561035,-0.05506663769483566,1.01753568649292,-1.251220703125,-4.058837890625,-10.9100341796875
8.649999900000001,-10.11789608001709,-0.3471592366695404,0.9528923034667969,11.993408203125,-9.4757080078125,-10.3912353515625
8.6699999,-10.079588890075684,-0.6847416758537292,0.9002198576927185,21.453857421875,-12.2222900390625,-9.4757080078125
8.6899999,-10.108319282531738,-1.05105459690094,0.7805097699165344,29.8004150390625,-14.801025390625,-8.3770751953125
8.709999900000001,-9.986215591430664,-1.1635819673538208,0.912190854549408,37.3382568359375,-17.974853515625,-5.0201416015625
8.729999900000001,-9.952696800231934,-1.1540051698684692,1.0797849893569946,25.08544921875,-13.7939453125,-1.6632080078125
8.7499999,-9.840168952941895,-0.9074024558067322,1.45806884765625,1.953125,-6.3629150390625,0.823974609375
8.7699999,-9.706093788146973,-0.5793967843055725,1.8770540952682495,-16.5252685546875,0.732421875,1.6632080078125
8.7899999,-9.607931137084961,-0.304063618183136,2.185906171798706,-24.9786376953125,7.2174072265625,0.457763671875
8.809999900000001,-9.564835548400879,-0.19632454216480255,2.293645143508911,-25.0244140625,11.4288330078125,-0.4730224609375
8.8299999,-9.646238327026367,-0.21787235140800476,2.207453966140747,-21.8353271484375,13.9923095703125,1.64794921875
8.8499999,-9.837775230407715,-0.363918662071228,1.965639591217041,-17.181396484375,11.9171142578125,4.791259765625
8.8699999,-10.074800491333008,-0.49799394607543945,1.6735470294952393,-11.8865966796875,8.4075927734375,1.5106201171875
8.889999900000001,-10.266336441040039,-0.6033388376235962,1.3311761617660522,-7.3394775390625,11.53564453125,-2.1820068359375
8.9099999,-10.522516250610352,-0.6129156351089478,1.0462661981582642,-2.3651123046875,15.7470703125,0.8392333984375
8.9299999,-10.673351287841797,-0.5889736413955688,0.7781155705451965,3.0059814453125,7.8277587890625,0.1068115234375
8.9499999,-10.757147789001465,-0.5171475410461426,0.6153098344802856,9.4146728515625,5.5694580078125,-5.8135986328125
8.969999900000001,-10.72841739654541,-0.44532153010368347,0.5482721924781799,14.2669677734375,2.4871826171875,-7.6751708984375
8.9899999,-10.560823440551758,-0.3758896589279175,0.586579442024231,15.7470703125,-3.4332275390625,-5.6610107421875
9.0099999,-10.292673110961914,-0.33279404044151306,0.7134721279144287,15.2740478515625,-5.0048828125,-3.90625
9.0299999,-10.029311180114746,-0.31364041566848755,0.8930372595787048,14.129638671875,-2.105712890625,-1.40380859375
9.049999900000001,-9.830592155456543,-0.3208230137825012,1.091755986213684,11.1236572265625,-1.7242431640625,1.495361328125
9.069999900000001,-9.75397777557373,-0.3519476354122162,1.2761094570159912,6.9732666015625,-3.387451171875,0.91552734375
9.0899999,-9.773131370544434,-0.40462008118629456,1.414973258972168,3.4332275390625,-2.5482177734375,-3.72314453125
9.1099999,-9.837775230407715,-0.4908113479614258,1.4844050407409668,1.46484375,2.0751953125,-8.5906982421875
9.129999900000001,-9.873687744140625,-0.5961562395095825,1.4867992401123047,-0.0152587890625,2.9144287109375,-9.3536376953125
9.149999900000001,-9.854534149169922,-0.7206547260284424,1.436521053314209,-1.7547607421875,-0.9307861328125,-6.5765380859375
9.1699999,-9.799467086791992,-0.8331822156906128,1.359906554222107,-2.7923583984375,-3.35693359375,-3.5400390625
9.1899999,-9.730035781860352,-0.9313444495201111,1.2832920551300049,-2.2430419921875,-1.9378662109375,-2.6702880859375
9.209999900000001,-9.694122314453125,-1.0079588890075684,1.2258312702178955,-0.9765625,0.640869140625,-3.936767578125
9.229999900000001,-9.706093788146973,-1.070208191871643,1.1994950771331787,-0.579833984375,0.4119873046875,-7.568359375
9.2499999,-9.761159896850586,-1.115697979927063,1.2042834758758545,-1.5716552734375,-1.129150390625,-13.24462890625
9.2699999,-9.835380554199219,-1.1540051698684692,1.2401964664459229,-2.655029296875,-1.6937255859375,-17.9443359375
9.2899999,-9.9000244140625,-1.1755530834197998,1.2976573705673218,-3.4332275390625,-2.471923828125,-19.9127197265625
9.309999900000001,-9.926360130310059,-1.1971008777618408,1.3694833517074585,-4.119873046875,-3.875732421875,-20.1873779296875
9.3299999,-9.928754806518555,-1.2114660739898682,1.4508862495422363,-4.8828125,-3.6773681640625,-19.34814453125
9.3499999,-9.921571731567383,-1.2449848651885986,1.5490485429763794,-5.462646484375,-0.3509521484375,-18.5394287109375
9.3699999,-9.950302124023438,-1.278503656387329,1.647210717201233,-6.53076171875,2.2735595703125,-17.7154541015625
9.389999900000001,-9.998186111450195,-1.3263877630233765,1.7381904125213623,-8.9569091796875,-0.8087158203125,-17.5628662109375
9.4099999,-10.046070098876953,-1.3838485479354858,1.8100165128707886,-12.3291015625,-6.683349609375,-17.27294921875
9.4299999,-10.053253173828125,-1.4628572463989258,1.8626888990402222,-14.95361328125,-7.6751708984375,-16.326904296875
9.4499999,-9.988609313964844,-1.5538369417190552,1.900996208190918,-16.6778564453125,-3.9825439453125,-15.8538818359375
9.469999900000001,-9.864110946655273,-1.6639702320098877,1.9393033981323242,-18.0511474609375,-1.953125,-16.6473388671875
9.4899999,-9.727641105651855,-1.7621324062347412,1.9632453918457031,-19.2413330078125,-2.8533935546875,-18.00537109375
9.5099999,-9.591172218322754,-1.8387469053268433,1.9776105880737305,-19.59228515625,-4.180908203125,-19.83642578125
9.5299999,-9.461885452270508,-1.9129672050476074,1.9800047874450684,-18.4478759765625,-3.1585693359375,-21.2860107421875
9.549999900000001,-9.354146003723145,-1.9704279899597168,1.9919757843017578,-16.4794921875,-2.197265625,-18.951416015625
9.569999900000001,-9.311050415039062,-2.008735179901123,2.027888774871826,-15.1519775390625,-3.0670166015625,-13.946533203125
9.5899999,-9.349357604980469,-2.0254945755004883,2.097320795059204,-15.3045654296875,-5.5999755859375,-11.53564453125
9.6099999,-9.457097053527832,-2.0159177780151367,2.185906171798706,-16.2811279296875,-9.6588134765625,-11.871337890625
9.629999900000001,-9.557653427124023,-1.9967641830444336,2.279279947280884,-17.1966552734375,-13.61083984375,-11.566162109375
9.649999900000001,-9.603142738342285,-1.9752163887023926,2.3582887649536133,-17.852783203125,-14.5416259765625,-10.5743408203125
9.6699999,-9.548076629638672,-1.965639591217041,2.4157495498657227,-18.5089111328125,-14.251708984375,-10.101318359375
9.6899999,-9.425971984863281,-1.9560627937316895,2.4612393379211426,-19.4854736328125,-16.693115234375,-8.7127685546875
9.709999900000001,-9.126696586608887,-1.9273324012756348,2.5258827209472656,-21.91162109375,-15.4571533203125,-4.791259765625
9.729999900000001,-9.02135181427002,-1.9033904075622559,2.557007312774658,-23.0865478515625,-13.5650634765625,-3.082275390625
9.7499999,-8.959102630615234,-1.8698714971542358,2.5713725090026855,-24.23095703125,-13.275146484375,-2.3651123046875
9.7699999,-8.927978515625,-1.8291701078414917,2.5689783096313477,-24.5361328125,-13.519287109375,-1.800537109375
9.7899999,-8.923190116882324,-1.7956513166427612,2.5306711196899414,-23.040771484375,-11.1083984375,0.701904296875
9.809999900000001,-8.932766914367676,-1.7717092037200928,2.4636335372924805,-19.927978515625,-8.331298828125,4.5928955078125
9.8299999,-8.983044624328613,-1.7597382068634033,2.3750481605529785,-16.0980224609375,-6.134033203125,6.7596435546875
9.8499999,-9.078812599182129,-1.7549498081207275,2.2888567447662354,-11.9171142578125,-4.8828125,8.0413818359375
9.8699999,-9.229647636413574,-1.7525556087493896,2.22660756111145,-8.48388671875,-5.096435546875,9.7198486328125
9.889999900000001,-9.385271072387695,-1.7597382068634033,2.1954829692840576,-6.1798095703125,-4.7607421875,9.735107421875
9.9099999,-9.50737476348877,-1.778891921043396,2.188300371170044,-3.875732421875,-1.1138916015625,8.087158203125
9.9299999,-9.576807022094727,-1.8076223134994507,2.1978771686553955,-0.6103515625,4.364013671875,8.4381103515625
9.9499999,-9.600749015808105,-1.8339585065841675,2.2026655673980713,3.0670166015625,7.75146484375,11.23046875
9.969999900000001,-9.583989143371582,-1.8579005002975464,2.205059766769409,5.9356689453125,5.889892578125,13.73291015625
9.9899999,-9.567230224609375,-1.867477297782898,2.207453966140747,7.8125,2.5177001953125,14.9688720703125
10.0099999,-9.543288230895996,-1.8698714971542358,2.2002713680267334,8.9569091796875,2.227783203125,14.0228271484375
10.0299999,-9.495404243469238,-1.886630892753601,2.185906171798706,9.4757080078125,2.6702880859375,11.9476318359375
10.049999900000001,-9.442731857299805,-1.9105730056762695,2.1499931812286377,9.27734375,2.0599365234375,11.9781494140625
10.069999900000001,-9.421183586120605,-1.946485996246338,2.0901381969451904,8.6669921875,1.46484375,13.7939453125
10.0899999,-9.442731857299805,-1.9919757843017578,2.011129379272461,7.6751708984375,1.861572265625,14.6484375
10.1099999,-9.516951560974121,-2.0398597717285156,1.9129672050476074,6.439208984375,2.655029296875,14.129638671875
10.129999900000001,-9.612719535827637,-2.0805611610412598,1.800439715385437,5.5389404296875,4.9591064453125,11.8560791015625
10.149999900000001,-9.684545516967773,-2.1092917919158936,1.6639702320098877,5.8746337890625,8.72802734375,7.38525390625
10.1699999,-9.68694019317627,-2.1068975925445557,1.5083470344543457,7.476806640625,8.270263671875,3.7689208984375
10.1899999,-9.622296333312988,-2.0805611610412598,1.3479355573654175,9.33837890625,3.173828125,3.3721923828125
10.209999900000001,-9.500192642211914,-2.0398597717285156,1.2066776752471924,10.7574462890625,-1.0223388671875,5.5694580078125
10.229999900000001,-9.366117477416992,-1.987187385559082,1.1037269830703735,11.016845703125,-1.6937255859375,6.65283203125
10.2499999,-9.251194953918457,-1.922544002532959,1.048660397529602,10.07080078125,-2.2125244140625,5.035400390625
10.2699999,-9.186552047729492,-1.8531121015548706,1.0247182846069336,7.904052734375,-4.302978515625,3.7689208984375
10.2899999,-9.167398452758789,-1.7932571172714233,1.0199298858642578,5.37109375,-5.6610107421875,5.126953125
10.309999900000001,-9.196128845214844,-1.742978811264038,1.0199298858642578,2.5482177734375,-4.5166015625,7.9498291015625
10.3299999,-9.277531623840332,-1.7094600200653076,1.0031704902648926,-0.0762939453125,-0.7476806640625,8.8653564453125
10.3499999,-9.404424667358398,-1.6879122257232666,0.9624691009521484,-1.7547607421875,1.3580322265625,8.11767578125
10.3699999,-9.567230224609375,-1.680729627609253,0.8954314589500427,-2.197265625,1.89208984375,7.476806640625
10.389999900000001,-9.751583099365234,-1.6639702320098877,0.8212111592292786,-2.5634765625,3.326416015625,6.591796875
10.4099999,-9.909601211547852,-1.6496049165725708,0.7469909191131592,-2.9754638671875,5.950927734375,4.3182373046875
10.4299999,-10.029311180114746,-1.6352397203445435,0.6919242739677429,-2.5787353515625,8.087158203125,2.4566650390625
10.4499999,-10.11550235748291,-1.6136919260025024,0.6560112833976746,-1.220703125,7.38525390625,2.44140625
10.469999900000001,-10.17296314239502,-1.5945383310317993,0.6392518281936646,0.762939453125,3.47900390625,2.532958984375
10.4899999,-10.232817649841309,-1.5682021379470825,0.6560112833976746,2.3345947265625,1.03759765625,1.89208984375
10.5099999,-10.29746150970459,-1.522712230682373,0.6991068720817566,2.38037109375,0.7476806640625,0.2899169921875
10.5299999,-10.333374977111816,-1.4532804489135742,0.7757213711738586,1.3427734375,-1.251220703125,-2.4566650390625
10.549999900000001,-10.311826705932617,-1.3623007535934448,0.8571242094039917,-0.1678466796875,-3.0670166015625,-4.058837890625
10.569999900000001,-10.223240852355957,-1.256955862045288,0.9361328482627869,-1.7852783203125,-1.40380859375,-2.9754638671875
10.5899999,-10.08437728881836,-1.1252747774124146,0.9911994934082031,-3.448486328125,3.4027099609375,-0.823974609375
10.6099999,-9.926360130310059,-0.9744400978088379,1.0199298858642578,-4.4708251953125,8.392333984375,1.4495849609375
10.629999900000001,-9.806650161743164,-0.8140285611152649,1.0127472877502441,-3.9520263671875,12.1612548828125,5.2947998046875
10.649999900000001,-9.737217903137207,-0.6488286852836609,0.9744400978088379,-2.38037109375,13.702392578125,9.3994140625
10.6699999,-9.730035781860352,-0.5051765441894531,0.9145850539207458,0.0152587890625,16.815185546875,10.8184814453125
10.6899999,-9.782708168029785,-0.38307225704193115,0.8451532125473022,3.2196044921875,19.317626953125,11.260986328125
10.709999900000001,-9.84256362915039,-0.2944868206977844,0.7852981686592102,6.7596435546875,13.0157470703125,12.5885009765625
10.729999900000001,-9.880870819091797,-0.2513911724090576,0.7541735172271729,10.43701171875,5.096435546875,14.34326171875
10.7499999,-9.916783332824707,-0.24420857429504395,0.7733271718025208,13.9617919921875,4.5318603515625,16.7388916015625
10.7699999,-9.995792388916016,-0.2561795711517334,0.8690952062606812,14.5416259765625,5.9967041015625,17.9443359375
10.7899999,-10.120290756225586,-0.28969839215278625,1.0342950820922852,12.1917724609375,3.204345703125,13.519287109375
10.809999900000001,-10.225635528564453,-0.33758243918418884,1.2234370708465576,7.843017578125,-1.312255859375,6.134033203125
10.8299999,-10.220847129821777,-0.4357447028160095,1.400607943534851,4.8065185546875,-0.3509521484375,4.974365234375
10.8499999,-10.096348762512207,-0.5626373887062073,1.5155296325683594,3.5858154296875,6.7291259765625,11.6729736328125
10.8699999,-9.90241813659668,-0.7038952708244324,1.5658079385757446,3.0517578125,10.7421875,15.625
10.889999900000001,-9.794678688049316,-0.8212111592292786,1.5753847360610962,2.3040771484375,8.1024169921875,13.7786865234375
10.9099999,-9.823410034179688,-0.8858546018600464,1.5705963373184204,-0.0762939453125,-0.0457763671875,10.284423828125
10.9299999,-9.947908401489258,-0.9217676520347595,1.5849615335464478,-2.8533935546875,-8.4228515625,5.7220458984375
10.9499999,-10.055646896362305,-0.9409212470054626,1.6136919260025024,-3.6773681640625,-10.345458984375,1.3580322265625
10.969999900000001,-10.08437728881836,-0.9552865028381348,1.6519991159439087,-3.2806396484375,-3.0517578125,0.2899169921875
10.9899999,-10.065223693847656,-0.9552865028381348,1.6831238269805908,-2.3956298828125,5.2490234375,4.7149658203125
11.0099999,-10.029311180114746,-0.9169792532920837,1.702277421951294,-3.814697265625,2.1209716796875,8.36181640625
11.0299999,-10.034099578857422,-0.8331822156906128,1.6974890232086182,-6.77490234375,-2.6397705078125,6.6986083984375
11.049999900000001,-10.072406768798828,-0.7110779285430908,1.6735470294952393,-7.904052734375,-1.6326904296875,4.364013671875
11.069999900000001,-10.08198356628418,-0.5793967843055725,1.6280571222305298,-7.1563720703125,2.105712890625,5.7830810546875
11.0899999,-10.079588890075684,-0.44771572947502136,1.5490485429763794,-5.645751953125,8.1329345703125,7.26318359375
11.1099999,-10.038887977600098,-0.33997663855552673,1.4484920501708984,-3.1890869140625,10.3759765625,5.5389404296875
11.129999900000001,-9.981427192687988,-0.26096799969673157,1.357512354850769,-1.6632080078125,4.119873046875,5.1422119140625
11.149999900000001,-9.938331604003906,-0.20111294090747833,1.2856862545013428,-1.64794921875,-1.190185546875,8.5906982421875
11.1699999,-9.86650562286377,-0.16519992053508759,1.259350061416626,-2.1820068359375,-2.899169921875,10.6658935546875
11.1899999,-9.785101890563965,-0.15562310814857483,1.278503656387329,-2.838134765625,-1.2359619140625,10.68115234375
11.209999900000001,-9.742006301879883,-0.14844051003456116,1.3287819623947144,-3.7384033203125,3.631591796875,11.474609375
11.229999900000001,-9.950302124023438,-0.1412578970193863,1.37906014919281,-5.1116943359375,5.2642822265625,9.063720703125
11.2499999,-10.034099578857422,-0.13168109953403473,1.381454348564148,-6.2713623046875,-1.1444091796875,-0.3814697265625
11.2699999,-10.273519515991211,-0.15801730751991272,1.3838485479354858,-5.5999755859375,1.251220703125,6.4849853515625
11.2899999,-10.287884712219238,-0.15562310814857483,1.3455413579940796,-4.9896240234375,2.8839111328125,7.080078125
11.309999900000001,-10.182539939880371,-0.2082955539226532,1.3311761617660522,-4.45556640625,1.3275146484375,4.2877197265625
11.3299999,-9.84256362915039,-0.28730419278144836,1.2976573705673218,-3.082275390625,0.91552734375,5.79833984375
11.3499999,-9.84495735168457,-0.3208230137825012,1.2976573705673218,-0.732421875,1.4190673828125,8.4686279296875
11.3699999,-9.701305389404297,-0.3663128614425659,1.2617442607879639,2.166748046875,-1.220703125,2.471923828125
11.389999900000001,-9.837775230407715,-0.3423708379268646,1.2856862545013428,2.86865234375,-1.0833740234375,7.3699951171875
11.4099999,-9.959878921508789,-0.2753331959247589,1.3192051649093628,0.9765625,0.3814697265625,7.9193115234375
11.4299999,-10.000580787658691,-0.18914192914962769,1.3958195447921753,1.007080078125,1.983642578125,6.195068359375
11.4499999,-9.976638793945312,-0.12449848651885986,1.5059528350830078,2.44140625,2.9296875,7.0343017578125
11.469999900000001,-9.928754806518555,-0.08858546614646912,1.6112977266311646,1.77001953125,4.9896240234375,7.32421875
11.4899999,-9.871294021606445,-0.07900865375995636,1.6950948238372803,0.18310546875,8.270263671875,7.476806640625
11.5099999,-9.837775230407715,-0.0694318488240242,1.7166426181793213,-1.0986328125,10.4217529296875,8.9569091796875
11.5299999,-9.81143856048584,-0.07182604819536209,1.6974890232086182,-3.3416748046875,11.53564453125,10.3302001953125
11.549999900000001,-9.813833236694336,-0.05027823522686958,1.6519991159439087,-7.62939453125,13.4429931640625,11.6729736328125
11.569999900000001,-9.81143856048584,-0.021547814831137657,1.5753847360610962,-13.3056640625,16.3726806640625,13.4735107421875
11.5899999,-9.823410034179688,0.07661445438861847,1.4628572463989258,-18.829345703125,18.1121826171875,13.7939453125
11.6099999,-9.849745750427246,0.21547815203666687,1.290474772453308,-21.942138671875,17.120361328125,11.9171142578125
11.629999900000001,-9.8784761428833,0.4118026793003082,1.0821791887283325,-21.78955078125,15.0146484375,9.521484375
11.649999900000001,-9.911994934082031,0.5650315880775452,0.8403648138046265,-21.5911865234375,13.702392578125,6.7138671875
11.6699999,-9.955090522766113,0.7110779285430908,0.629675030708313,-21.026611328125,11.0015869140625,3.5247802734375
11.6899999,-9.988609313964844,0.7326257228851318,0.4596867263317108,-15.777587890625,6.2713623046875,0.5645751953125
11.709999900000001,-10.02452278137207,0.6775590777397156,0.31603461503982544,-8.2244873046875,2.1820068359375,-1.8157958984375
11.729999900000001,-10.062829971313477,0.5195417404174805,0.24420857429504395,-0.8392333984375,-1.5411376953125,-3.3721923828125
11.7499999,-10.074800491333008,0.28969839215278625,0.26336219906806946,5.43212890625,-5.889892578125,-2.471923828125
11.7699999,-10.062829971313477,0.06224924325942993,0.35913026332855225,8.4075927734375,-8.056640625,-0.3509521484375
11.7899999,-10.046070098876953,-0.10055647045373917,0.5147533416748047,7.6446533203125,-7.9345703125,1.3885498046875
11.809999900000001,-9.995792388916016,-0.14844051003456116,0.7493851184844971,5.8135986328125,-7.8277587890625,3.0975341796875
11.8299999,-9.93354320526123,-0.09816227108240128,1.0319008827209473,1.46484375,-5.706787109375,4.974365234375
11.8499999,-9.883264541625977,0.011971008032560349,1.292868971824646,-5.7525634765625,-0.2899169921875,5.7525634765625
11.8699999,-9.837775230407715,0.17717093229293823,1.4652514457702637,-10.6201171875,3.9825439453125,6.4544677734375
11.889999900000001,-9.823410034179688,0.3423708379268646,1.53707754611969,-11.4898681640625,4.3182373046875,5.4473876953125
11.9099999,-9.806650161743164,0.5386953949928284,1.5394717454910278,-12.664794921875,4.974365234375,3.96728515625
11.9299999,-9.787496566772461,0.6991068720817566,1.4748282432556152,-17.852783203125,8.48388671875,1.708984375
11.9499999,-9.792284965515137,0.7134721279144287,1.4317326545715332,-21.78955078125,12.1307373046875,-0.2899169921875
11.969999900000001,-9.816226959228516,0.6009446382522583,1.2952631711959839,-22.125244140625,13.00048828125,0.91552734375
11.9899999,-9.856928825378418,0.40462008118629456,1.0989385843276978,-19.3939208984375,10.8642578125,1.9683837890625
12.0099999,-9.986215591430664,0.11971008777618408,0.6799532771110535,-11.6424560546875,7.38525390625,3.6163330078125
12.0299999,-10.04846477508545,-0.10295066982507706,0.43335050344467163,-1.2054443359375,1.2664794921875,5.523681640625
12.049999900000001,-10.113107681274414,-0.17956513166427612,-0.009576806798577309,6.16455078125,-5.8746337890625,7.5836181640625
12.069999900000001,-10.17296314239502,-0.16998831927776337,-0.10773907601833344,10.7269287109375,-11.505126953125,9.6435546875
12.0899999,-10.163386344909668,-0.028730420395731926,-0.14365209639072418,15.1519775390625,-19.256591796875,8.72802734375
12.1099999,-10.120290756225586,0.2322375625371933,0.05985504388809204,18.00537109375,-25.8941650390625,7.9345703125
12.129999900000001,-10.022128105163574,0.507570743560791,0.5195417404174805,12.0391845703125,-24.169921875,6.5155029296875
12.149999900000001,-9.871294021606445,0.8595184087753296,1.070208191871643,-0.1373291015625,-20.08056640625,0.9613037109375
12.1699999,-9.751583099365234,0.9864110946655273,1.5442601442337036,-7.720947265625,-13.97705078125,-2.9449462890625
12.1899999,-9.617507934570312,1.0965443849563599,1.9536685943603516,-7.2021484375,-7.99560546875,-5.6304931640625
12.209999900000001,-9.576807022094727,0.9552865028381348,2.248155355453491,-11.9171142578125,0.396728515625,-3.021240234375
12.229999900000001,-9.622296333312988,0.7398083209991455,2.2816741466522217,-17.578125,9.58251953125,-0.2899169921875
12.2499999,-9.615114212036133,0.5363011956214905,2.3367409706115723,-12.6953125,10.19287109375,2.685546875
12.2699999,-9.744400978088379,0.4213795065879822,2.209848165512085,-10.1318359375,12.2528076171875,8.1024169921875
12.289999900000002,-9.785101890563965,0.3208230137825012,2.011129379272461,-22.674560546875,16.11328125,11.0321044921875
12.309999900000001,-9.835380554199219,0.2968810200691223,1.647210717201233,-30.33447265625,17.5628662109375,4.913330078125
12.3299999,-9.919178009033203,0.19871874153614044,1.2186486721038818,-16.4947509765625,13.824462890625,1.0833740234375
12.3499999,-9.971850395202637,0.16519992053508759,0.751779317855835,4.8065185546875,7.293701171875,-1.220703125
12.3699999,-10.02452278137207,0.28969839215278625,0.3998316824436188,12.51220703125,1.89208984375,1.739501953125
12.389999900000001,-10.041281700134277,0.4429273009300232,0.2537853717803955,5.279541015625,2.4871826171875,3.204345703125
12.4099999,-10.010157585144043,0.7350199222564697,0.363918662071228,-3.4637451171875,3.1890869140625,-1.3427734375
12.4299999,-10.007762908935547,0.912190854549408,0.5793967843055725,-13.24462890625,4.2572021484375,0.823974609375
12.4499999,-9.964667320251465,0.950498104095459,0.8762778043746948,-23.2086181640625,0.732421875,2.6702880859375
12.469999900000001,-9.988609313964844,0.8044517636299133,1.0414776802062988,-30.1361083984375,1.64794921875,4.1351318359375
12.4899999,-10.002974510192871,0.4908113479614258,0.9576807022094727,-23.681640625,0.5950927734375,6.3629150390625
12.5099999,-9.974244117736816,0.22744916379451752,0.689530074596405,1.251220703125,-8.3465576171875,3.0517578125
12.5299999,-10.050858497619629,0.019153613597154617,0.33758243918418884,18.7530517578125,-16.0980224609375,-0.9918212890625
12.549999900000001,-9.962273597717285,0.10055647045373917,0.2537853717803955,19.6685791015625,-17.9290771484375,0.9918212890625
12.569999900000001,-10.000580787658691,0.38307225704193115,0.3926490843296051,7.7362060546875,-12.725830078125,4.4097900390625
12.5899999,-9.873687744140625,0.7445967197418213,0.8451532125473022,-3.1280517578125,-11.0626220703125,4.5318603515625
12.6099999,-9.823410034179688,1.0821791887283325,1.4053963422775269,-12.664794921875,-5.4779052734375,-0.1373291015625
12.629999900000001,-9.703699111938477,1.2713210582733154,1.8914192914962769,-18.646240234375,-0.42724609375,-4.7454833984375
12.649999900000001,-9.66299819946289,1.2617442607879639,2.2409727573394775,-21.42333984375,4.8065185546875,-5.3253173828125
12.6699999,-9.643844604492188,0.9696516990661621,2.255337953567505,-17.4560546875,7.965087890625,-4.2724609375
12.6899999,-9.670180320739746,0.6416460275650024,2.1787235736846924,-5.9051513671875,5.06591796875,-3.90625
12.709999900000001,-9.77791976928711,0.26096799969673157,1.8291701078414917,-4.852294921875,9.6282958984375,-4.08935546875
12.729999900000001,-9.818621635437012,0.009576806798577309,1.659181833267212,-12.6800537109375,17.181396484375,6.317138671875
12.7499999,-9.919178009033203,-0.0454898327589035,1.316810965538025,-21.2860107421875,18.9666748046875,9.124755859375
12.7699999,-10.02691650390625,-0.021547814831137657,0.9145850539207458,-13.12255859375,10.955810546875,9.613037109375
12.789999900000002,-10.096348762512207,0.15322890877723694,0.4405331015586853,4.608154296875,0.274658203125,8.392333984375
12.809999900000001,-10.20887565612793,0.47165772318840027,0.0694318488240242,15.2130126953125,-10.3607177734375,5.0811767578125
12.8299999,-10.201693534851074,0.8379706144332886,-0.15801730751991272,15.4266357421875,-16.571044921875,-0.9765625
12.8499999,-10.180145263671875,1.113303780555725,-0.028730420395731926,13.763427734375,-19.6990966796875,-9.002685546875
12.8699999,-10.022128105163574,1.2114660739898682,0.21787235140800476,16.90673828125,-20.99609375,-13.61083984375
12.889999900000001,-9.919178009033203,1.0845733880996704,0.6320692300796509,20.1263427734375,-20.56884765625,-13.3819580078125
12.9099999,-9.751583099365234,0.8882488012313843,1.192312479019165,12.237548828125,-17.425537109375,-6.866455078125
12.9299999,-9.639056205749512,0.6224924325942993,1.7932571172714233,-9.765625,-2.25830078125,-0.91552734375
12.9499999,-9.514557838439941,0.49559974670410156,2.3726539611816406,-22.8271484375,6.7138671875,3.5552978515625
12.969999900000001,-9.5408935546875,0.43095630407333374,2.7054479122161865,-30.2886962890625,12.63427734375,5.2032470703125
12.9899999,-9.569623947143555,0.40940847992897034,2.779668092727661,-36.07177734375,17.6544189453125,3.875732421875
13.0099999,-9.713275909423828,0.3878606855869293,2.4133553504943848,-30.609130859375,16.082763671875,3.9215087890625
13.0299999,-9.890447616577148,0.3495534360408783,1.7812861204147339,-16.4642333984375,12.6953125,3.1280517578125
13.049999900000001,-10.022128105163574,0.3256114423274994,1.0630255937576294,2.349853515625,1.0833740234375,-0.7781982421875
13.069999900000001,-10.110713958740234,0.29209262132644653,0.4357447028160095,17.0440673828125,-8.6517333984375,-2.899169921875
13.0899999,-10.14902114868164,0.43335050344467163,0.15562310814857483,15.472412109375,-7.9803466796875,-4.08935546875
13.1099999,-10.127472877502441,0.5291185975074768,0.17717093229293823,4.913330078125,-4.638671875,-4.7760009765625
13.129999900000001,-10.06043529510498,0.6967126727104187,0.4213795065879822,2.1514892578125,-5.8441162109375,-2.4871826171875
13.149999900000001,-10.041281700134277,0.790086567401886,0.9289502501487732,6.9427490234375,-9.5672607421875,-1.0528564453125
13.1699999,-9.8784761428833,0.8427590131759644,1.3982137441635132,1.495361328125,-5.18798828125,-1.0986328125
13.1899999,-9.797073364257812,0.7996633648872375,1.987187385559082,-12.6190185546875,2.0904541015625,-0.7171630859375
13.209999900000001,-9.715670585632324,0.6871358752250671,2.231395959854126,-26.1688232421875,10.9710693359375,-1.7547607421875
13.229999900000001,-9.660603523254395,0.5099649429321289,2.2146365642547607,-23.040771484375,9.3536376953125,-1.2054443359375
13.2499999,-9.787496566772461,0.23702596127986908,1.8579005002975464,-10.55908203125,7.4920654296875,-0.885009765625
13.2699999,-9.904812812805176,0.047884032130241394,1.338358759880066,5.2642822265625,3.2806396484375,-0.3814697265625
13.289999900000002,-9.99339771270752,-0.004788403399288654,0.8259995579719543,21.9573974609375,-4.5166015625,1.6021728515625
13.309999900000001,-10.113107681274414,0.09816227108240128,0.47165772318840027,32.89794921875,-7.4310302734375,-0.762939453125
13.3299999,-10.093954086303711,0.36152446269989014,0.3064578175544739,40.7562255859375,-13.519287109375,-3.997802734375
13.3499999,-10.08437728881836,0.6248866319656372,0.2777273952960968,43.853759765625,-18.12744140625,-4.974365234375
13.3699999,-10.000580787658691,0.849941611289978,0.608127236366272,51.5289306640625,-22.216796875,-10.2386474609375
13.389999900000001,-9.8784761428833,0.993593692779541,1.0989385843276978,48.431396484375,-19.53125,-14.09912109375
13.4099999,-9.605537414550781,0.9648633003234863,2.497152328491211,2.62451171875,7.537841796875,-10.31494140625
13.4299999,-9.524134635925293,0.7613561153411865,2.937685489654541,-12.420654296875,16.9525146484375,-5.279541015625
13.4499999,-9.545681953430176,0.47165772318840027,2.9688100814819336,-16.0980224609375,20.4925537109375,-1.007080078125
13.469999900000001,-9.646238327026367,0.1867477297782898,2.5977089405059814,-11.962890625,18.9361572265625,1.5716552734375
13.4899999,-9.782708168029785,-0.023942016065120697,1.98958158493042,-4.57763671875,13.519287109375,3.5858154296875
13.5099999,-9.967061996459961,-0.090979665517807,1.3623007535934448,2.2735595703125,8.7890625,4.8828125
13.5299999,-10.017339706420898,-0.031124621629714966,0.8762778043746948,5.9814453125,7.0037841796875,3.5552978515625
13.549999900000001,-10.062829971313477,0.1364694982767105,0.6248866319656372,5.889892578125,5.92041015625,6.8206787109375
13.569999900000001,-10.002974510192871,0.33279404044151306,0.6153098344802856,2.8533935546875,8.392333984375,7.568359375
13.5899999,-9.938331604003906,0.5291185975074768,0.7541735172271729,-1.0223388671875,6.6680908203125,0.8544921875
13.6099999,-9.880870819091797,0.6272808313369751,0.9552865028381348,-2.44140625,7.1258544921875,0.1068115234375
13.629999900000001,-9.86650562286377,0.646434485912323,1.113303780555725,-0.5035400390625,6.8817138671875,1.3275146484375
13.649999900000001,-9.86889934539795,0.6129156351089478,1.1994950771331787,2.655029296875,4.974365234375,1.068115234375
13.6699999,-9.873687744140625,0.5650315880775452,1.2282254695892334,4.3182373046875,4.791259765625,0.9002685546875
13.6899999,-9.883264541625977,0.5267243981361389,1.2282254695892334,4.730224609375,6.1492919921875,0.6866455078125
13.709999900000001,-9.892841339111328,0.5195417404174805,1.216254472732544,4.5013427734375,6.7138671875,0.030517578125
13.729999900000001,-9.885659217834473,0.5099649429321289,1.1971008777618408,4.2572021484375,7.0037841796875,0.5340576171875
13.7499999,-9.895236015319824,0.5099649429321289,1.1827356815338135,3.1890869140625,7.843017578125,1.4801025390625
13.7699999,-9.888052940368652,0.507570743560791,1.1540051698684692,1.220703125,8.9569091796875,1.068115234375
13.789999900000002,-9.888052940368652,0.5099649429321289,1.1109095811843872,0.518798828125,9.3994140625,1.3427734375
13.809999900000001,-9.907206535339355,0.5099649429321289,1.0223240852355957,1.312255859375,8.270263671875,1.8157958984375
13.8299999,-9.916783332824707,0.5339069962501526,0.8858546018600464,2.3193359375,6.1187744140625,1.434326171875
13.8499999,-9.945513725280762,0.6057330369949341,0.7326257228851318,2.471923828125,3.875732421875,0.6256103515625
13.8699999,-9.96945571899414,0.6751648783683777,0.5937620401382446,2.1514892578125,1.8463134765625,-1.7547607421875
13.889999900000001,-9.979032516479492,0.7182605266571045,0.507570743560791,2.9449462890625,-0.7171630859375,-2.9296875
13.9099999,-10.000580787658691,0.6871358752250671,0.4908113479614258,4.2572021484375,-3.143310546875,-1.6326904296875
13.9299999,-10.000580787658691,0.5937620401382446,0.5506663918495178,5.4779052734375,-4.2572021484375,-0.6866455078125
13.9499999,-9.986215591430664,0.4692635238170624,0.6775590777397156,7.476806640625,-4.0283203125,0.3814697265625
13.969999900000001,-9.976638793945312,0.37828385829925537,0.8212111592292786,11.1846923828125,-3.509521484375,0.3204345703125
13.9899999,-9.940725326538086,0.35673606395721436,0.9696516990661621,15.5029296875,-3.6163330078125,0.3662109375
14.0099999,-9.926360130310059,0.4165911078453064,1.0749965906143188,17.2882080078125,-3.1890869140625,0.274658203125
14.0299999,-10.014945983886719,0.5291185975074768,1.1180921792984009,16.5863037109375,-2.197265625,-0.823974609375
14.049999900000001,-10.17296314239502,0.6703764796257019,1.0989385843276978,14.09912109375,-2.99072265625,-3.23486328125
14.069999900000001,-10.414777755737305,0.8068459630012512,1.0295066833496094,9.3994140625,-3.9825439453125,-2.5787353515625
14.0899999,-11.276689529418945,0.9672574996948242,0.9840168952941895,4.608154296875,-3.4027099609375,-4.2877197265625
14.1099999,-11.69806957244873,0.9672574996948242,0.8930372595787048,2.2430419921875,-13.0767822265625,-24.0631103515625
14.129999900000001,-12.476184844970703,0.9768342971801758,0.912190854549408,6.0882568359375,-11.90185546875,-22.8118896484375
14.149999900000001,-12.555193901062012,0.8068459630012512,0.8523358106613159,13.641357421875,-22.8271484375,-23.01025390625
14.1699999,-12.224793434143066,0.667982280254364,0.8523358106613159,23.681640625,-20.416259765625,-26.7791748046875
14.1899999,-11.480196952819824,0.569819986820221,0.8643068075180054,31.890869140625,-10.2996826171875,-27.3284912109375
14.209999900000001,-10.503362655639648,0.5554547905921936,0.9433154463768005,32.71484375,-8.6669921875,-19.7906494140625
14.229999900000001,-9.478644371032715,0.6224924325942993,1.0965443849563599,25.299072265625,-9.979248046875,-5.5694580078125
14.2499999,-8.552088737487793,0.7326257228851318,1.3096283674240112,13.97705078125,-2.7313232421875,4.302978515625
14.2699999,-7.8529815673828125,0.8571242094039917,1.5107412338256836,3.2196044921875,14.251708984375,5.950927734375
14.289999900000002,-7.42681360244751,0.9624691009521484,1.6280571222305298,-4.8370361328125,28.3660888671875,5.4473876953125
14.309999900000001,-7.299921035766602,1.0103530883789062,1.601720929145813,-9.429931640625,31.7230224609375,5.859375
14.3299999,-7.412448406219482,0.9888052940368652,1.4221558570861816,-9.735107421875,25.421142578125,5.401611328125
14.3499999,-7.63989782333374,0.8762778043746948,1.1492167711257935,-4.791259765625,14.4805908203125,6.561279296875
14.3699999,-7.955932140350342,0.689530074596405,0.8667010068893433,3.41796875,6.4849853515625,14.3280029296875
14.389999900000001,-8.312667846679688,0.47165772318840027,0.6631938815116882,10.9710693359375,1.6021728515625,21.1029052734375
14.4099999,-8.700529098510742,0.2537853717803955,0.5937620401382446,15.8843994140625,-1.3427734375,17.15087890625
14.4299999,-9.10993766784668,0.08619125932455063,0.6655880808830261,16.90673828125,-1.9378662109375,9.5672607421875
14.4499999,-9.478644371032715,-0.019153613597154617,0.8403648138046265,13.7939453125,-0.4119873046875,5.37109375
14.469999900000001,-9.737217903137207,-0.09576806426048279,1.0462661981582642,9.0789794921875,1.89208984375,1.983642578125
14.4899999,-9.84256362915039,-0.15083470940589905,1.2234370708465576,5.706787109375,4.5623779296875,-0.7476806640625
14.5099999,-9.86650562286377,-0.2082955539226532,1.316810965538025,3.7994384765625,8.9111328125,1.15966796875
14.5299999,-9.885659217834473,-0.23942017555236816,1.3311761617660522,2.38037109375,8.087158203125,7.26318359375
14.549999900000001,-9.981427192687988,-0.24181437492370605,1.2856862545013428,0.79345703125,2.01416015625,8.2855224609375
14.569999900000001,-10.1753568649292,-0.19393034279346466,1.2186486721038818,-0.4119873046875,-0.6103515625,0.762939453125
14.5899999,-10.398017883300781,-0.1173158809542656,1.1683704853057861,-0.1068115234375,0.7476806640625,-7.1258544921875
14.6099999,-10.608707427978516,-0.016759412363171577,1.1468225717544556,0.7171630859375,1.2969970703125,-7.171630859375
14.629999900000001,-10.711658477783203,0.08619125932455063,1.1468225717544556,1.2054443359375,-3.0364990234375,-4.0740966796875
14.649999900000001,-10.69489860534668,0.19393034279346466,1.1563993692398071,1.7242431640625,-9.8724365234375,-2.7923583984375
14.6699999,-10.60152530670166,0.3256114423274994,1.1635819673538208,1.495361328125,-12.786865234375,0.3662109375
14.6899999,-10.450690269470215,0.47884035110473633,1.170764684677124,-0.1678466796875,-11.2152099609375,3.8909912109375
14.709999900000001,-10.27591323852539,0.6392518281936646,1.1683704853057861,-2.1209716796875,-7.50732421875,3.4637451171875
14.729999900000001,-10.137049674987793,0.7733271718025208,1.1444283723831177,-3.6773681640625,-3.7841796875,2.4566650390625
14.7499999,-10.08437728881836,0.8595184087753296,1.0869675874710083,-4.8370361328125,-0.640869140625,2.655029296875
14.7699999,-10.103530883789062,0.8595184087753296,0.993593692779541,-4.8980712890625,4.302978515625,-2.7923583984375
14.789999900000002,-10.168174743652344,0.7637503147125244,0.8762778043746948,-2.6092529296875,9.429931640625,-11.6424560546875
14.809999900000001,-10.223240852355957,0.5985504388809204,0.7637503147125244,0.67138671875,6.4849853515625,-13.2904052734375
14.8299999,-10.20648193359375,0.395043283700943,0.667982280254364,2.685546875,-0.6256103515625,-6.89697265625
14.8499999,-10.113107681274414,0.21787235140800476,0.6129156351089478,3.9520263671875,-2.8228759765625,-0.9613037109375
14.8699999,-9.99100399017334,0.11013327538967133,0.6009446382522583,5.3558349609375,0.2288818359375,-0.3204345703125
14.889999900000001,-9.926360130310059,0.090979665517807,0.6320692300796509,5.8441162109375,1.8463134765625,-2.74658203125
14.9099999,-9.940725326538086,0.15083470940589905,0.6871358752250671,4.6234130859375,4.1046142578125,-8.9111328125
14.9299999,-9.981427192687988,0.21547815203666687,0.7374141216278076,3.3111572265625,8.3465576171875,-16.571044921875
14.9499999,-9.998186111450195,0.26575639843940735,0.7709329724311829,3.204345703125,8.1024169921875,-15.716552734375
14.969999900000001,-9.964667320251465,0.2944868206977844,0.7829039692878723,3.7078857421875,3.662109375,-6.65283203125
14.9899999,-9.873687744140625,0.31364041566848755,0.7852981686592102,3.47900390625,0.1068115234375,-1.007080078125
15.0099999,-9.763554573059082,0.3471592366695404,0.7996633648872375,2.86865234375,0.3814697265625,-1.9989013671875
15.0299999,-9.670180320739746,0.4189853072166443,0.8379706144332886,2.13623046875,4.364013671875,-2.655029296875
15.049999900000001,-9.603142738342285,0.4908113479614258,0.8906430602073669,0.48828125,4.82177734375,-0.5645751953125
15.069999900000001,-9.600749015808105,0.5506663918495178,0.9576807022094727,-1.52587890625,1.8768310546875,0.6866455078125
15.0899999,-9.677363395690918,0.5770025849342346,1.0127472877502441,-2.9449462890625,2.960205078125,-1.9683837890625
15.1099999,-9.81143856048584,0.5626373887062073,1.0534487962722778,-3.7689208984375,3.021240234375,-4.5013427734375
15.129999900000001,-9.962273597717285,0.5123591423034668,1.0630255937576294,-4.150390625,1.678466796875,-2.74658203125
15.149999900000001,-10.098742485046387,0.4381389021873474,1.036689281463623,-3.2958984375,4.730224609375,-0.8697509765625
15.1699999,-10.1753568649292,0.35434186458587646,0.9744400978088379,-0.91552734375,5.401611328125,-1.40380859375
15.1899999,-10.201693534851074,0.28969839215278625,0.9097966551780701,1.6632080078125,-0.7781982421875,-0.6103515625
15.209999900000001,-10.187328338623047,0.2585737705230713,0.8523358106613159,2.7618408203125,-3.570556640625,1.312255859375
15.229999900000001,-10.101137161254883,0.2561795711517334,0.8331822156906128,2.838134765625,-1.190185546875,-0.732421875
15.2499999,-9.974244117736816,0.272938996553421,0.8427590131759644,2.716064453125,1.8463134765625,-3.021240234375
15.2699999,-9.971850395202637,0.2825157940387726,0.8738836050033569,2.105712890625,-1.922607421875,-2.8533935546875
15.289999900000002,-9.95748519897461,0.3064578175544739,0.8547300100326538,1.9989013671875,-9.490966796875,-4.45556640625
15.309999900000001,-10.022128105163574,0.38067805767059326,0.8427590131759644,3.47900390625,-7.720947265625,1.6021728515625
15.3299999,-10.074800491333008,0.4644751250743866,0.7948749661445618,4.119873046875,-8.5601806640625,-1.40380859375
15.3499999,-10.0580415725708,0.5315127968788147,0.7613561153411865,4.241943359375,-10.1165771484375,-6.0882568359375
15.3699999,-10.012551307678223,0.5482721924781799,0.7613561153411865,3.9825439453125,-11.7950439453125,-6.5765380859375
15.389999900000001,-9.976638793945312,0.48602294921875,0.8068459630012512,3.021240234375,-12.6495361328125,-6.3323974609375
15.4099999,-9.93354320526123,0.3495534360408783,0.8690952062606812,2.1820068359375,-12.6190185546875,-6.1492919921875
15.4299999,-9.914389610290527,0.2106897532939911,0.9840168952941895,2.8076171875,-13.031005859375,-5.67626953125
15.4499999,-9.871294021606445,0.16759411990642548,1.192312479019165,3.8604736328125,-12.2222900390625,-4.974365234375
15.469999900000001,-9.840168952941895,0.2106897532939911,1.4891934394836426,0.06103515625,-7.110595703125,-5.0506591796875
15.4899999,-9.59596061706543,0.2585737705230713,1.7405846118927002,-7.232666015625,-0.3814697265625,-7.049560546875
15.5099999,-9.59596061706543,0.3208230137825012,2.212242364883423,-15.6707763671875,5.1116943359375,-4.7760009765625
15.5299999,-9.440337181091309,0.31124621629714966,2.542642116546631,-36.102294921875,15.4876708984375,-6.561279296875
15.549999900000001,-9.490615844726562,0.19393034279346466,2.7988216876983643,-56.6558837890625,30.3802490234375,1.64794921875
15.569999900000001,-9.564835548400879,0.11971008777618408,2.849100112915039,-60.882568359375,39.6728515625,-0.06103515625
15.5899999,-9.72285270690918,-0.11971008777618408,2.33913516998291,-52.9937744140625,39.12353515625,0.0762939453125
15.6099999,-9.832986831665039,-0.2346317619085312,1.5705963373184204,-37.0025634765625,33.111572265625,1.1138916015625
15.629999900000001,-10.101137161254883,-0.4189853072166443,0.5195417404174805,-16.4337158203125,24.444580078125,7.080078125
15.649999900000001,-10.259154319763184,-0.42856210470199585,-0.4596867263317108,7.3089599609375,10.8184814453125,7.2784423828125
15.6699999,-10.38844108581543,-0.24181437492370605,-1.137245774269104,18.4478759765625,-7.965087890625,4.82177734375
15.6899999,-10.429142951965332,-0.13407529890537262,-1.5490485429763794,11.932373046875,-21.453857421875,0.6561279296875
15.709999900000001,-10.374075889587402,0.12689268589019775,-1.4173674583435059,14.862060546875,-24.810791015625,-12.054443359375
15.729999900000001,-10.307038307189941,0.2537853717803955,-1.091755986213684,24.139404296875,-25.238037109375,-11.1541748046875
15.7499999,-10.192116737365723,0.33279404044151306,-0.3902548849582672,26.85546875,-29.693603515625,-4.39453125
15.7699999,-10.010157585144043,0.3423708379268646,0.5434837937355042,18.4783935546875,-27.496337890625,-3.3111572265625
15.789999900000002,-9.75637149810791,0.3016694188117981,1.501164436340332,-2.2735595703125,-20.050048828125,-0.030517578125
15.809999900000001,-9.641449928283691,0.023942016065120697,2.3367409706115723,-17.7154541015625,-1.64794921875,-5.7525634765625
15.8299999,-9.509769439697266,-0.2801215946674347,2.7724854946136475,-20.93505859375,11.0626220703125,-2.960205078125
15.8499999,-9.583989143371582,-0.5410895943641663,2.801215887069702,-20.8587646484375,11.8255615234375,16.0369873046875
15.869999900000002,-9.775525093078613,-0.6248866319656372,2.2242133617401123,-22.64404296875,10.986328125,20.8892822265625
15.889999900000001,-9.892841339111328,-0.5267243981361389,1.6112977266311646,-14.2822265625,-0.4119873046875,15.655517578125
15.9099999,-9.99100399017334,-0.1412578970193863,0.8044517636299133,3.814697265625,-8.270263671875,3.4637451171875
15.9299999,-10.065223693847656,0.24420857429504395,0.3280056416988373,13.580322265625,-7.4462890625,-8.6822509765625
15.9499999,-9.947908401489258,0.6919242739677429,0.1412578970193863,10.8642578125,-5.1422119140625,-7.080078125
15.969999900000001,-10.005369186401367,0.9552865028381348,0.3687070608139038,3.9825439453125,-7.4920654296875,-3.41796875
15.9899999,-9.926360130310059,0.8978256583213806,0.7805097699165344,-2.50244140625,-8.6669921875,-3.875732421875
16.0099999,-9.885659217834473,0.6272808313369751,1.2186486721038818,-4.3487548828125,-7.5836181640625,-8.30078125
16.0299999,-9.923966407775879,0.08619125932455063,1.4915876388549805,-0.1068115234375,-3.2501220703125,-14.312744140625
16.0499999,-9.830592155456543,-0.3256114423274994,1.6328455209732056,-0.0457763671875,3.0517578125,0.213623046875
16.0699999,-9.86650562286377,-0.5434837937355042,1.7118542194366455,-6.4239501953125,2.166748046875,12.51220703125
16.089999900000002,-9.77791976928711,-0.586579442024231,1.867477297782898,-21.3623046875,3.84521484375,11.4593505859375
16.109999900000002,-9.674968719482422,-0.33518823981285095,1.946485996246338,-33.355712890625,10.8642578125,6.9732666015625
16.1299999,-9.713275909423828,-0.15322890877723694,1.889025092124939,-34.2559814453125,14.739990234375,2.6702880859375
16.1499999,-9.734824180603027,0.1149216815829277,1.534683346748352,-28.4576416015625,17.8375244140625,1.5716552734375
16.1699999,-9.974244117736816,0.1604115068912506,0.9409212470054626,-14.0533447265625,9.9945068359375,5.2337646484375
16.1899999,-10.182539939880371,0.17477671802043915,0.26336219906806946,10.833740234375,-7.232666015625,3.4942626953125
16.2099999,-10.359710693359375,-0.004788403399288654,-0.2992752194404602,34.088134765625,-23.6053466796875,-0.1068115234375
16.2299999,-10.280701637268066,-0.043095629662275314,-0.44532153010368347,45.4864501953125,-32.257080078125,-7.4920654296875
16.249999900000002,-10.268731117248535,-0.05746084079146385,-0.1412578970193863,41.3055419921875,-24.7955322265625,-8.48388671875
16.269999900000002,-9.909601211547852,0.10055647045373917,0.6177040338516235,21.5911865234375,-14.3585205078125,1.220703125
16.2899999,-9.763554573059082,0.3423708379268646,1.6927006244659424,-6.2408447265625,-4.8065185546875,8.758544921875
16.3099999,-9.493009567260742,0.47165772318840027,2.564189910888672,-34.332275390625,7.3394775390625,7.3699951171875
16.3299999,-9.50498104095459,0.5841852426528931,3.136404275894165,-46.8597412109375,18.280029296875,2.7923583984375
16.3499999,-9.473855972290039,0.5410895943641663,3.1316158771514893,-44.769287109375,23.2391357421875,-0.8392333984375
16.3699999,-9.684545516967773,0.3734954595565796,2.557007312774658,-33.0963134765625,25.970458984375,0.9307861328125
16.3899999,-9.9000244140625,0.19153612852096558,1.5873557329177856,-9.185791015625,12.75634765625,4.8828125
16.4099999,-10.15141487121582,-0.15083470940589905,0.49320554733276367,21.5911865234375,-8.23974609375,2.9296875
16.429999900000002,-10.345345497131348,-0.33279404044151306,-0.3878606855869293,47.8668212890625,-25.8331298828125,-3.2958984375
16.4499999,-10.38604736328125,-0.33039984107017517,-0.6823474764823914,61.798095703125,-34.1339111328125,-11.41357421875
16.4699999,-10.213664054870605,-0.14365209639072418,-0.304063618183136,53.1158447265625,-22.27783203125,-9.82666015625
16.4899999,-9.938331604003906,0.3016694188117981,0.6368576288223267,28.289794921875,-11.3525390625,-3.2196044921875
16.5099999,-9.667786598205566,0.5554547905921936,1.7836803197860718,-1.8310546875,-1.3580322265625,2.5787353515625
16.5299999,-9.521739959716797,0.6967126727104187,2.695871114730835,-27.7862548828125,8.85009765625,-0.1373291015625
16.5499999,-9.50498104095459,0.6560112833976746,3.138798475265503,-32.3333740234375,16.6168212890625,-7.6904296875
16.5699999,-9.622296333312988,0.43335050344467163,3.002328872680664,-24.1546630859375,22.15576171875,-6.134033203125
16.589999900000002,-9.718064308166504,0.20111294090747833,2.406172752380371,-16.54052734375,20.01953125,0.030517578125
16.609999900000002,-9.854534149169922,0.07900865375995636,1.7046716213226318,-7.598876953125,9.3994140625,3.3111572265625
16.6299999,-9.99339771270752,-0.16519992053508759,0.9145850539207458,-2.838134765625,-0.2288818359375,0.762939453125
16.6499999,-10.105925559997559,-0.33997663855552673,0.4644751250743866,5.7220458984375,-7.38525390625,-3.0975341796875
16.6699999,-10.11789608001709,-0.3878606855869293,0.2537853717803955,15.3045654296875,-7.6446533203125,-3.2806396484375
16.6899999,-10.14902114868164,-0.3711012601852417,0.3495534360408783,15.411376953125,0.0152587890625,-0.3509521484375
16.7099999,-10.086771965026855,-0.1364694982767105,0.7541735172271729,13.8397216796875,-4.39453125,4.791259765625
16.7299999,-10.007762908935547,0.15801730751991272,1.0678139925003052,7.1868896484375,-7.9803466796875,3.7994384765625
16.749999900000002,-9.95748519897461,0.3711012601852417,1.4437036514282227,3.84521484375,-6.9732666015625,-4.3182373046875
16.769999900000002,-9.825803756713867,0.5147533416748047,1.7142484188079834,6.1492919921875,-4.3487548828125,-8.056640625
16.7899999,-9.68933391571045,0.48602294921875,1.8962076902389526,-1.739501953125,5.9661865234375,-5.462646484375
16.8099999,-9.670180320739746,0.38546648621559143,1.9752163887023926,-7.26318359375,11.810302734375,-0.7781982421875
16.8299999,-9.691728591918945,0.07422025501728058,1.9129672050476074,-3.021240234375,4.7607421875,5.4931640625
16.8499999,-9.861717224121094,-0.11252748221158981,1.6304513216018677,0.6103515625,0.6561279296875,5.6915283203125
16.8699999,-9.986215591430664,-0.4836287498474121,0.9145850539207458,16.1895751953125,-7.4920654296875,1.8310546875
16.8899999,-10.168174743652344,-0.5746083855628967,0.47405192255973816,50.445556640625,-21.5911865234375,-1.40380859375
16.9099999,-10.163386344909668,-0.5291185975074768,0.15562310814857483,66.375732421875,-28.7628173828125,-0.091552734375
16.929999900000002,-10.091560363769531,-0.1867477297782898,0.4836287498474121,47.2259521484375,-22.0947265625,1.64794921875
16.9499999,-9.876082420349121,0.35434186458587646,1.314416766166687,13.5955810546875,-7.1563720703125,-2.13623046875
16.9699999,-9.648633003234863,0.8619126081466675,2.1930887699127197,-15.3961181640625,8.60595703125,-5.096435546875
16.9899999,-9.500192642211914,1.1300631761550903,2.7988216876983643,-28.045654296875,16.4947509765625,-4.974365234375
17.0099999,-9.612719535827637,0.6368576288223267,2.5546131134033203,-20.2789306640625,12.6190185546875,-1.5716552734375
17.0299999,-9.785101890563965,0.12449848651885986,1.9632453918457031,-8.36181640625,7.6446533203125,1.9073486328125
17.0499999,-9.940725326538086,-0.2968810200691223,1.3623007535934448,3.631591796875,3.9825439453125,3.7078857421875
17.0699999,-10.034099578857422,-0.5339069962501526,0.912190854549408,10.07080078125,-0.579833984375,3.8604736328125
17.089999900000002,-10.0580415725708,-0.5267243981361389,0.7254431247711182,11.7950439453125,-2.960205078125,4.1351318359375
17.109999900000002,-10.041281700134277,-0.31842881441116333,0.7829039692878723,9.246826171875,-1.7547607421875,4.7149658203125
17.1299999,-10.103530883789062,-0.011971008032560349,1.0199298858642578,4.2877197265625,0.3509521484375,3.7384033203125
17.1499999,-9.983820915222168,0.272938996553421,1.2761094570159912,-0.885009765625,1.9989013671875,2.4261474609375
17.1699999,-10.333374977111816,0.45010992884635925,1.5538369417190552,-3.7384033203125,6.6375732421875,4.6539306640625
17.1899999,-10.414777755737305,0.5123591423034668,1.6735470294952393,-5.4168701171875,0.3662109375,-3.692626953125
17.2099999,-10.915165901184082,0.47405192255973816,1.7286136150360107,-4.241943359375,5.1727294921875,4.638671875
17.2299999,-11.21444034576416,0.45489832758903503,1.6543933153152466,-1.6632080078125,1.6326904296875,0.518798828125
17.249999900000002,-11.432312965393066,0.4908113479614258,1.534683346748352,0.1220703125,-5.9967041015625,-6.8817138671875
17.269999900000002,-11.365275382995605,0.6009446382522583,1.403002142906189,0.946044921875,-9.82666015625,-10.9100341796875
17.2899999,-11.022904396057129,0.7350199222564697,1.3024457693099976,1.617431640625,-4.0435791015625,-13.6871337890625
17.3099999,-10.474632263183594,0.8259995579719543,1.2306196689605713,3.11279296875,6.8206787109375,-11.322021484375
17.3299999,-9.892841339111328,0.8403648138046265,1.1827356815338135,3.204345703125,13.397216796875,-4.08935546875
17.3499999,-9.411606788635254,0.768538773059845,1.1444283723831177,2.288818359375,12.1307373046875,1.953125
17.3699999,-9.10993766784668,0.646434485912323,1.113303780555725,2.7923583984375,7.50732421875,3.3416748046875
17.3899999,-8.959102630615234,0.49320554733276367,1.0749965906143188,5.9967041015625,6.6986083984375,0.2899169921875
17.409999900000003,-8.904036521911621,0.33997663855552673,1.0271124839782715,10.711669921875,10.1470947265625,-2.655029296875
17.429999900000002,-8.904036521911621,0.20350714027881622,0.9768342971801758,14.9688720703125,9.8724365234375,-1.8463134765625
17.4499999,-8.954314231872559,0.10055647045373917,0.9433154463768005,17.547607421875,2.0751953125,1.6326904296875
17.4699999,-9.023746490478516,0.026336219161748886,0.9433154463768005,19.1192626953125,-4.9591064453125,3.7994384765625
17.4899999,-9.114726066589355,-0.014365210197865963,0.9840168952941895,20.8282470703125,-2.685546875,3.4332275390625
17.5099999,-9.215282440185547,-0.028730420395731926,1.072602391242981,21.697998046875,6.77490234375,1.190185546875
17.5299999,-9.327810287475586,-0.028730420395731926,1.1827356815338135,19.53125,11.871337890625,-1.1138916015625
17.5499999,-9.445125579833984,-0.016759412363171577,1.2976573705673218,14.8773193359375,6.744384765625,-0.335693359375
17.5699999,-9.560047149658203,-0.0071826050989329815,1.37906014919281,10.6048583984375,2.74658203125,2.7008056640625
17.589999900000002,-9.66299819946289,0.0071826050989329815,1.403002142906189,8.4228515625,5.55419921875,3.387451171875
17.609999900000002,-9.739612579345703,0.011971008032560349,1.3694833517074585,8.1329345703125,9.8876953125,-0.274658203125
17.6299999,-9.799467086791992,0.004788403399288654,1.2952631711959839,8.9263916015625,10.6964111328125,-2.5177001953125
17.6499999,-9.871294021606445,-0.0071826050989329815,1.2042834758758545,10.1165771484375,7.7056884765625,0.3662109375
17.6699999,-9.93354320526123,-0.023942016065120697,1.1300631761550903,10.7879638671875,2.3956298828125,2.349853515625
17.6899999,-9.986215591430664,-0.028730420395731926,1.094150185585022,10.6048583984375,-0.0152587890625,0.4119873046875
17.7099999,-10.022128105163574,-0.0071826050989329815,1.091755986213684,9.521484375,2.7923583984375,-1.953125
17.7299999,-10.02691650390625,0.028730420395731926,1.113303780555725,8.60595703125,6.988525390625,-2.3193359375
17.749999900000002,-9.998186111450195,0.07182604819536209,1.137245774269104,7.99560546875,5.79833984375,-0.2899169921875
17.769999900000002,-9.976638793945312,0.11252748221158981,1.1563993692398071,7.3699951171875,2.7313232421875,1.0223388671875
17.7899999,-9.976638793945312,0.14365209639072418,1.1635819673538208,6.3629150390625,3.4332275390625,-0.9918212890625
17.8099999,-9.974244117736816,0.16519992053508759,1.1683704853057861,4.608154296875,4.0435791015625,-3.3416748046875
17.8299999,-9.976638793945312,0.17717093229293823,1.158793568611145,2.86865234375,5.18798828125,-3.47900390625
17.8499999,-9.964667320251465,0.17238251864910126,1.1300631761550903,2.6092529296875,7.32421875,-3.509521484375
17.8699999,-9.945513725280762,0.16759411990642548,1.094150185585022,2.86865234375,7.1258544921875,-3.84521484375
17.8899999,-9.931148529052734,0.15322890877723694,1.0462661981582642,2.1514892578125,4.3182373046875,-2.288818359375
17.909999900000003,-9.943120002746582,0.17238251864910126,1.0342950820922852,0.1373291015625,1.922607421875,-1.0528564453125
17.929999900000002,-9.93354320526123,0.16998831927776337,1.015141487121582,-2.38037109375,4.9896240234375,-4.4708251953125
17.9499999,-9.876082420349121,0.2322375625371933,1.113303780555725,-5.9356689453125,8.8043212890625,-6.4849853515625
17.9699999,-9.782708168029785,0.24899697303771973,1.216254472732544,-16.6168212890625,14.9078369140625,-0.732421875
17.9899999,-9.725247383117676,0.24899697303771973,1.2258312702178955,-25.787353515625,19.378662109375,6.011962890625
18.0099999,-9.732429504394531,0.20350714027881622,1.192312479019165,-26.123046875,22.03369140625,3.7841796875
18.0299999,-9.78989028930664,0.16998831927776337,0.8810662031173706,-19.1650390625,20.355224609375,-2.0751953125
18.0499999,-9.95748519897461,0.038307227194309235,0.545877993106842,-6.744384765625,9.9945068359375,-1.8463134765625
18.0699999,-10.043676376342773,0.0071826050989329815,0.1867477297782898,6.77490234375,-2.685546875,1.46484375
18.089999900000002,-10.139444351196289,-0.09576806426048279,-0.004788403399288654,16.0980224609375,-11.6119384765625,1.983642578125
18.109999900000002,-10.156203269958496,-0.11013327538967133,0.002394201699644327,19.8974609375,-14.2822265625,1.251220703125
18.1299999,-10.156203269958496,-0.05746084079146385,0.1867477297782898,19.0887451171875,-12.420654296875,0.67138671875
18.1499999,-10.077195167541504,0.06703764945268631,0.4884171485900879,13.458251953125,-5.7830810546875,-1.2969970703125
18.1699999,-9.988609313964844,0.19871874153614044,0.8259995579719543,6.28662109375,2.9144287109375,-2.9449462890625
18.1899999,-9.928754806518555,0.33279404044151306,1.0749965906143188,-0.8087158203125,6.744384765625,-0.0762939453125
18.2099999,-9.8784761428833,0.3758896589279175,1.2018892765045166,-6.3629150390625,5.6610107421875,2.9449462890625
18.2299999,-9.876082420349121,0.42377370595932007,1.2018892765045166,-8.056640625,6.6680908203125,0.91552734375
18.249999900000002,-9.885659217834473,0.35673606395721436,1.0582371950149536,-5.8441162109375,8.9111328125,-1.708984375
18.269999900000002,-9.928754806518555,0.304063618183136,0.871489405632019,-2.3956298828125,4.9285888671875,1.0986328125
18.2899999,-9.96945571899414,0.22744916379451752,0.7230489253997803,-0.335693359375,-3.7689208984375,5.767822265625
18.3099999,-10.053253173828125,0.16519992053508759,0.6105214357376099,-0.1068115234375,-4.8828125,2.44140625
18.3299999,-10.101137161254883,0.15322890877723694,0.5913678407669067,0.823974609375,3.4332275390625,-5.2490234375
18.3499999,-10.11550235748291,0.17477671802043915,0.6224924325942993,2.197265625,4.638671875,-5.06591796875
18.3699999,-10.08437728881836,0.17956513166427612,0.6727706789970398,1.3885498046875,-3.173828125,2.9449462890625
18.3899999,-10.012551307678223,0.20111294090747833,0.7374141216278076,-0.5645751953125,-3.9215087890625,5.035400390625
18.409999900000003,-9.95748519897461,0.22266076505184174,0.7805097699165344,-1.007080078125,4.08935546875,-0.274658203125
18.429999900000002,-9.943120002746582,0.2537853717803955,0.7948749661445618,0.42724609375,6.5765380859375,-3.021240234375
18.4499999,-9.967061996459961,0.28969839215278625,0.8020575642585754,0.7171630859375,-0.823974609375,-1.1138916015625
18.4699999,-10.002974510192871,0.28969839215278625,0.7757213711738586,-0.42724609375,-5.1727294921875,0.213623046875
18.4899999,-9.988609313964844,0.2777273952960968,0.7469909191131592,-1.3580322265625,-2.410888671875,-0.1373291015625
18.5099999,-9.96945571899414,0.26096799969673157,0.7422025203704834,-1.220703125,1.2969970703125,1.2359619140625
18.5299999,-9.911994934082031,0.24420857429504395,0.706289529800415,-1.40380859375,2.0294189453125,1.5869140625
18.5499999,-9.885659217834473,0.2561795711517334,0.706289529800415,-1.6326904296875,2.5787353515625,-1.0986328125
18.5699999,-9.883264541625977,0.2537853717803955,0.667982280254364,-0.7781982421875,1.8157958984375,-1.617431640625
18.589999900000002,-9.897629737854004,0.24181437492370605,0.667982280254364,0.18310546875,-3.1585693359375,1.77001953125
18.609999900000002,-9.90241813659668,0.24181437492370605,0.6536170840263367,-0.244140625,-4.180908203125,3.5858154296875
18.6299999,-9.916783332824707,0.2537853717803955,0.6584054827690125,-1.4495849609375,2.0294189453125,-0.091552734375
18.6499999,-9.923966407775879,0.26336219906806946,0.6560112833976746,-1.0833740234375,7.1868896484375,-3.8604736328125
18.6699999,-9.931148529052734,0.27054479718208313,0.6248866319656372,0.701904296875,2.2735595703125,-1.6021728515625
18.6899999,-9.964667320251465,0.26575639843940735,0.6105214357376099,1.8463134765625,-2.0751953125,1.861572265625
18.7099999,-9.983820915222168,0.26336219906806946,0.6177040338516235,1.007080078125,-6.0882568359375,2.0904541015625
18.7299999,-9.995792388916016,0.2561795711517334,0.667982280254364,-0.091552734375,-3.47900390625,-0.54931640625
18.749999900000002,-9.99339771270752,0.26096799969673157,0.7230489253997803,-0.30517578125,6.103515625,-2.6702880859375
18.769999900000002,-10.000580787658691,0.24899697303771973,0.7637503147125244,0.4425048828125,9.552001953125,-2.7008056640625
18.7899999,-10.010157585144043,0.2298433631658554,0.768538773059845,0.701904296875,0.9613037109375,-1.03759765625
18.8099999,-10.02452278137207,0.22266076505184174,0.7326257228851318,0.6561279296875,-5.79833984375,0.4425048828125
18.8299999,-10.007762908935547,0.22505496442317963,0.6991068720817566,1.5106201171875,-2.4566650390625,0.6103515625
18.8499999,-9.967061996459961,0.24420857429504395,0.706289529800415,2.50244140625,2.9754638671875,-0.9613037109375
18.8699999,-9.926360130310059,0.2801215946674347,0.7230489253997803,1.89208984375,3.509521484375,-1.4495849609375
18.8899999,-9.928754806518555,0.31364041566848755,0.7709329724311829,-0.457763671875,-0.8087158203125,0.518798828125
18.909999900000003,-9.940725326538086,0.3232172429561615,0.790086567401886,-1.9989013671875,-1.739501953125,0.396728515625
18.929999900000002,-9.95748519897461,0.2944868206977844,0.7805097699165344,-1.068115234375,3.204345703125,-1.77001953125
18.9499999,-9.976638793945312,0.2537853717803955,0.7254431247711182,0.9002685546875,5.3253173828125,-2.3345947265625
18.9699999,-9.981427192687988,0.2298433631658554,0.6847416758537292,1.1749267578125,-1.03759765625,0.2899169921875
18.9899999,-10.000580787658691,0.21308395266532898,0.6560112833976746,-0.091552734375,-6.1798095703125,1.5869140625
19.0099999,-9.971850395202637,0.2298433631658554,0.667982280254364,-0.6866455078125,-3.2806396484375,0.213623046875
19.0299999,-9.95748519897461,0.2537853717803955,0.6991068720817566,0.4119873046875,4.608154296875,-0.823974609375
19.0499999,-9.940725326538086,0.2825157940387726,0.7206547260284424,0.9918212890625,5.3558349609375,-1.5106201171875
19.0699999,-9.940725326538086,0.31364041566848755,0.7254431247711182,-0.4425048828125,-0.8392333984375,-1.0528564453125
19.089999900000002,-9.940725326538086,0.31842881441116333,0.7254431247711182,-1.7852783203125,-3.6163330078125,0.42724609375
19.109999900000002,-9.923966407775879,0.30885201692581177,0.7398083209991455,-1.89208984375,-0.9002685546875,1.3885498046875
19.1299999,-9.888052940368652,0.26815059781074524,0.7374141216278076,-1.40380859375,3.265380859375,1.1444091796875
19.1499999,-9.90241813659668,0.24660277366638184,0.7757213711738586,-1.251220703125,4.7149658203125,-0.9002685546875
19.1699999,-9.947908401489258,0.23702596127986908,0.7589619159698486,-1.6937255859375,1.0833740234375,-1.739501953125
19.1899999,-9.981427192687988,0.2322375625371933,0.751779317855835,-2.197265625,-4.3487548828125,1.1138916015625
19.2099999,-9.998186111450195,0.24420857429504395,0.7326257228851318,-2.5177001953125,-3.3111572265625,2.8839111328125
19.2299999,-9.99339771270752,0.24181437492370605,0.706289529800415,-2.74658203125,2.0751953125,0.67138671875
19.249999900000002,-9.998186111450195,0.2513911724090576,0.706289529800415,-2.25830078125,4.486083984375,-2.716064453125
19.269999900000002,-9.988609313964844,0.2585737705230713,0.7038952708244324,-1.434326171875,0.946044921875,-2.0599365234375
19.2899999,-10.000580787658691,0.27054479718208313,0.7158663272857666,-0.4425048828125,-0.9307861328125,0.48828125
19.3099999,-9.983820915222168,0.30885201692581177,0.7230489253997803,0.54931640625,-0.7171630859375,1.2359619140625
19.3299999,-9.938331604003906,0.3208230137825012,0.6919242739677429,0.8697509765625,-1.1138916015625,0
19.3499999,-9.890447616577148,0.3471592366695404,0.7110779285430908,0.1068115234375,1.3427734375,0.0152587890625
19.3699999,-9.876082420349121,0.33997663855552673,0.7038952708244324,-1.617431640625,2.44140625,2.2430419921875
19.3899999,-9.86889934539795,0.33039984107017517,0.7326257228851318,-2.9754638671875,0.030517578125,1.6326904296875
19.409999900000003,-9.914389610290527,0.2944868206977844,0.7613561153411865,-2.9754638671875,1.007080078125,-1.251220703125
19.429999900000002,-9.967061996459961,0.2537853717803955,0.7422025203704834,-1.9683837890625,2.13623046875,-1.0833740234375
19.4499999,-9.988609313964844,0.21308395266532898,0.7038952708244324,-0.5340576171875,0.1678466796875,1.03759765625
19.4699999,-9.983820915222168,0.18914192914962769,0.646434485912323,0.701904296875,-0.0457763671875,0.640869140625
19.4899999,-9.959878921508789,0.19871874153614044,0.6009446382522583,1.1749267578125,-0.030517578125,-0.579833984375
19.5099999,-9.952696800231934,0.22266076505184174,0.6105214357376099,0.640869140625,-0.4730224609375,0.3509521484375
19.5299999,-9.95748519897461,0.26815059781074524,0.6536170840263367,-0.701904296875,-0.8544921875,1.2664794921875
19.5499999,-9.976638793945312,0.304063618183136,0.7158663272857666,-1.708984375,1.0833740234375,-0.5340576171875
19.5699999,-9.974244117736816,0.31842881441116333,0.7541735172271729,-1.4495849609375,3.326416015625,-2.166748046875
19.589999900000002,-9.983820915222168,0.31842881441116333,0.7350199222564697,-0.06103515625,1.220703125,-0.640869140625
19.609999900000002,-9.979032516479492,0.30885201692581177,0.6991068720817566,1.40380859375,-1.0833740234375,0.6866455078125
19.6299999,-9.995792388916016,0.2753331959247589,0.6536170840263367,2.655029296875,-3.082275390625,0.274658203125
19.6499999,-10.005369186401367,0.2322375625371933,0.6392518281936646,3.814697265625,-4.669189453125,-0.6866455078125
19.6699999,-10.000580787658691,0.21787235140800476,0.6488286852836609,5.2947998046875,-0.48828125,-1.6632080078125
19.6899999,-9.99339771270752,0.22266076505184174,0.6631938815116882,5.767822265625,4.4403076171875,-2.7313232421875
19.7099999,-10.000580787658691,0.1388636976480484,0.6272808313369751,6.011962890625,4.8065185546875,-2.62451171875
19.7299999,-10.041281700134277,0.1388636976480484,0.42377370595932007,15.869140625,-6.3323974609375,-1.5716552734375
19.749999900000002,-10.108319282531738,0.07900865375995636,0.2992752194404602,37.0941162109375,-20.660400390625,0.762939453125
19.769999900000002,-10.137049674987793,0.15562310814857483,0.27054479718208313,38.4674072265625,-22.857666015625,-0.8087158203125
19.7899999,-10.093954086303711,0.30885201692581177,0.5051765441894531,21.66748046875,-12.176513671875,-4.638671875
19.8099999,-9.971850395202637,0.5291185975074768,0.9792284965515137,1.922607421875,5.1727294921875,-5.3863525390625
19.8299999,-9.828198432922363,0.706289529800415,1.434126853942871,-15.07568359375,17.8375244140625,-2.62451171875
19.8499999,-9.696516990661621,0.7852981686592102,1.6879122257232666,-24.5819091796875,19.53125,0.396728515625
19.8699999,-9.648633003234863,0.751779317855835,1.6615760326385498,-26.30615234375,17.547607421875,4.3182373046875
19.8899999,-9.710882186889648,0.6320692300796509,1.403002142906189,-23.5137939453125,14.312744140625,7.7972412109375
19.909999900000003,-9.852140426635742,0.4620809257030487,1.0247182846069336,-18.0511474609375,8.209228515625,5.523681640625
19.929999900000002,-10.031704902648926,0.28730419278144836,0.6392518281936646,-8.9111328125,2.25830078125,-1.2969970703125
19.9499999,-10.18493366241455,0.1364694982767105,0.3280056416988373,1.708984375,-0.030517578125,-5.55419921875
19.9699999,-10.259154319763184,0.043095629662275314,0.15322890877723694,9.82666015625,-2.7923583984375,-3.7384033203125
19.9899999,-10.249577522277832,0.016759412363171577,0.13168109953403473,13.671875,-6.0272216796875,-1.15966796875
20.0099999,-10.192116737365723,0.05506663769483566,0.24181437492370605,13.7939453125,-5.584716796875,-2.655029296875
20.0299999,-10.120290756225586,0.1388636976480484,0.4429273009300232,11.53564453125,-2.0294189453125,-6.7138671875
20.0499999,-10.036493301391602,0.22744916379451752,0.6631938815116882,7.5225830078125,1.3580322265625,-8.9874267578125
20.0699999,-9.955090522766113,0.2968810200691223,0.8403648138046265,3.1890869140625,3.0975341796875,-7.049560546875
20.089999900000002,-9.892841339111328,0.33039984107017517,0.9361328482627869,0.18310546875,3.47900390625,-3.7384033203125
