# Time (seconds),Accel_X,Accel_Y,Accel_Z,Gyro_X,Gyro_Y,Gyro_Z
0.0099999,-8.762778282165527,-4.90571928024292,1.0797849893569946,16.4947509765625,-11.8865966796875,70.6787109375
0.029999900000000003,-8.968679428100586,-4.613626480102539,1.1971008777618408,13.2598876953125,-8.148193359375,67.2149658203125
0.0499999,-9.064447402954102,-4.37420654296875,1.3263877630233765,9.246826171875,-5.096435546875,63.2171630859375
0.0699999,-9.10993766784668,-4.1874589920043945,1.436521053314209,5.126953125,-0.823974609375,60.3485107421875
0.08999990000000001,-9.136273384094238,-4.05817174911499,1.5107412338256836,0.1373291015625,1.0528564453125,61.248779296875
0.10999990000000001,-9.167398452758789,-3.971980571746826,1.5322890281677246,-4.6844482421875,0.3662109375,62.1337890625
0.1299999,-9.217676162719727,-3.914519786834717,1.50355863571167,-8.72802734375,1.739501953125,59.0972900390625
0.14999990000000002,-9.284713745117188,-3.8786067962646484,1.4221558570861816,-11.2762451171875,8.30078125,55.9234619140625
0.1699999,-9.361329078674316,-3.8307228088378906,1.3096283674240112,-12.1002197265625,12.237548828125,56.5948486328125
0.1899999,-9.41400146484375,-3.77565598487854,1.1803414821624756,-11.077880859375,11.3983154296875,56.3507080078125
0.20999990000000002,-9.461885452270508,-3.6846764087677,1.0414776802062988,-8.1787109375,12.481689453125,54.5654296875
0.2299999,-9.50498104095459,-3.576937437057495,0.9145850539207458,-4.1656494140625,13.885498046875,55.3436279296875
0.2499999,-9.569623947143555,-3.426102638244629,0.7948749661445618,-0.3814697265625,9.918212890625,57.6629638671875
0.2699999,-9.641449928283691,-3.248931646347046,0.6943184733390808,3.2196044921875,1.6326904296875,53.314208984375
0.28999990000000003,-9.708487510681152,-3.050212860107422,0.6105214357376099,8.1634521484375,-3.5552978515625,43.5333251953125
0.3099999,-9.710882186889648,-2.8443117141723633,0.5602431893348694,13.1378173828125,-3.2958984375,37.750244140625
0.3299999,-9.651026725769043,-2.6575639247894287,0.545877993106842,16.3421630859375,-0.7476806640625,38.116455078125
0.34999990000000003,-9.579200744628906,-2.4803929328918457,0.569819986820221,17.181396484375,0.6256103515625,38.2843017578125
0.3699999,-9.543288230895996,-2.322375535964966,0.6320692300796509,16.632080078125,1.312255859375,36.4227294921875
0.3899999,-9.576807022094727,-2.1499931812286377,0.7015010714530945,14.9993896484375,3.41796875,37.17041015625
0.40999990000000003,-9.653421401977539,-1.9776105880737305,0.7757213711738586,12.9547119140625,4.5013427734375,38.4674072265625
0.4299999,-9.744400978088379,-1.821987509727478,0.8427590131759644,10.68115234375,4.5623779296875,36.376953125
0.4499999,-9.856928825378418,-1.6831238269805908,0.8834604024887085,8.7890625,4.8370361328125,32.501220703125
0.4699999,-9.979032516479492,-1.558625340461731,0.9050082564353943,7.1563720703125,5.0201416015625,29.2205810546875
0.4899999,-10.08198356628418,-1.455674648284912,0.8834604024887085,6.378173828125,6.7596435546875,27.252197265625
0.5099999,-10.127472877502441,-1.3742717504501343,0.8355764150619507,6.134033203125,5.7830810546875,27.28271484375
0.5299999,-10.127472877502441,-1.3096283674240112,0.7852981686592102,6.256103515625,4.2266845703125,29.23583984375
0.5499999,-10.125079154968262,-1.2306196689605713,0.7541735172271729,6.011962890625,5.1422119140625,28.9306640625
0.5699999,-10.141838073730469,-1.1300631761550903,0.7493851184844971,5.2032470703125,5.859375,22.64404296875
0.5899998999999999,-10.170568466186523,-1.015141487121582,0.7709329724311829,4.5013427734375,4.1961669921875,14.923095703125
0.6099998999999999,-10.192116737365723,-0.8906430602073669,0.8020575642585754,4.2877197265625,3.7841796875,11.6729736328125
0.6299999,-10.153809547424316,-0.7852981686592102,0.8307880163192749,4.638671875,3.60107421875,10.7879638671875
0.6499999,-10.08437728881836,-0.7015010714530945,0.8643068075180054,3.9215087890625,1.9378662109375,9.613037109375
0.6699999,-10.029311180114746,-0.6416460275650024,0.9050082564353943,0.8697509765625,0,8.8653564453125
0.6899999,-10.014945983886719,-0.5674257874488831,0.9624691009521484,-3.204345703125,0.4425048828125,7.62939453125
0.7099999,-10.02452278137207,-0.48602294921875,1.0247182846069336,-4.608154296875,5.1727294921875,4.638671875
0.7299998999999999,-10.053253173828125,-0.40462008118629456,1.0845733880996704,-3.0975341796875,9.735107421875,3.3721923828125
0.7499998999999999,-10.101137161254883,-0.2849099934101105,1.1204863786697388,-3.8299560546875,10.4217529296875,4.058837890625
0.7699999,-10.141838073730469,-0.20111294090747833,1.1013327836990356,0.18310546875,7.843017578125,6.4849853515625
0.7899999,-10.182539939880371,-0.13168109953403473,1.0462661981582642,4.2572021484375,0.48828125,8.5296630859375
0.8099999,-10.192116737365723,-0.11013327538967133,0.9624691009521484,5.9356689453125,-3.72314453125,10.406494140625
0.8299999,-10.189722061157227,-0.10295066982507706,0.8978256583213806,5.9356689453125,-2.3956298828125,13.8397216796875
0.8499998999999999,-10.1753568649292,-0.11252748221158981,0.8523358106613159,6.28662109375,-1.64794921875,14.9078369140625
0.8699998999999999,-10.180145263671875,-0.08379705995321274,0.8738836050033569,6.6070556640625,-5.43212890625,13.702392578125
0.8899999,-10.199298858642578,-0.026336219161748886,0.9145850539207458,5.2490234375,-5.9051513671875,10.5743408203125
0.9099999,-10.192116737365723,0.047884032130241394,0.9768342971801758,3.692626953125,-5.7373046875,7.7667236328125
0.9299999,-10.15141487121582,0.12210428714752197,1.0319008827209473,1.373291015625,-5.340576171875,7.32421875
0.9499999,-10.08437728881836,0.16519992053508759,1.0582371950149536,-1.4801025390625,-1.2359619140625,8.2244873046875
0.9699998999999999,-10.101137161254883,0.14844051003456116,1.0606313943862915,-3.6163330078125,3.35693359375,8.8653564453125
0.9899998999999999,-10.165780067443848,0.10534487664699554,1.0223240852355957,-5.1727294921875,3.5552978515625,2.62451171875
1.0099999,-10.235212326049805,0.06224924325942993,0.9457096457481384,-6.53076171875,1.922607421875,-3.1280517578125
1.0299999,-10.304644584655762,0.033518824726343155,0.8475474119186401,-7.3394775390625,0.3204345703125,0.946044921875
1.0499999,-10.26394271850586,0.05506663769483566,0.7326257228851318,-6.4849853515625,-1.8157958984375,1.89208984375
1.0699999,-10.196905136108398,0.08140286058187485,0.6368576288223267,-5.06591796875,-3.6163330078125,0.6103515625
1.0899999,-10.113107681274414,0.09576806426048279,0.5746083855628967,-3.509521484375,-5.7525634765625,0.3509521484375
1.1099999,-10.06043529510498,0.07422025501728058,0.569819986820221,-1.9683837890625,-8.331298828125,0.6561279296875
1.1299999,-9.99339771270752,0.016759412363171577,0.6177040338516235,-1.1444091796875,-9.552001953125,-0.5950927734375
1.1499999,-9.914389610290527,-0.040701430290937424,0.7182605266571045,-1.8768310546875,-9.918212890625,-1.4495849609375
1.1699998999999999,-9.883264541625977,-0.09576806426048279,0.8403648138046265,-3.936767578125,-9.27734375,2.899169921875
1.1899998999999999,-9.854534149169922,-0.10773907601833344,0.9648633003234863,-5.2490234375,-8.6669921875,5.523681640625
1.2099999,-9.8784761428833,-0.08619125932455063,1.0749965906143188,-5.43212890625,-8.3770751953125,7.0648193359375
1.2299999,-9.93354320526123,-0.040701430290937424,1.1540051698684692,-6.256103515625,-8.087158203125,8.36181640625
1.2499999,-9.950302124023438,0.014365210197865963,1.2114660739898682,-5.9661865234375,-7.7056884765625,9.063720703125
1.2699999,-9.971850395202637,0.0933738648891449,1.2497732639312744,-4.425048828125,-6.988525390625,9.3994140625
1.2899999,-9.96945571899414,0.17238251864910126,1.2617442607879639,-2.8533935546875,-6.866455078125,8.9569091796875
1.3099999,-9.971850395202637,0.2537853717803955,1.259350061416626,-1.77001953125,-7.1868896484375,8.1329345703125
1.3299999,-9.971850395202637,0.33039984107017517,1.259350061416626,-1.5716552734375,-7.171630859375,8.1634521484375
1.3499999,-9.952696800231934,0.3734954595565796,1.3000515699386597,-1.739501953125,-6.3934326171875,8.6212158203125
1.3699999,-9.895236015319824,0.40462008118629456,1.3862427473068237,-3.3416748046875,-3.96728515625,9.2315673828125
1.3899999,-9.864110946655273,0.3519476354122162,1.479616641998291,-4.5013427734375,-0.3662109375,9.979248046875
1.4099999,-9.66539192199707,0.35913026332855225,1.6304513216018677,-5.889892578125,3.4027099609375,11.3525390625
1.4299998999999999,-9.648633003234863,0.36152446269989014,1.7262194156646729,-6.7138671875,6.500244140625,9.6893310546875
1.4499999,-9.586383819580078,0.45489832758903503,1.8076223134994507,-8.23974609375,9.7503662109375,8.514404296875
1.4699999,-9.667786598205566,0.5937620401382446,1.8052281141281128,-9.735107421875,11.9171142578125,8.23974609375
1.4899999,-9.794678688049316,0.7134721279144287,1.702277421951294,-10.80322265625,13.275146484375,7.904052734375
1.5099999,-9.914389610290527,0.8403648138046265,1.522712230682373,-12.8326416015625,13.458251953125,6.8511962890625
1.5299999,-10.000580787658691,0.9959878921508789,1.3000515699386597,-15.1214599609375,12.6190185546875,4.4403076171875
1.5499999,-10.014945983886719,1.1324573755264282,1.0582371950149536,-14.9688720703125,11.077880859375,-1.2359619140625
1.5699999,-10.036493301391602,1.2617442607879639,0.8547300100326538,-13.7176513671875,8.4686279296875,-6.195068359375
1.5899999,-10.046070098876953,1.2449848651885986,0.689530074596405,-14.1754150390625,5.06591796875,-8.48388671875
1.6099999,-10.022128105163574,1.0438719987869263,0.5961562395095825,-14.1143798828125,1.9073486328125,-8.3160400390625
1.6299999,-10.012551307678223,0.7086837291717529,0.6105214357376099,-13.0615234375,0.9002685546875,-5.706787109375
1.6499999,-9.962273597717285,0.33039984107017517,0.7086837291717529,-11.016845703125,0.946044921875,-2.838134765625
1.6699999,-9.782708168029785,-0.27054479718208313,1.01753568649292,-3.60107421875,0.3662109375,1.312255859375
1.6899998999999999,-9.720458984375,-0.3711012601852417,1.1635819673538208,-1.8768310546875,1.9683837890625,4.82177734375
1.7099999,-9.694122314453125,-0.3232172429561615,1.259350061416626,-1.9378662109375,4.364013671875,8.453369140625
1.7299999,-9.715670585632324,-0.1388636976480484,1.2880805730819702,-0.42724609375,6.0272216796875,10.31494140625
1.7499999,-9.75397777557373,0.14365209639072418,1.2545616626739502,-0.213623046875,6.8359375,9.5367431640625
1.7699999,-9.799467086791992,0.47165772318840027,1.1851298809051514,-2.899169921875,7.2479248046875,8.148193359375
1.7899999,-9.847352027893066,0.7924807667732239,1.113303780555725,-7.9803466796875,8.48388671875,7.0343017578125
1.8099999,-9.883264541625977,1.048660397529602,1.0271124839782715,-13.0462646484375,9.7503662109375,5.37109375
1.8299999,-9.921571731567383,1.237802267074585,0.9552865028381348,-16.2506103515625,9.124755859375,3.4027099609375
1.8499999,-9.967061996459961,1.3623007535934448,0.8667010068893433,-18.3563232421875,8.5296630859375,1.0223388671875
1.8699999,-9.981427192687988,1.3862427473068237,0.7254431247711182,-19.195556640625,7.26318359375,-2.9754638671875
1.8899999,-10.010157585144043,1.292868971824646,0.5913678407669067,-16.448974609375,3.5858154296875,-6.927490234375
1.9099999,-10.038887977600098,1.113303780555725,0.4692635238170624,-14.4805908203125,-0.4425048828125,-7.9803466796875
1.9299998999999999,-10.043676376342773,0.8307880163192749,0.3902548849582672,-11.41357421875,-3.0059814453125,-6.77490234375
1.9499999,-10.055646896362305,0.4668693244457245,0.33518823981285095,-4.7607421875,-5.9967041015625,-5.645751953125
1.9699999,-10.06043529510498,0.10773907601833344,0.33279404044151306,5.218505859375,-11.3677978515625,-4.669189453125
1.9899999,-10.046070098876953,-0.17956513166427612,0.3711012601852417,14.9078369140625,-16.510009765625,-2.3651123046875
2.0099999,-10.02452278137207,-0.35673606395721436,0.44771572947502136,18.6309814453125,-19.10400390625,0.5950927734375
2.0299999,-9.986215591430664,-0.37828385829925537,0.5746083855628967,19.9737548828125,-20.0042724609375,2.2430419921875
2.0499999,-9.931148529052734,-0.2082955539226532,0.7565677165985107,21.54541015625,-21.17919921875,3.8909912109375
2.0699999,-9.888052940368652,0.13168109953403473,1.039083480834961,20.9197998046875,-20.172119140625,4.2877197265625
2.0899999,-9.852140426635742,0.5363011956214905,1.357512354850769,15.56396484375,-14.2669677734375,3.2806396484375
2.1099999,-9.825803756713867,0.9624691009521484,1.7118542194366455,3.7078857421875,-7.1868896484375,1.52587890625
2.1299999,-9.813833236694336,1.2545616626739502,1.9632453918457031,-8.880615234375,-1.9989013671875,0.885009765625
2.1499999,-9.797073364257812,1.3910311460494995,2.0446481704711914,-14.5721435546875,1.4801025390625,0.885009765625
2.1699999,-9.787496566772461,1.3287819623947144,1.9321208000183105,-14.4195556640625,2.5482177734375,-0.5340576171875
2.1899999,-9.806650161743164,1.1348515748977661,1.6519991159439087,-12.26806640625,1.007080078125,-2.9144287109375
2.2099999,-9.873687744140625,0.8571242094039917,1.37906014919281,-7.5836181640625,-2.5482177734375,-4.33349609375
2.2299999,-9.952696800231934,0.5770025849342346,1.1276689767837524,-0.7476806640625,-6.1187744140625,-4.1961669921875
2.2499999,-10.012551307678223,0.35434186458587646,1.0127472877502441,6.500244140625,-7.659912109375,-4.180908203125
2.2699999,-9.99339771270752,0.2298433631658554,0.9744400978088379,12.39013671875,-8.1329345703125,-4.2724609375
2.2899999,-9.914389610290527,0.2298433631658554,1.0630255937576294,15.2435302734375,-9.2010498046875,-4.150390625
2.3099999,-9.84256362915039,0.3064578175544739,1.1492167711257935,15.0299072265625,-9.918212890625,-3.936767578125
2.3299999,-9.816226959228516,0.42856210470199585,1.2952631711959839,13.2293701171875,-10.6353759765625,-3.753662109375
2.3499999,-9.818621635437012,0.5386953949928284,1.4101848602294922,11.3525390625,-11.6424560546875,-4.241943359375
2.3699999,-9.84256362915039,0.6392518281936646,1.5442601442337036,9.2926025390625,-11.810302734375,-4.6234130859375
2.3899999,-9.804255485534668,0.6991068720817566,1.644816517829895,7.6751708984375,-10.4522705078125,-6.0272216796875
2.4099999,-9.780313491821289,0.7398083209991455,1.7525556087493896,6.4544677734375,-7.9498291015625,-8.2244873046875
2.4299999,-9.734824180603027,0.7350199222564697,1.8602946996688843,4.0740966796875,-4.94384765625,-8.1024169921875
2.4499999,-9.730035781860352,0.6823474764823914,1.9345149993896484,-0.1068115234375,-2.0599365234375,-7.354736328125
2.4699999,-9.710882186889648,0.5650315880775452,1.9584569931030273,-3.0059814453125,-0.6256103515625,-6.561279296875
2.4899999,-9.761159896850586,0.3758896589279175,1.8986018896102905,-2.5634765625,-0.30517578125,-5.218505859375
2.5099999,-9.773131370544434,0.19153612852096558,1.7334020137786865,0.1220703125,-3.204345703125,-3.265380859375
2.5299999,-9.852140426635742,0.028730420395731926,1.5298948287963867,3.60107421875,-7.0343017578125,-1.220703125
2.5499999,-9.861717224121094,-0.033518824726343155,1.3527239561080933,6.5460205078125,-9.0179443359375,0.0457763671875
2.5699999,-9.890447616577148,0.014365210197865963,1.2832920551300049,8.2550048828125,-10.7421875,1.0528564453125
2.5899999,-9.871294021606445,0.17477671802043915,1.357512354850769,8.2244873046875,-12.1002197265625,1.64794921875
2.6099999,-9.854534149169922,0.3926490843296051,1.577778935432434,7.5225830078125,-11.53564453125,0.30517578125
2.6299999,-9.801861763000488,0.5985504388809204,1.8626888990402222,4.791259765625,-8.880615234375,-1.739501953125
2.6499999,-9.727641105651855,0.7326257228851318,2.1475989818573,0.1373291015625,-4.974365234375,-3.7841796875
2.6699999,-9.653421401977539,0.7924807667732239,2.3774423599243164,-2.86865234375,-0.6103515625,-4.9896240234375
2.6899999,-9.564835548400879,0.7565677165985107,2.540247917175293,-5.218505859375,2.838134765625,-5.0201416015625
2.7099999,-9.583989143371582,0.6224924325942993,2.612074136734009,-7.843017578125,8.36181640625,-4.5623779296875
2.7299999,-9.579200744628906,0.4572925269603729,2.5546131134033203,-9.1400146484375,12.4969482421875,-3.2806396484375
2.7499999,-9.674968719482422,0.3016694188117981,2.4372973442077637,-8.4381103515625,12.39013671875,-1.9989013671875
2.7699999,-9.691728591918945,0.2082955539226532,2.1140801906585693,-6.04248046875,11.7340087890625,-2.227783203125
2.7899999,-9.797073364257812,0.15801730751991272,1.7286136150360107,-1.6021728515625,10.040283203125,-3.1890869140625
2.8099999,-9.871294021606445,0.16519992053508759,1.3335703611373901,3.5552978515625,3.2196044921875,-2.655029296875
2.8299999,-9.971850395202637,0.181959331035614,1.072602391242981,7.9345703125,-4.5623779296875,-1.9683837890625
2.8499999,-10.038887977600098,0.2082955539226532,1.036689281463623,8.9263916015625,-8.148193359375,-2.349853515625
2.8699999,-9.988609313964844,0.21308395266532898,1.2042834758758545,7.0037841796875,-7.4615478515625,-3.8299560546875
2.8899999,-9.93593692779541,0.15801730751991272,1.4772224426269531,5.3863525390625,-4.2724609375,-2.5482177734375
2.9099999,-9.801861763000488,0.13168109953403473,1.7741034030914307,3.387451171875,-3.23486328125,-0.2899169921875
2.9299999,-9.742006301879883,0.11971008777618408,2.078166961669922,-1.2969970703125,-0.2899169921875,1.068115234375
2.9499999,-9.696516990661621,0.15083470940589905,2.183511972427368,-5.4779052734375,3.5247802734375,0.9307861328125
2.9699999,-9.684545516967773,0.24660277366638184,2.2864625453948975,-7.354736328125,6.77490234375,1.312255859375
2.9899999,-9.737217903137207,0.31842881441116333,2.1763293743133545,-6.9732666015625,7.7362060546875,4.3792724609375
3.0099999,-9.806650161743164,0.3663128614425659,1.9728221893310547,-5.8746337890625,3.387451171875,5.6304931640625
3.0299999,-9.923966407775879,0.3663128614425659,1.723825216293335,-2.2125244140625,-1.861572265625,3.2501220703125
3.0499999,-9.945513725280762,0.3447650372982025,1.5203180313110352,4.8980712890625,-5.4931640625,-0.3204345703125
3.0699999,-9.926360130310059,0.31124621629714966,1.4867992401123047,10.1470947265625,-5.828857421875,-0.579833984375
3.0899999,-9.835380554199219,0.3016694188117981,1.6041151285171509,6.4544677734375,-2.655029296875,-0.6256103515625
3.1099999,-9.68694019317627,0.3423708379268646,1.8794482946395874,-2.6397705078125,3.2501220703125,-0.9002685546875
3.1299999,-9.63187313079834,0.4141969084739685,2.123656988143921,-8.9111328125,9.21630859375,-0.274658203125
3.1499999,-9.636661529541016,0.47644615173339844,2.2577321529388428,-10.0860595703125,12.5579833984375,3.1585693359375
3.1699999,-9.730035781860352,0.4692635238170624,2.1787235736846924,-8.8958740234375,8.7432861328125,4.364013671875
3.1899999,-9.892841339111328,0.395043283700943,1.9608511924743652,-3.4637451171875,3.936767578125,1.4190673828125
3.2099999,-10.038887977600098,0.3232172429561615,1.7070658206939697,5.8135986328125,1.8157958984375,-1.922607421875
3.2299999,-10.108319282531738,0.20350714027881622,1.4724340438842773,14.3280029296875,-1.129150390625,-2.0294189453125
3.2499999,-10.110713958740234,0.10773907601833344,1.3527239561080933,18.4326171875,-3.814697265625,-2.1209716796875
3.2699999,-10.019734382629395,-0.0071826050989329815,1.1324573755264282,21.453857421875,-5.157470703125,-1.7547607421875
3.2899999,-10.022128105163574,-0.1364694982767105,0.9744400978088379,38.4979248046875,-12.7716064453125,0.030517578125
3.3099999,-9.950302124023438,-0.1628057211637497,0.8738836050033569,59.234619140625,-26.3519287109375,0.67138671875
3.3299999000000002,-9.911994934082031,0.014365210197865963,0.9026140570640564,56.4422607421875,-28.045654296875,1.4190673828125
3.3499999,-9.77791976928711,0.31364041566848755,1.2832920551300049,40.618896484375,-23.2086181640625,0.5645751953125
3.3699999,-9.569623947143555,0.7493851184844971,1.8411411046981812,18.9208984375,-15.1214599609375,0.3814697265625
3.3899999,-9.385271072387695,1.048660397529602,2.470816135406494,-4.0130615234375,-5.2032470703125,2.2430419921875
3.4099999,-9.330204010009766,1.139639973640442,3.0358476638793945,-20.7977294921875,4.69970703125,5.035400390625
3.4299999,-9.366117477416992,1.048660397529602,3.3925838470458984,-29.4036865234375,12.603759765625,8.5296630859375
3.4499999,-9.461885452270508,0.8259995579719543,3.40216064453125,-31.79931640625,17.5323486328125,11.3525390625
3.4699999,-9.560047149658203,0.5746083855628967,3.0813376903533936,-27.496337890625,17.913818359375,11.7034912109375
3.4899999,-9.641449928283691,0.3998316824436188,2.492363929748535,-17.333984375,13.48876953125,10.1318359375
3.5099999,-9.75637149810791,0.35434186458587646,1.8148049116134644,-7.0343017578125,5.950927734375,8.1024169921875
3.5299999,-9.890447616577148,0.42616790533065796,1.2713210582733154,-0.213623046875,-1.3885498046875,6.103515625
3.5499999,-10.005369186401367,0.5937620401382446,1.0031704902648926,2.044677734375,-5.55419921875,4.1961669921875
3.5699999,-10.031704902648926,0.7876923680305481,1.0534487962722778,-0.3204345703125,-5.7220458984375,2.410888671875
3.5899999,-9.93593692779541,0.9385270476341248,1.3551181554794312,-4.94384765625,-3.2501220703125,0.885009765625
3.6099999,-9.78989028930664,1.0199298858642578,1.7717092037200928,-9.1094970703125,0.762939453125,-0.3814697265625
3.6299999,-9.63187313079834,1.0223240852355957,2.1571757793426514,-12.5885009765625,4.8828125,-0.8087158203125
3.6499999,-9.548076629638672,0.950498104095459,2.3942017555236816,-14.6484375,7.4615478515625,-0.579833984375
3.6699999,-9.548076629638672,0.8379706144332886,2.451662540435791,-14.801025390625,7.9345703125,-0.152587890625
3.6899999,-9.603142738342285,0.7350199222564697,2.3558945655822754,-14.984130859375,8.1024169921875,0.42724609375
3.7099999,-9.684545516967773,0.6799532771110535,2.185906171798706,-15.13671875,8.209228515625,0.4119873046875
3.7299999,-9.751583099365234,0.6727706789970398,2.0015525817871094,-13.885498046875,8.148193359375,-0.6561279296875
3.7499999,-9.797073364257812,0.6967126727104187,1.8507179021835327,-12.481689453125,7.4920654296875,-2.410888671875
3.7699999,-9.80904483795166,0.7110779285430908,1.745373010635376,-11.2457275390625,7.0953369140625,-3.5858154296875
3.7899999,-9.816226959228516,0.6991068720817566,1.6879122257232666,-10.5133056640625,6.9122314453125,-3.60107421875
3.8099999,-9.823410034179688,0.6584054827690125,1.680729627609253,-9.5062255859375,6.5460205078125,-3.7384033203125
3.8299999000000002,-9.830592155456543,0.6033388376235962,1.6927006244659424,-7.75146484375,6.3629150390625,-4.0740966796875
3.8499999,-9.823410034179688,0.545877993106842,1.6879122257232666,-5.4931640625,6.103515625,-4.1351318359375
3.8699999,-9.801861763000488,0.47405192255973816,1.6615760326385498,-2.6092529296875,5.0811767578125,-4.33349609375
3.8899999,-9.763554573059082,0.395043283700943,1.6065093278884888,-0.152587890625,3.6468505859375,-3.814697265625
3.9099999,-9.744400978088379,0.3208230137825012,1.5514427423477173,1.2359619140625,2.1209716796875,-2.899169921875
3.9299999,-9.75637149810791,0.2825157940387726,1.5275006294250488,1.922607421875,1.03759765625,-1.800537109375
3.9499999,-9.794678688049316,0.2992752194404602,1.5634137392044067,0.6561279296875,0.54931640625,-0.9002685546875
3.9699999,-9.801861763000488,0.3663128614425659,1.623268723487854,-4.9896240234375,1.40380859375,-0.48828125
3.9899999,-9.837775230407715,0.5315127968788147,1.723825216293335,-12.054443359375,3.35693359375,-0.4425048828125
4.0099999,-9.763554573059082,0.6823474764823914,1.824381709098816,-14.58740234375,5.8441162109375,-2.1820068359375
4.029999900000001,-9.6989107131958,0.7924807667732239,1.9033904075622559,-9.7808837890625,7.965087890625,-5.4473876953125
4.0499999,-9.66299819946289,0.7924807667732239,1.8770540952682495,-3.0517578125,8.880615234375,-9.0179443359375
4.069999900000001,-9.68933391571045,0.6560112833976746,1.7693150043487549,4.3182373046875,5.828857421875,-10.6353759765625
4.0899999000000005,-9.773131370544434,0.40462008118629456,1.5418659448623657,12.176513671875,0.518798828125,-10.3912353515625
4.1099999,-9.871294021606445,0.15562310814857483,1.3311761617660522,17.1966552734375,-3.3721923828125,-8.544921875
4.1299999000000005,-9.90241813659668,-0.016759412363171577,1.2114660739898682,20.5230712890625,-4.6844482421875,-6.6986083984375
4.1499999,-9.880870819091797,-0.07900865375995636,1.2497732639312744,23.0712890625,-5.340576171875,-5.7830810546875
4.1699999000000005,-9.81143856048584,0.0071826050989329815,1.4269442558288574,15.9454345703125,-4.9285888671875,-4.08935546875
4.1899999,-9.765948295593262,0.20350714027881622,1.7501614093780518,-3.1890869140625,2.0751953125,-0.9307861328125
4.209999900000001,-9.694122314453125,0.43095630407333374,2.0422539710998535,-19.805908203125,9.8876953125,0.3204345703125
4.2299999,-9.703699111938477,0.5841852426528931,2.2194249629974365,-23.3154296875,12.6495361328125,-0.1220703125
4.249999900000001,-9.780313491821289,0.586579442024231,2.1978771686553955,-19.83642578125,10.7269287109375,0.2899169921875
4.2699999,-9.823410034179688,0.4620809257030487,2.0183119773864746,-20.08056640625,9.3994140625,0.54931640625
4.289999900000001,-9.914389610290527,0.2346317619085312,1.6855180263519287,-18.9361572265625,9.8724365234375,0.6561279296875
4.3099999,-9.964667320251465,-0.0071826050989329815,1.3072341680526733,-7.2174072265625,4.2572021484375,0.7476806640625
4.329999900000001,-10.005369186401367,-0.12928688526153564,1.0127472877502441,6.16455078125,-4.119873046875,-0.9613037109375
4.3499999,-10.055646896362305,-0.17956513166427612,0.7733271718025208,12.8936767578125,-8.6517333984375,-2.38037109375
4.369999900000001,-10.091560363769531,-0.06464344263076782,0.6751648783683777,17.88330078125,-9.0789794921875,-1.5869140625
4.3899999,-10.079588890075684,0.12210428714752197,0.7541735172271729,20.7366943359375,-15.7012939453125,-0.6103515625
4.409999900000001,-10.034099578857422,0.3878606855869293,0.9600749015808105,16.0369873046875,-19.7906494140625,-3.692626953125
4.4299999,-9.907206535339355,0.586579442024231,1.2665326595306396,7.3699951171875,-17.4713134765625,-7.2021484375
4.449999900000001,-9.823410034179688,0.6943184733390808,1.6831238269805908,1.0986328125,-12.3138427734375,-7.049560546875
4.4699999,-9.720458984375,0.6248866319656372,2.073378562927246,-3.3111572265625,-7.6904296875,-7.232666015625
4.489999900000001,-9.615114212036133,0.4668693244457245,2.365471363067627,-7.0037841796875,-2.716064453125,-5.096435546875
4.5099999,-9.622296333312988,0.2346317619085312,2.4372973442077637,-6.3323974609375,2.105712890625,-0.79345703125
4.529999900000001,-9.639056205749512,0.05027823522686958,2.387019157409668,-1.2359619140625,0.091552734375,3.021240234375
4.5499999,-9.6989107131958,-0.05506663769483566,2.252943754196167,-0.335693359375,-2.4871826171875,2.197265625
4.569999900000001,-9.708487510681152,-0.014365210197865963,2.123656988143921,-4.6539306640625,0.8087158203125,-0.213623046875
4.5899999000000005,-9.742006301879883,0.031124621629714966,2.030282974243164,-5.6610107421875,3.7689208984375,-0.244140625
4.609999900000001,-9.737217903137207,0.10055647045373917,1.965639591217041,-1.89208984375,2.6092529296875,-1.4495849609375
4.6299999000000005,-9.701305389404297,0.11013327538967133,1.8602946996688843,-1.2664794921875,3.2958984375,-1.739501953125
4.6499999,-9.770736694335938,0.14365209639072418,1.766920804977417,-1.922607421875,5.6304931640625,1.6326904296875
4.6699999000000005,-9.864110946655273,0.2513911724090576,1.699883222579956,-0.67138671875,-2.2430419921875,-1.220703125
4.6899999,-9.880870819091797,0.30885201692581177,1.7118542194366455,-1.4190673828125,0.1373291015625,-3.47900390625
4.709999900000001,-9.883264541625977,0.2825157940387726,1.7166426181793213,-0.213623046875,0.2288818359375,-0.9918212890625
4.7299999,-9.840168952941895,0.1867477297782898,1.6927006244659424,2.0904541015625,-2.8839111328125,-2.471923828125
4.749999900000001,-9.813833236694336,0.07661445438861847,1.6328455209732056,3.082275390625,-1.8157958984375,-2.899169921875
4.7699999,-9.852140426635742,0.043095629662275314,1.6280571222305298,3.0517578125,-2.7923583984375,2.4566650390625
4.789999900000001,-9.876082420349121,0.06224924325942993,1.656787633895874,1.9683837890625,-7.720947265625,4.119873046875
4.8099999,-9.904812812805176,0.15322890877723694,1.7741034030914307,1.4190673828125,-8.0108642578125,-1.4801025390625
4.829999900000001,-9.873687744140625,0.24420857429504395,1.9105730056762695,0.4730224609375,-4.4708251953125,-3.23486328125
4.8499999,-9.775525093078613,0.2944868206977844,2.0661959648132324,-1.861572265625,-2.532958984375,-1.4801025390625
4.869999900000001,-9.674968719482422,0.23702596127986908,2.1763293743133545,-3.90625,0.4425048828125,-1.7547607421875
4.8899999,-9.619902610778809,0.15801730751991272,2.2361843585968018,-3.6163330078125,5.1116943359375,-0.335693359375
4.909999900000001,-9.660603523254395,0.10534487664699554,2.2218191623687744,-3.4027099609375,4.0130615234375,5.0048828125
4.9299999,-9.742006301879883,0.06224924325942993,2.118868589401245,-3.8299560546875,0.030517578125,4.8980712890625
4.949999900000001,-9.830592155456543,0.08379705995321274,1.9823989868164062,-1.3275146484375,-0.7476806640625,0.48828125
4.9699999,-9.883264541625977,0.13168109953403473,1.821987509727478,2.8076171875,-2.044677734375,-0.244140625
4.989999900000001,-9.86650562286377,0.22505496442317963,1.7860745191574097,0.8697509765625,-2.5482177734375,-0.579833984375
5.0099999,-9.804255485534668,0.2753331959247589,1.764526605606079,-5.5084228515625,-0.06103515625,-2.44140625
5.029999900000001,-9.773131370544434,0.31603461503982544,1.8339585065841675,-7.3699951171875,3.204345703125,-0.91552734375
5.0499999,-9.768342971801758,0.3232172429561615,1.9129672050476074,-5.3863525390625,-0.518798828125,3.11279296875
5.069999900000001,-9.782708168029785,0.3016694188117981,2.013523578643799,-5.340576171875,-2.6397705078125,1.251220703125
5.0899999000000005,-9.792284965515137,0.24660277366638184,2.056619167327881,-7.8125,1.7547607421875,-1.617431640625
5.109999900000001,-9.78989028930664,0.20111294090747833,2.0614075660705566,-6.9122314453125,3.387451171875,-0.701904296875
5.1299999000000005,-9.75637149810791,0.09816227108240128,2.0254945755004883,-3.448486328125,1.0833740234375,-0.640869140625
5.1499999,-9.737217903137207,0.023942016065120697,1.900996208190918,-1.8157958984375,-0.213623046875,-1.28173828125
5.1699999000000005,-9.794678688049316,-0.021547814831137657,1.8148049116134644,-0.823974609375,-0.2288818359375,3.082275390625
5.1899999,-9.883264541625977,-0.014365210197865963,1.7094600200653076,1.40380859375,-6.072998046875,6.2255859375
5.209999900000001,-9.909601211547852,0.043095629662275314,1.6065093278884888,5.6915283203125,-11.3677978515625,2.0904541015625
5.2299999,-9.914389610290527,0.13168109953403473,1.6424223184585571,8.3465576171875,-12.054443359375,-1.434326171875
5.249999900000001,-9.830592155456543,0.24899697303771973,1.7980455160140991,3.7994384765625,-8.056640625,-0.9918212890625
5.2699999,-9.730035781860352,0.3232172429561615,2.0805611610412598,-5.8441162109375,-2.6702880859375,0.42724609375
5.289999900000001,-9.627084732055664,0.40701428055763245,2.38462495803833,-12.3443603515625,2.838134765625,1.2969970703125
5.3099999,-9.591172218322754,0.4213795065879822,2.5761611461639404,-13.885498046875,5.92041015625,5.462646484375
5.329999900000001,-9.569623947143555,0.3926490843296051,2.5977089405059814,-12.9852294921875,4.5166015625,4.6539306640625
5.3499999,-9.605537414550781,0.31842881441116333,2.4827871322631836,-9.9945068359375,4.82177734375,0.274658203125
5.369999900000001,-9.641449928283691,0.21787235140800476,2.3032219409942627,-6.2103271484375,5.1727294921875,-0.213623046875
5.3899999,-9.72285270690918,0.16998831927776337,2.1332337856292725,-5.1422119140625,5.401611328125,1.983642578125
5.409999900000001,-9.708487510681152,0.14604631066322327,1.9608511924743652,-6.16455078125,4.6844482421875,0.640869140625
5.4299999,-9.761159896850586,0.13407529890537262,1.8267759084701538,-2.3651123046875,5.0506591796875,-0.3204345703125
5.449999900000001,-9.80904483795166,0.15562310814857483,1.723825216293335,2.7008056640625,-0.244140625,3.2196044921875
5.4699999,-9.797073364257812,0.20111294090747833,1.6950948238372803,0.701904296875,-4.1046142578125,1.556396484375
5.489999900000001,-9.799467086791992,0.2537853717803955,1.7764976024627686,-5.2947998046875,-0.06103515625,-3.47900390625
5.5099999,-9.737217903137207,0.35673606395721436,1.941697597503662,-8.392333984375,4.8370361328125,-3.814697265625
5.529999900000001,-9.734824180603027,0.3758896589279175,2.1523873805999756,-9.7808837890625,5.706787109375,-1.129150390625
5.5499999,-9.708487510681152,0.36152446269989014,2.2673089504241943,-13.336181640625,7.6751708984375,-1.8768310546875
5.569999900000001,-9.81143856048584,0.2777273952960968,2.2649147510528564,-15.7318115234375,10.894775390625,0.0762939453125
5.5899999000000005,-9.93593692779541,0.15801730751991272,2.1164743900299072,-11.688232421875,5.401611328125,4.0740966796875
5.609999900000001,-10.017339706420898,0.0454898327589035,1.8746598958969116,-3.7384033203125,-1.2664794921875,1.3580322265625
5.6299999000000005,-10.053253173828125,-0.023942016065120697,1.6328455209732056,1.800537109375,-2.2125244140625,-1.6632080078125
5.6499999,-10.007762908935547,-0.035913024097681046,1.5466543436050415,2.105712890625,-2.716064453125,0.518798828125
5.6699999000000005,-9.880870819091797,0.038307227194309235,1.599326729774475,-3.8909912109375,-2.62451171875,2.8839111328125
5.6899999,-9.713275909423828,0.15562310814857483,1.7812861204147339,-11.505126953125,0.8392333984375,1.7547607421875
5.709999900000001,-9.610325813293457,0.29209262132644653,2.0015525817871094,-13.702392578125,4.69970703125,2.99072265625
5.7299999,-9.57441234588623,0.3758896589279175,2.166752576828003,-13.641357421875,3.7994384765625,3.631591796875
5.749999900000001,-9.576807022094727,0.4165911078453064,2.274491548538208,-14.2364501953125,5.218505859375,-0.9918212890625
5.7699999,-9.576807022094727,0.33039984107017517,2.2457611560821533,-13.153076171875,9.9639892578125,-2.9449462890625
5.789999900000001,-9.576807022094727,0.2513911724090576,2.183511972427368,-8.209228515625,11.2457275390625,-1.0833740234375
5.8099999,-9.545681953430176,0.11252748221158981,2.0374655723571777,-3.7841796875,8.2244873046875,0.6103515625
5.829999900000001,-9.521739959716797,0.06224924325942993,1.922544002532959,-2.1514892578125,9.2926025390625,-1.739501953125
5.8499999,-9.634267807006836,0.0694318488240242,1.8076223134994507,-1.617431640625,10.2691650390625,-0.762939453125
5.869999900000001,-9.81143856048584,0.1364694982767105,1.7142484188079834,-0.457763671875,5.67626953125,-0.91552734375
5.8899999,-9.974244117736816,0.20111294090747833,1.5849615335464478,0.2288818359375,3.2958984375,-4.5318603515625
5.909999900000001,-10.093954086303711,0.24660277366638184,1.522712230682373,-1.190185546875,3.5552978515625,-3.326416015625
5.9299999,-10.089165687561035,0.2537853717803955,1.5298948287963867,-3.082275390625,4.638671875,-1.4801025390625
5.949999900000001,-9.945513725280762,0.2082955539226532,1.5729905366897583,-4.638671875,3.875732421875,-1.6632080078125
5.9699999,-9.818621635437012,0.19153612852096558,1.6639702320098877,-5.92041015625,4.547119140625,-1.6632080078125
5.989999900000001,-9.720458984375,0.14604631066322327,1.6903064250946045,-8.1939697265625,4.08935546875,0.244140625
6.0099999,-9.694122314453125,0.10055647045373917,1.6615760326385498,-7.4920654296875,2.227783203125,-0.7171630859375
6.029999900000001,-9.739612579345703,0.06224924325942993,1.6184803247451782,-2.6397705078125,1.0986328125,-2.74658203125
6.0499999,-9.765948295593262,0.014365210197865963,1.623268723487854,-0.1983642578125,1.15966796875,-2.0294189453125
6.069999900000001,-9.818621635437012,0.031124621629714966,1.6543933153152466,-3.3111572265625,3.509521484375,-1.9989013671875
6.0899999000000005,-9.806650161743164,0.06703764945268631,1.7070658206939697,-6.256103515625,6.256103515625,-4.3792724609375
6.109999900000001,-9.856928825378418,0.09576806426048279,1.745373010635376,-3.7078857421875,4.6844482421875,-2.2125244140625
6.1299999000000005,-9.883264541625977,0.1388636976480484,1.7070658206939697,-1.4801025390625,0.732421875,-1.4801025390625
6.149999900000001,-9.9000244140625,0.12689268589019775,1.601720929145813,-0.48828125,0.5340576171875,-4.2724609375
6.1699999000000005,-9.959878921508789,0.07422025501728058,1.4987702369689941,2.8228759765625,-0.6256103515625,-5.0048828125
6.1899999,-9.971850395202637,-0.014365210197865963,1.41257905960083,5.2947998046875,-3.41796875,-2.3956298828125
6.209999900000001,-9.926360130310059,-0.07900865375995636,1.3623007535934448,2.7008056640625,-4.57763671875,-1.3885498046875
6.2299999,-9.84495735168457,-0.090979665517807,1.403002142906189,-0.030517578125,-2.0599365234375,-2.50244140625
6.249999900000001,-9.801861763000488,-0.06464344263076782,1.525106430053711,-1.0223388671875,-3.60107421875,0.0457763671875
6.2699999,-9.75637149810791,-0.05746084079146385,1.6855180263519287,-4.57763671875,-3.7994384765625,0.579833984375
6.289999900000001,-9.818621635437012,0,1.8148049116134644,-9.58251953125,0.9613037109375,-1.190185546875
6.3099999,-9.840168952941895,-0.05267243832349777,1.8842366933822632,-9.552001953125,2.166748046875,-1.129150390625
6.329999900000001,-9.871294021606445,-0.0694318488240242,1.8531121015548706,-5.126953125,-0.67138671875,-0.42724609375
6.3499999,-9.797073364257812,-0.11013327538967133,1.7501614093780518,-1.800537109375,-0.7476806640625,-1.1444091796875
6.369999900000001,-9.770736694335938,-0.12928688526153564,1.6855180263519287,0.7781982421875,0.213623046875,0.9765625
6.3899999,-9.80904483795166,-0.11013327538967133,1.6328455209732056,3.3416748046875,-3.0670166015625,2.685546875
6.409999900000001,-9.873687744140625,-0.14365209639072418,1.6112977266311646,7.50732421875,-5.3253173828125,-0.396728515625
6.4299999,-9.971850395202637,-0.10295066982507706,1.6280571222305298,9.4451904296875,-3.4332275390625,-1.2054443359375
6.449999900000001,-9.99339771270752,-0.05506663769483566,1.7357962131500244,4.6234130859375,-1.739501953125,2.655029296875
6.4699999,-9.84256362915039,0.019153613597154617,1.8076223134994507,-2.9144287109375,-1.6326904296875,2.1820068359375
6.489999900000001,-9.670180320739746,0.16759411990642548,1.9823989868164062,-7.4615478515625,3.448486328125,-2.8533935546875
6.5099999,-9.552865028381348,0.2944868206977844,2.1763293743133545,-13.18359375,7.5531005859375,0.8697509765625
6.529999900000001,-9.528923034667969,0.3663128614425659,2.2649147510528564,-25.543212890625,10.5743408203125,3.60107421875
6.5499999,-9.605537414550781,0.3519476354122162,2.296039342880249,-33.233642578125,14.801025390625,-1.434326171875
6.569999900000001,-9.715670585632324,0.1843535304069519,2.0829553604125977,-27.83203125,16.387939453125,-2.7923583984375
6.5899999000000005,-9.801861763000488,-0.043095629662275314,1.7118542194366455,-14.495849609375,9.674072265625,1.7547607421875
6.609999900000001,-9.880870819091797,-0.31842881441116333,1.2186486721038818,-1.5106201171875,0.5340576171875,2.9754638671875
6.6299999000000005,-10.012551307678223,-0.4572925269603729,0.7924807667732239,13.1378173828125,-5.218505859375,-0.030517578125
6.649999900000001,-10.122684478759766,-0.42377370595932007,0.5650315880775452,25.054931640625,-14.0533447265625,-0.18310546875
6.6699999000000005,-10.196905136108398,-0.27054479718208313,0.569819986820221,27.7099609375,-19.59228515625,-2.8533935546875
6.6899999,-10.11789608001709,-0.10773907601833344,0.8619126081466675,24.0325927734375,-18.49365234375,-5.9814453125
6.709999900000001,-9.945513725280762,0.047884032130241394,1.3551181554794312,15.4266357421875,-12.908935546875,-3.3721923828125
6.7299999,-9.751583099365234,0.14844051003456116,1.9919757843017578,0.152587890625,-5.7830810546875,1.1138916015625
6.749999900000001,-9.533711433410645,0.17238251864910126,2.4899697303771973,-13.275146484375,1.922607421875,1.312255859375
6.7699999,-9.509769439697266,0.15801730751991272,2.8155810832977295,-17.425537109375,9.185791015625,2.899169921875
6.789999900000001,-9.583989143371582,0.090979665517807,2.784456491470337,-15.838623046875,8.1329345703125,6.8511962890625
6.8099999,-9.703699111938477,0.05985504388809204,2.518700122833252,-15.228271484375,5.9967041015625,4.2572021484375
6.829999900000001,-9.818621635437012,0.07422025501728058,2.1068975925445557,-13.3819580078125,7.049560546875,-0.518798828125
6.8499999,-9.909601211547852,0.08619125932455063,1.6831238269805908,-5.18798828125,3.8909912109375,-0.9918212890625
6.869999900000001,-9.914389610290527,0.07182604819536209,1.3910311460494995,4.1656494140625,-3.0364990234375,-0.1678466796875
6.8899999,-9.888052940368652,0.028730420395731926,1.2545616626739502,6.8206787109375,-3.0670166015625,-2.2735595703125
6.909999900000001,-9.86889934539795,0.06224924325942993,1.3192051649093628,5.462646484375,-1.2054443359375,-1.007080078125
6.9299999,-9.813833236694336,0.07900865375995636,1.525106430053711,1.7547607421875,-2.3345947265625,-1.007080078125
6.949999900000001,-9.749189376831055,0.12928688526153564,1.8507179021835327,-5.3558349609375,0.42724609375,-4.241943359375
6.9699999,-9.691728591918945,0.19871874153614044,2.2146365642547607,-16.2200927734375,8.392333984375,-2.7008056640625
6.989999900000001,-9.581595420837402,0.27054479718208313,2.518700122833252,-37.1551513671875,19.10400390625,2.7313232421875
7.0099999,-9.435548782348633,0.3687070608139038,2.784456491470337,-57.098388671875,26.3671875,0.762939453125
7.029999900000001,-9.41400146484375,0.4620809257030487,2.8634653091430664,-69.8394775390625,31.9061279296875,2.2735595703125
7.0499999,-9.583989143371582,0.2968810200691223,2.346317768096924,-80.1544189453125,41.107177734375,3.936767578125
7.069999900000001,-9.9000244140625,0,1.5514427423477173,-53.40576171875,23.681640625,4.7454833984375
7.0899999000000005,-10.225635528564453,-0.4596867263317108,0.5219359993934631,-7.7056884765625,-3.326416015625,3.082275390625
7.109999900000001,-10.453084945678711,-0.8906430602073669,-0.3495534360408783,19.5465087890625,-13.671875,-1.6937255859375
7.1299999000000005,-10.390835762023926,-0.9097966551780701,-0.3663128614425659,31.8756103515625,-20.2178955078125,1.9683837890625
7.149999900000001,-10.165780067443848,-0.6943184733390808,0.18914192914962769,0.213623046875,-7.2479248046875,4.5623779296875
7.1699999000000005,-9.93354320526123,-0.21308395266532898,1.0821791887283325,-27.618408203125,9.2926025390625,-0.0152587890625
7.1899999,-9.66299819946289,0.2849099934101105,2.097320795059204,-27.9083251953125,14.1143798828125,-1.9073486328125
7.209999900000001,-9.622296333312988,0.3998316824436188,2.322375535964966,-35.2325439453125,21.8658447265625,-1.2969970703125
7.2299999,-9.660603523254395,0.3998316824436188,2.2840683460235596,-23.590087890625,13.7939453125,1.28173828125
7.249999900000001,-9.710882186889648,0.22266076505184174,1.9129672050476074,-19.6685791015625,5.3253173828125,1.77001953125
7.2699999,-9.821015357971191,-0.10295066982507706,1.3048399686813354,-32.684326171875,12.420654296875,-1.2359619140625
7.289999900000001,-9.840168952941895,-0.21787235140800476,1.1659762859344482,-32.470703125,9.185791015625,6.5155029296875
7.3099999,-9.93354320526123,-0.3878606855869293,0.849941611289978,-52.1697998046875,9.1400146484375,14.984130859375
7.329999900000001,-10.053253173828125,-0.5003881454467773,0.6871358752250671,-57.7850341796875,8.4228515625,14.068603515625
7.3499999,-10.105925559997559,-0.4429273009300232,0.6919242739677429,-38.7725830078125,-3.2196044921875,14.068603515625
7.369999900000001,-10.211270332336426,-0.4118026793003082,0.5027823448181152,-44.952392578125,-0.518798828125,14.7552490234375
7.3899999,-10.20648193359375,-0.2322375625371933,0.6584054827690125,-47.0733642578125,-5.8135986328125,15.1519775390625
7.409999900000001,-10.079588890075684,0.090979665517807,1.015141487121582,-46.6766357421875,-9.4757080078125,13.427734375
7.4299999,-9.926360130310059,0.1843535304069519,1.1635819673538208,-56.1676025390625,4.21142578125,8.9569091796875
7.449999900000001,-9.770736694335938,0.2825157940387726,1.4484920501708984,-46.661376953125,4.4708251953125,9.857177734375
7.4699999,-9.6989107131958,0.2513911724090576,1.5897499322891235,-47.18017578125,1.1444091796875,12.298583984375
7.489999900000001,-9.78989028930664,0.1604115068912506,1.4844050407409668,-55.1910400390625,9.2620849609375,7.2784423828125
7.5099999,-9.765948295593262,0.2944868206977844,1.647210717201233,-44.5709228515625,8.331298828125,2.44140625
7.529999900000001,-9.670180320739746,0.24420857429504395,1.659181833267212,-53.0853271484375,13.9617919921875,4.3792724609375
7.5499999,-8.973467826843262,-0.23702596127986908,1.3024457693099976,-61.2030029296875,20.9197998046875,14.617919921875
7.569999900000001,-8.10437297821045,-0.9457096457481384,0.912190854549408,-14.3890380859375,5.4168701171875,31.524658203125
7.5899999000000005,-7.247248649597168,-1.7190368175506592,0.49799394607543945,40.496826171875,-12.9241943359375,35.919189453125
7.609999900000001,-6.897695064544678,-1.8387469053268433,0.5027823448181152,41.0308837890625,-1.617431640625,39.2303466796875
7.6299999000000005,-7.627926826477051,-1.0582371950149536,1.2042834758758545,-2.25830078125,23.834228515625,43.1976318359375
7.649999900000001,-8.96149730682373,0.42616790533065796,2.0661959648132324,-49.4537353515625,46.6156005859375,41.5496826171875
7.6699999000000005,-10.484209060668945,2.300827741622925,2.829946517944336,-80.0628662109375,50.59814453125,39.7491455078125
7.6899999,-11.78665542602539,3.93367338180542,2.889801502227783,-108.6578369140625,30.0140380859375,40.3900146484375
7.709999900000001,-12.543222427368164,4.975151062011719,2.542642116546631,-120.0714111328125,2.9449462890625,31.3568115234375
7.7299999,-13.055582046508789,4.616020679473877,1.115697979927063,-103.3782958984375,2.0904541015625,2.044677734375
7.749999900000001,-13.069947242736816,3.268085241317749,-0.40462008118629456,-28.6102294921875,-5.279541015625,-23.92578125
7.7699999,-12.60307788848877,1.0031704902648926,-1.9249382019042969,50.506591796875,-31.768798828125,-24.59716796875
7.789999900000001,-11.420342445373535,-1.01753568649292,-2.535459518432617,86.8682861328125,-40.34423828125,-8.3465576171875
7.8099999,-9.928754806518555,-2.0638017654418945,-1.9632453918457031,72.9522705078125,-19.561767578125,4.486083984375
7.829999900000001,-8.585607528686523,-1.8818424940109253,-0.6344634294509888,32.073974609375,20.4315185546875,3.7994384765625
7.8499999,-7.886500358581543,-0.8523358106613159,0.646434485912323,-1.7547607421875,34.9884033203125,-0.5035400390625
7.869999900000001,-7.979874134063721,0.37828385829925537,1.2449848651885986,-9.2926025390625,14.6942138671875,-2.8076171875
7.8899999,-8.597578048706055,1.359906554222107,1.2425906658172607,1.8310546875,-7.476806640625,-9.5367431640625
7.909999900000001,-9.35893440246582,1.824381709098816,0.9385270476341248,4.364013671875,-9.6588134765625,-14.8773193359375
7.9299999,-9.926360130310059,1.7884687185287476,0.7924807667732239,-3.7078857421875,-2.685546875,-11.4898681640625
7.949999900000001,-10.170568466186523,1.381454348564148,0.7637503147125244,-7.720947265625,1.40380859375,-2.3040771484375
7.9699999,-10.177751541137695,0.7829039692878723,0.871489405632019,-4.1046142578125,5.7373046875,2.6397705078125
7.989999900000001,-10.055646896362305,0.2346317619085312,0.9385270476341248,-3.96728515625,22.8729248046875,1.0223388671875
8.0099999,-9.883264541625977,-0.1149216815829277,0.9002198576927185,-10.68115234375,42.938232421875,-2.4566650390625
8.0299999,-9.732429504394531,-0.15562310814857483,0.6967126727104187,-12.51220703125,50.72021484375,-6.3934326171875
8.049999900000001,-9.837775230407715,0.12210428714752197,0.3447650372982025,-8.1329345703125,40.4815673828125,-11.627197265625
8.069999900000001,-9.971850395202637,0.4620809257030487,-0.0694318488240242,-0.8697509765625,17.7001953125,-16.41845703125
8.0899999,-10.220847129821777,0.8331822156906128,-0.29209262132644653,5.218505859375,0.7781982421875,-13.1072998046875
8.1099999,-10.304644584655762,1.0606313943862915,-0.24899697303771973,6.2255859375,-3.7078857421875,-6.011962890625
8.129999900000001,-10.251971244812012,1.1851298809051514,0.08140286058187485,4.1961669921875,-4.669189453125,-2.74658203125
8.149999900000001,-10.177751541137695,1.3239935636520386,0.4884171485900879,-3.143310546875,1.6326904296875,-7.38525390625
8.1699999,-10.089165687561035,1.381454348564148,0.7805097699165344,-8.087158203125,8.1024169921875,-16.1285400390625
8.1899999,-10.153809547424316,1.3215993642807007,0.8523358106613159,-4.1656494140625,4.364013671875,-17.4102783203125
8.2099999,-10.189722061157227,1.1252747774124146,0.7613561153411865,3.1890869140625,-2.8533935546875,-14.739990234375
8.229999900000001,-10.20887565612793,0.7709329724311829,0.5913678407669067,2.7618408203125,-2.8839111328125,-13.275146484375
8.2499999,-10.177751541137695,0.3926490843296051,0.45489832758903503,-1.7547607421875,2.9296875,-11.23046875
8.2699999,-10.08437728881836,0.05267243832349777,0.363918662071228,-1.5106201171875,6.3018798828125,-6.500244140625
8.2899999,-9.959878921508789,-0.1412578970193863,0.3423708379268646,2.7313232421875,3.6773681640625,-0.8544921875
8.309999900000001,-9.8784761428833,-0.17238251864910126,0.26575639843940735,3.5552978515625,4.0740966796875,0.6256103515625
8.3299999,-9.883264541625977,-0.031124621629714966,0.023942016065120697,-58.1512451171875,13.36669921875,-7.75146484375
8.3499999,-9.852140426635742,0.11252748221158981,-0.06703764945268631,-15.5181884765625,1.9683837890625,-13.97705078125
8.3699999,-9.837775230407715,0.1628057211637497,-0.19393034279346466,22.216796875,-3.5400390625,-8.4991455078125
8.389999900000001,-9.797073364257812,0.05027823522686958,-0.1388636976480484,19.989013671875,0.6561279296875,-0.8087158203125
8.4099999,-9.78989028930664,-0.10534487664699554,-0.05985504388809204,22.4151611328125,2.9449462890625,4.791259765625
8.4299999,-9.876082420349121,-0.11013327538967133,0.004788403399288654,21.2249755859375,-1.6937255859375,5.828857421875
8.4499999,-10.055646896362305,0.05746084079146385,0.016759412363171577,14.0228271484375,-6.6375732421875,1.28173828125
8.469999900000001,-10.223240852355957,0.28969839215278625,0.040701430290937424,6.6070556640625,-4.6539306640625,-4.21142578125
8.4899999,-10.342951774597168,0.4812345504760742,0.2106897532939911,1.0833740234375,-1.52587890625,-0.274658203125
8.5099999,-10.292673110961914,0.38307225704193115,0.24420857429504395,1.2054443359375,-3.7078857421875,2.50244140625
8.5299999,-10.230423927307129,0.27054479718208313,0.2082955539226532,1.46484375,-5.2032470703125,2.7618408203125
8.549999900000001,-10.182539939880371,0.24660277366638184,0.07422025501728058,3.72314453125,-8.575439453125,0.79345703125
8.569999900000001,-10.144232749938965,0.26815059781074524,0.038307227194309235,4.7454833984375,-14.6331787109375,-2.1209716796875
8.5899999,-10.137049674987793,0.3232172429561615,0.040701430290937424,2.838134765625,-15.3045654296875,-2.6397705078125
8.6099999,-10.093954086303711,0.35673606395721436,0.19393034279346466,4.1656494140625,-11.8560791015625,-2.01416015625
8.629999900000001,-10.074800491333008,0.3878606855869293,0.3878606855869293,6.4544677734375,-8.7738037109375,-3.204345703125
8.649999900000001,-9.95748519897461,0.3663128614425659,0.6224924325942993,7.568359375,-7.0648193359375,-7.354736328125
8.6699999,-9.861717224121094,0.31364041566848755,0.7876923680305481,2.716064453125,-1.4190673828125,-8.4228515625
8.6899999,-9.715670585632324,0.19632454216480255,0.9528923034667969,2.4261474609375,4.1656494140625,-5.035400390625
8.709999900000001,-9.579200744628906,-0.014365210197865963,0.9864110946655273,2.2430419921875,10.1776123046875,-0.5035400390625
8.729999900000001,-9.557653427124023,-0.1843535304069519,0.9696516990661621,4.2572021484375,11.7645263671875,5.37109375
8.7499999,-9.600749015808105,-0.2801215946674347,0.8068459630012512,5.828857421875,10.55908203125,8.697509765625
8.7699999,-9.804255485534668,-0.3447650372982025,0.4213795065879822,5.31005859375,9.7808837890625,7.904052734375
8.7899999,-10.158597946166992,-0.4141969084739685,-0.2082955539226532,24.0631103515625,-2.3956298828125,5.645751953125
8.809999900000001,-10.551246643066406,-0.49320554733276367,-0.8762778043746948,66.619873046875,-32.40966796875,1.6632080078125
8.8299999,-10.90798282623291,-0.5267243981361389,-1.3982137441635132,94.451904296875,-49.0264892578125,-5.4779052734375
8.8499999,-11.042057991027832,-0.4118026793003082,-1.4748282432556152,106.62841796875,-44.9066162109375,-17.852783203125
8.8699999,-11.037269592285156,-0.1364694982767105,-1.036689281463623,108.917236328125,-32.3333740234375,-31.5399169921875
8.889999900000001,-10.742782592773438,0.17956513166427612,-0.2944868206977844,109.3902587890625,-30.33447265625,-37.200927734375
8.9099999,-10.309432983398438,0.5003881454467773,0.6823474764823914,97.259521484375,-31.1126708984375,-27.6947021484375
8.9299999,-9.861717224121094,0.6248866319656372,1.3838485479354858,71.319580078125,-19.7601318359375,-13.5955810546875
8.9499999,-9.32302188873291,0.8427590131759644,2.0925323963165283,57.952880859375,-15.625,-6.439208984375
8.969999900000001,-9.095572471618652,0.8882488012313843,2.4444799423217773,35.7818603515625,-11.199951171875,5.828857421875
8.9899999,-9.033323287963867,0.9864110946655273,2.5115175247192383,15.7623291015625,0.0762939453125,2.1514892578125
9.0099999,-9.14585018157959,1.015141487121582,2.542642116546631,5.3253173828125,4.180908203125,-2.8228759765625
9.0299999,-9.378087997436523,0.8667010068893433,2.2840683460235596,-8.23974609375,13.2904052734375,-2.227783203125
9.049999900000001,-9.607931137084961,0.6751648783683777,2.097320795059204,-18.2952880859375,20.965576171875,0.4730224609375
9.069999900000001,-9.873687744140625,0.3447650372982025,1.7405846118927002,-22.2015380859375,24.688720703125,2.288818359375
9.0899999,-10.08198356628418,0.016759412363171577,1.3215993642807007,-15.533447265625,21.1029052734375,1.2359619140625
9.1099999,-10.292673110961914,-0.26096799969673157,0.8547300100326538,1.6326904296875,12.4969482421875,2.3193359375
9.129999900000001,-10.326191902160645,-0.40222588181495667,0.4692635238170624,18.9666748046875,3.265380859375,0.8697509765625
9.149999900000001,-10.33098030090332,-0.42616790533065796,0.16519992053508759,31.3873291015625,2.899169921875,-0.8087158203125
9.1699999,-10.32858657836914,-0.2585737705230713,0.15562310814857483,37.933349609375,5.126953125,-3.0670166015625
9.1899999,-10.362105369567871,-0.038307227194309235,0.18914192914962769,40.679931640625,-3.2958984375,-8.3770751953125
9.209999900000001,-10.44350814819336,0.21308395266532898,0.4141969084739685,43.0755615234375,-4.69970703125,-10.0250244140625
9.229999900000001,-10.54645824432373,0.4357447028160095,0.6153098344802856,41.7633056640625,-6.7596435546875,-14.0380859375
9.2499999,-10.663774490356445,0.5195417404174805,0.8355764150619507,38.238525390625,-5.157470703125,-15.0146484375
9.2699999,-10.718840599060059,0.586579442024231,1.0007762908935547,33.8897705078125,-4.9591064453125,-18.463134765625
9.2899999,-10.678139686584473,0.5171475410461426,1.0965443849563599,29.6478271484375,-4.6844482421875,-18.9361572265625
9.309999900000001,-10.517727851867676,0.4118026793003082,1.115697979927063,25.8026123046875,-2.685546875,-16.357421875
9.3299999,-10.220847129821777,0.16998831927776337,1.048660397529602,23.773193359375,-4.6844482421875,-16.632080078125
9.3499999,-9.80904483795166,-0.15322890877723694,0.9911994934082031,27.3284912109375,-9.6588134765625,-17.578125
9.3699999,-9.425971984863281,-0.4596867263317108,0.9864110946655273,31.219482421875,-10.2996826171875,-7.8887939453125
9.389999900000001,-9.004592895507812,-0.7086837291717529,1.0654197931289673,24.8870849609375,-1.8768310546875,-3.8909912109375
9.4099999,-8.841787338256836,-0.8092401623725891,1.2449848651885986,14.16015625,11.383056640625,0.79345703125
9.4299999,-8.719682693481445,-0.6272808313369751,1.5610195398330688,2.4261474609375,12.237548828125,0.579833984375
9.4499999,-8.911218643188477,-0.45489832758903503,1.778891921043396,-20.050048828125,18.4478759765625,3.936767578125
9.469999900000001,-9.162610054016113,-0.21787235140800476,1.886630892753601,-42.5262451171875,29.052734375,2.9144287109375
9.4899999,-9.481039047241211,-0.13168109953403473,1.6615760326385498,-37.750244140625,28.0303955078125,5.0811767578125
9.5099999,-9.816226959228516,-0.19153612852096558,1.1180921792984009,-18.2647705078125,19.83642578125,4.39453125
9.5299999,-10.091560363769531,-0.33518823981285095,0.3998316824436188,3.570556640625,7.9193115234375,3.3721923828125
9.549999900000001,-10.247182846069336,-0.5099649429321289,-0.24660277366638184,18.4783935546875,-3.7994384765625,2.99072265625
9.569999900000001,-10.280701637268066,-0.5985504388809204,-0.5961562395095825,23.37646484375,-10.7421875,4.6844482421875
9.5899999,-10.192116737365723,-0.5937620401382446,-0.5770025849342346,22.1099853515625,-11.688232421875,6.8817138671875
9.6099999,-10.043676376342773,-0.47884035110473633,-0.2346317619085312,16.9525146484375,-10.1165771484375,6.927490234375
9.629999900000001,-9.947908401489258,-0.27054479718208313,0.28730419278144836,11.7645263671875,-7.7056884765625,6.011962890625
9.649999900000001,-9.90241813659668,-0.028730420395731926,0.8020575642585754,7.9498291015625,-4.1961669921875,4.6234130859375
9.6699999,-9.914389610290527,0.19632454216480255,1.1875240802764893,4.8370361328125,-1.15966796875,2.7313232421875
9.6899999,-9.90241813659668,0.35673606395721436,1.3623007535934448,2.227783203125,0.5950927734375,0.5035400390625
9.709999900000001,-9.84495735168457,0.4357447028160095,1.338358759880066,0.091552734375,1.373291015625,-1.617431640625
9.729999900000001,-9.75397777557373,0.4141969084739685,1.1899182796478271,-1.40380859375,1.5411376953125,-3.173828125
9.7499999,-9.655815124511719,0.3064578175544739,0.9840168952941895,-1.220703125,0.79345703125,-4.2724609375
9.7699999,-9.569623947143555,0.10055647045373917,0.7996633648872375,1.2359619140625,-0.06103515625,-3.90625
9.7899999,-9.493009567260742,-0.12449848651885986,0.7015010714530945,4.4403076171875,-0.152587890625,-1.556396484375
9.809999900000001,-9.464279174804688,-0.33518823981285095,0.6775590777397156,5.767822265625,0.6256103515625,2.5177001953125
9.8299999,-9.500192642211914,-0.4405331015586853,0.7565677165985107,4.5318603515625,1.861572265625,4.180908203125
9.8499999,-9.583989143371582,-0.40701428055763245,0.8236053586006165,2.3345947265625,3.662109375,2.7923583984375
9.8699999,-9.758766174316406,-0.24181437492370605,0.8667010068893433,0.8544921875,3.9215087890625,1.220703125
9.889999900000001,-9.93593692779541,-0.031124621629714966,0.8331822156906128,-1.0986328125,2.44140625,-0.7171630859375
9.9099999,-10.127472877502441,0.14604631066322327,0.7469909191131592,-1.46484375,0.5340576171875,-2.3345947265625
9.9299999,-10.307038307189941,0.2561795711517334,0.7038952708244324,0.030517578125,-1.2969970703125,-4.150390625
9.9499999,-10.424354553222656,0.26096799969673157,0.7086837291717529,1.28173828125,-1.7547607421875,-5.3863525390625
9.969999900000001,-10.462661743164062,0.21787235140800476,0.7781155705451965,2.716064453125,-0.6103515625,-6.3323974609375
9.9899999,-10.366893768310547,0.1173158809542656,0.8786720037460327,4.8675537109375,0.9307861328125,-7.598876953125
10.0099999,-10.189722061157227,-0.031124621629714966,0.9313444495201111,6.317138671875,2.0294189453125,-7.537841796875
10.0299999,-10.019734382629395,-0.1867477297782898,0.933738648891449,7.4920654296875,1.8463134765625,-5.035400390625
10.049999900000001,-9.847352027893066,-0.33997663855552673,0.8690952062606812,8.9569091796875,0.3662109375,-2.0751953125
10.069999900000001,-9.75397777557373,-0.42377370595932007,0.8236053586006165,9.4757080078125,-0.5035400390625,-0.3509521484375
10.0899999,-9.679757118225098,-0.45489832758903503,0.7254431247711182,8.0108642578125,1.0528564453125,-0.54931640625
10.1099999,-9.658209800720215,-0.47405192255973816,0.6129156351089478,13.9617919921875,0.1678466796875,-1.5411376953125
10.129999900000001,-9.72285270690918,-0.45010992884635925,0.4692635238170624,26.9012451171875,-7.14111328125,-1.77001953125
10.149999900000001,-9.885659217834473,-0.395043283700943,0.3495534360408783,31.6009521484375,-12.6495361328125,-2.044677734375
10.1699999,-10.065223693847656,-0.31364041566848755,0.3256114423274994,31.524658203125,-14.739990234375,-3.3111572265625
10.1899999,-10.204087257385254,-0.12449848651885986,0.4836287498474121,27.52685546875,-13.885498046875,-3.84521484375
10.209999900000001,-10.398017883300781,0.014365210197865963,0.7589619159698486,19.8974609375,-10.986328125,-4.241943359375
10.229999900000001,-10.524910926818848,0.17238251864910126,1.0989385843276978,11.6729736328125,-6.927490234375,-9.4146728515625
10.2499999,-10.778696060180664,0.26575639843940735,1.3527239561080933,5.3863525390625,-0.5340576171875,-11.3067626953125
10.2699999,-10.943896293640137,0.3280056416988373,1.50355863571167,-0.0457763671875,-3.5552978515625,-9.4757080078125
10.2899999,-10.886435508728027,0.30885201692581177,1.4963760375976562,-4.974365234375,-3.662109375,-8.1329345703125
10.309999900000001,-10.623072624206543,0.2106897532939911,1.3623007535934448,-7.4462890625,8.4075927734375,-8.209228515625
10.3299999,-10.228029251098633,0.05267243832349777,1.1180921792984009,-7.38525390625,23.0712890625,-7.598876953125
10.3499999,-9.813833236694336,-0.1364694982767105,0.8690952062606812,-5.4473876953125,25.0244140625,-6.805419921875
10.3699999,-9.50498104095459,-0.304063618183136,0.6871358752250671,-3.7994384765625,19.04296875,-5.2490234375
10.389999900000001,-9.370905876159668,-0.4596867263317108,0.5602431893348694,-7.6446533203125,20.660400390625,-3.8604736328125
10.4099999,-9.421183586120605,-0.5793967843055725,0.5961562395095825,-6.7596435546875,16.082763671875,-4.3182373046875
10.4299999,-9.533711433410645,-0.7350199222564697,0.629675030708313,-3.47900390625,-12.9852294921875,-2.0294189453125
10.4499999,-9.610325813293457,-0.8954314589500427,0.7565677165985107,-4.0740966796875,-42.3431396484375,7.5836181640625
10.469999900000001,-9.607931137084961,-1.0271124839782715,0.8930372595787048,-4.180908203125,-31.0211181640625,15.56396484375
10.4899999,-9.476250648498535,-1.094150185585022,1.0797849893569946,-3.4027099609375,-3.8909912109375,13.4124755859375
10.5099999,-9.433155059814453,-1.0654197931289673,1.2401964664459229,-4.6539306640625,13.3209228515625,5.9967041015625
10.5299999,-9.53849983215332,-0.9313444495201111,1.3407529592514038,-6.8817138671875,7.5836181640625,-2.044677734375
10.549999900000001,-9.708487510681152,-0.7733271718025208,1.3551181554794312,-8.30078125,-11.3067626953125,-8.8958740234375
10.569999900000001,-9.837775230407715,-0.6248866319656372,1.314416766166687,-8.8348388671875,-23.8800048828125,-9.552001953125
10.5899999,-9.770736694335938,-0.4692635238170624,1.3766659498214722,-8.85009765625,-27.9693603515625,-3.11279296875
10.6099999,-9.567230224609375,-0.4213795065879822,1.290474772453308,-8.758544921875,-4.2266845703125,2.4566650390625
10.629999900000001,-9.442731857299805,-0.38546648621559143,1.2210428714752197,-3.4027099609375,28.4271240234375,-4.119873046875
10.649999900000001,-9.440337181091309,-0.395043283700943,1.0630255937576294,2.2125244140625,25.9552001953125,-18.1732177734375
10.6699999,-9.564835548400879,-0.44532153010368347,0.8451532125473022,3.7994384765625,0.48828125,-24.84130859375
10.6899999,-9.710882186889648,-0.4620809257030487,0.7374141216278076,4.94384765625,-11.9171142578125,-20.1416015625
10.709999900000001,-9.706093788146973,-0.4884171485900879,0.7326257228851318,5.2032470703125,-5.9051513671875,-13.8702392578125
10.729999900000001,-9.583989143371582,-0.5219359993934631,0.7972691655158997,4.2724609375,2.6702880859375,-8.97216796875
10.7499999,-9.473855972290039,-0.545877993106842,0.9169792532920837,3.0059814453125,5.1422119140625,-0.9765625
10.7699999,-9.47146224975586,-0.5722141861915588,1.0558429956436157,0.030517578125,5.5389404296875,2.349853515625
10.7899999,-9.607931137084961,-0.6105214357376099,1.216254472732544,-5.4168701171875,6.195068359375,-3.326416015625
10.809999900000001,-9.785101890563965,-0.6512228846549988,1.3742717504501343,-11.8408203125,4.608154296875,-10.2386474609375
10.8299999,-9.907206535339355,-0.7038952708244324,1.5107412338256836,-19.5465087890625,6.7596435546875,-9.429931640625
10.8499999,-9.931148529052734,-0.751779317855835,1.5610195398330688,-25.970458984375,20.5230712890625,-4.119873046875
10.8699999,-9.890447616577148,-0.7852981686592102,1.4939818382263184,-28.3966064453125,32.0892333984375,-3.1585693359375
10.889999900000001,-9.861717224121094,-0.8451532125473022,1.3072341680526733,-26.8402099609375,25.2838134765625,-4.2266845703125
10.9099999,-9.880870819091797,-0.8954314589500427,1.039083480834961,-24.7344970703125,6.103515625,-3.2958984375
10.9299999,-9.90241813659668,-0.9840168952941895,0.7422025203704834,-21.0418701171875,-5.0201416015625,-3.387451171875
10.9499999,-9.888052940368652,-1.0558429956436157,0.47165772318840027,-14.5111083984375,-5.4473876953125,-3.3111572265625
10.969999900000001,-9.816226959228516,-1.1013327836990356,0.26336219906806946,-6.439208984375,-3.2958984375,0.0457763671875
10.9899999,-9.765948295593262,-1.0893617868423462,0.12928688526153564,0.030517578125,-1.1749267578125,6.5460205078125
11.0099999,-9.749189376831055,-1.0199298858642578,0.06224924325942993,4.669189453125,-2.8228759765625,10.6201171875
11.0299999,-9.746794700622559,-0.8978256583213806,0.08379705995321274,9.6588134765625,-9.6435546875,11.749267578125
11.049999900000001,-9.773131370544434,-0.7182605266571045,0.181959331035614,13.885498046875,-7.6904296875,13.916015625
11.069999900000001,-9.782708168029785,-0.5099649429321289,0.31124621629714966,16.143798828125,0.06103515625,14.7857666015625
11.0899999,-9.763554573059082,-0.304063618183136,0.4668693244457245,17.4713134765625,-3.2958984375,14.58740234375
11.1099999,-9.99100399017334,-0.08619125932455063,0.6607996821403503,16.5252685546875,-9.82666015625,14.8468017578125
11.129999900000001,-10.398017883300781,0.10055647045373917,0.8475474119186401,11.260986328125,-10.6658935546875,5.645751953125
11.149999900000001,-10.78348445892334,0.2322375625371933,1.0103530883789062,5.279541015625,-11.8255615234375,-6.4544677734375
11.1699999,-11.202469825744629,0.2944868206977844,1.1324573755264282,1.556396484375,-10.1318359375,0.2899169921875
11.1899999,-11.168951034545898,0.26336219906806946,1.158793568611145,-1.068115234375,-10.406494140625,1.3885498046875
11.209999900000001,-10.802638053894043,0.15562310814857483,1.1540051698684692,-3.0517578125,-8.3465576171875,1.15966796875
11.229999900000001,-10.362105369567871,-0.07422025501728058,1.1659762859344482,-4.5013427734375,-6.5155029296875,4.6539306640625
11.2499999,-9.780313491821289,-0.4213795065879822,1.1683704853057861,-4.8675537109375,-7.8582763671875,1.1444091796875
11.2699999,-9.550470352172852,-0.8523358106613159,1.292868971824646,-4.1046142578125,-4.6844482421875,0.8697509765625
11.2899999,-9.342175483703613,-1.0893617868423462,1.4389152526855469,-7.598876953125,-5.523681640625,6.34765625
11.309999900000001,-9.500192642211914,-1.3048399686813354,1.5897499322891235,-12.20703125,3.021240234375,17.1051025390625
11.3299999,-9.627084732055664,-1.2401964664459229,1.5849615335464478,-12.6495361328125,5.5389404296875,19.012451171875
11.3499999,-9.804255485534668,-1.0319008827209473,1.501164436340332,-9.9945068359375,2.0904541015625,22.7813720703125
11.3699999,-9.983820915222168,-0.7493851184844971,1.3287819623947144,-11.2457275390625,1.373291015625,23.895263671875
11.389999900000001,-10.062829971313477,-0.43335050344467163,1.0558429956436157,-13.092041015625,1.77001953125,20.1263427734375
11.4099999,-10.156203269958496,-0.19871874153614044,0.7206547260284424,-6.3323974609375,-5.18798828125,17.333984375
11.4299999,-10.228029251098633,0.011971008032560349,0.4213795065879822,3.4027099609375,-16.357421875,17.63916015625
11.4499999,-10.237606048583984,0.2585737705230713,0.24899697303771973,3.84521484375,-21.8505859375,16.204833984375
11.469999900000001,-10.182539939880371,0.5339069962501526,0.24181437492370605,-2.8533935546875,-21.5301513671875,8.880615234375
11.4899999,-10.093954086303711,0.8307880163192749,0.5147533416748047,-2.5177001953125,-23.468017578125,-0.091552734375
11.5099999,-9.995792388916016,1.0414776802062988,0.933738648891449,-1.28173828125,-25.1312255859375,-4.5166015625
11.5299999,-9.86889934539795,1.0438719987869263,1.4652514457702637,-10.8642578125,-18.5699462890625,-6.0882568359375
11.549999900000001,-9.830592155456543,0.8212111592292786,1.8962076902389526,-21.3623046875,-9.9945068359375,-7.62939453125
11.569999900000001,-9.658209800720215,0.4692635238170624,2.3942017555236816,-19.83642578125,-5.4779052734375,-5.6915283203125
11.5899999,-9.653421401977539,0.033518824726343155,2.4636335372924805,-15.2435302734375,-3.5552978515625,-1.2359619140625
11.6099999,-9.543288230895996,-0.40222588181495667,2.4803929328918457,-14.16015625,-0.335693359375,-0.3814697265625
11.629999900000001,-9.62947940826416,-0.6153098344802856,2.1092917919158936,-0.91552734375,2.74658203125,0.1983642578125
11.649999900000001,-9.758766174316406,-0.6655880808830261,1.7190368175506592,20.3094482421875,-5.706787109375,0.5950927734375
11.6699999,-9.890447616577148,-0.5195417404174805,1.3024457693099976,33.87451171875,-16.571044921875,-3.35693359375
11.6899999,-9.986215591430664,-0.1604115068912506,1.1659762859344482,30.6854248046875,-16.876220703125,-4.2724609375
11.709999900000001,-9.938331604003906,0.09576806426048279,1.2449848651885986,18.0206298828125,-13.153076171875,-7.6446533203125
11.729999900000001,-9.823410034179688,0.3232172429561615,1.601720929145813,7.3089599609375,-4.608154296875,-9.613037109375
11.7499999,-9.68694019317627,0.395043283700943,2.0470423698425293,0.335693359375,1.4801025390625,-3.9825439453125
11.7699999,-9.610325813293457,0.29209262132644653,2.387019157409668,-8.575439453125,3.4942626953125,-1.46484375
11.7899999,-9.624691009521484,0.12449848651885986,2.5905263423919678,-11.9171142578125,8.331298828125,-2.3193359375
11.809999900000001,-9.68933391571045,-0.14844051003456116,2.537853717803955,-4.8675537109375,8.5601806640625,-2.227783203125
11.8299999,-9.725247383117676,-0.3256114423274994,2.3247697353363037,-1.15966796875,8.697509765625,-0.091552734375
11.8499999,-9.801861763000488,-0.40462008118629456,1.9393033981323242,-1.556396484375,10.009765625,4.2877197265625
11.8699999,-9.847352027893066,-0.3280056416988373,1.6136919260025024,-1.0833740234375,3.692626953125,1.5869140625
11.889999900000001,-9.93354320526123,-0.12928688526153564,1.37906014919281,0.579833984375,-0.732421875,-2.960205078125
11.9099999,-9.995792388916016,0.016759412363171577,1.2617442607879639,1.678466796875,-3.47900390625,-2.838134765625
11.9299999,-9.945513725280762,0.12449848651885986,1.3503297567367554,-1.7852783203125,-1.556396484375,-5.2032470703125
11.9499999,-9.923966407775879,0.06464344263076782,1.4508862495422363,-5.4473876953125,4.302978515625,-2.9144287109375
11.969999900000001,-9.804255485534668,-0.014365210197865963,1.5897499322891235,-5.035400390625,0.54931640625,0.213623046875
11.9899999,-9.775525093078613,-0.12689268589019775,1.766920804977417,-4.8828125,-2.38037109375,1.3275146484375
12.0099999,-9.81143856048584,-0.27054479718208313,1.8052281141281128,-5.4931640625,-0.4119873046875,2.13623046875
12.0299999,-9.768342971801758,-0.26815059781074524,1.9608511924743652,-3.96728515625,2.0294189453125,-2.685546875
12.049999900000001,-9.765948295593262,-0.1412578970193863,2.099714994430542,-2.25830078125,9.521484375,-1.5869140625
12.069999900000001,-9.737217903137207,0.07661445438861847,2.2146365642547607,-8.880615234375,11.53564453125,0.762939453125
12.0899999,-9.68933391571045,0.24660277366638184,2.2218191623687744,-18.3868408203125,13.336181640625,-5.157470703125
12.1099999,-9.775525093078613,0.1843535304069519,2.054224967956543,-18.6767578125,13.3056640625,-6.04248046875
12.129999900000001,-9.758766174316406,-0.023942016065120697,1.778891921043396,-12.4053955078125,8.4381103515625,-5.92041015625
12.149999900000001,-9.828198432922363,-0.3758896589279175,1.3503297567367554,-4.2266845703125,9.4757080078125,-0.152587890625
12.1699999,-9.945513725280762,-0.6775590777397156,0.9983820915222168,9.368896484375,1.1749267578125,5.889892578125
12.1899999,-10.012551307678223,-0.7541735172271729,0.7110779285430908,22.0947265625,-9.58251953125,1.7547607421875
12.209999900000001,-10.15141487121582,-0.5793967843055725,0.730231523513794,22.9644775390625,-11.932373046875,0.42724609375
12.229999900000001,-10.070012092590332,-0.2801215946674347,0.9792284965515137,10.894775390625,-10.1470947265625,-3.814697265625
12.2499999,-9.919178009033203,0.13407529890537262,1.4844050407409668,-5.31005859375,2.0599365234375,-6.53076171875
12.2699999,-9.605537414550781,0.3519476354122162,2.410961151123047,-26.824951171875,11.04736328125,-1.2359619140625
12.289999900000002,-9.641449928283691,0.12210428714752197,2.4444799423217773,-25.7568359375,14.5263671875,0.0762939453125
12.309999900000001,-9.715670585632324,-0.2322375625371933,2.2816741466522217,-15.2130126953125,10.040283203125,0.823974609375
12.3299999,-9.761159896850586,-0.5506663918495178,1.800439715385437,-3.326416015625,9.94873046875,0.335693359375
12.3499999,-9.888052940368652,-0.6775590777397156,1.357512354850769,3.082275390625,6.3934326171875,7.0037841796875
12.3699999,-9.926360130310059,-0.6607996821403503,0.9696516990661621,3.2806396484375,-1.4495849609375,4.638671875
12.389999900000001,-10.036493301391602,-0.47405192255973816,0.7852981686592102,5.0506591796875,-4.45556640625,0.1983642578125
12.4099999,-10.08198356628418,-0.2992752194404602,0.7757213711738586,6.683349609375,-8.2244873046875,-0.3814697265625
12.4299999,-10.022128105163574,-0.10773907601833344,0.9696516990661621,1.4495849609375,-5.0506591796875,-2.13623046875
12.4499999,-9.945513725280762,0.002394201699644327,1.2090718746185303,-5.8135986328125,-0.9307861328125,1.2664794921875
12.469999900000001,-9.818621635437012,0.028730420395731926,1.522712230682373,-8.4381103515625,-1.800537109375,1.64794921875
12.4899999,-9.75397777557373,0.009576806798577309,1.7693150043487549,-8.5601806640625,0.8087158203125,-0.1373291015625
12.5099999,-9.72285270690918,-0.06703764945268631,1.9847931861877441,-10.0555419921875,4.425048828125,2.62451171875
12.5299999,-9.6989107131958,-0.13168109953403473,1.9991583824157715,-10.589599609375,6.89697265625,-0.762939453125
12.549999900000001,-9.75637149810791,-0.19632454216480255,1.9129672050476074,-5.9356689453125,8.5296630859375,-0.7171630859375
12.569999900000001,-9.84495735168457,-0.22266076505184174,1.625662922859192,0.0457763671875,2.6702880859375,2.5634765625
12.5899999,-9.892841339111328,-0.1867477297782898,1.3024457693099976,2.5787353515625,-1.77001953125,-1.6937255859375
12.6099999,-10.031704902648926,-0.17717093229293823,1.0342950820922852,6.9427490234375,-3.692626953125,-2.960205078125
12.629999900000001,-10.005369186401367,-0.1867477297782898,0.9026140570640564,14.3585205078125,-9.0789794921875,-5.615234375
12.649999900000001,-9.96945571899414,-0.17238251864910126,1.01753568649292,14.2974853515625,-7.4310302734375,-5.18798828125
12.6699999,-9.923966407775879,-0.20111294090747833,1.2832920551300049,4.638671875,-3.2958984375,1.2969970703125
12.6899999,-9.813833236694336,-0.21547815203666687,1.6352397203445435,-5.9051513671875,0.1678466796875,-0.3662109375
12.709999900000001,-9.782708168029785,-0.22266076505184174,1.9033904075622559,-11.260986328125,5.0811767578125,-0.6561279296875
12.729999900000001,-9.737217903137207,-0.19632454216480255,2.056619167327881,-13.85498046875,4.8980712890625,3.0975341796875
12.7499999,-9.720458984375,-0.2298433631658554,1.9129672050476074,-13.336181640625,5.645751953125,2.25830078125
12.7699999,-9.847352027893066,-0.26096799969673157,1.6639702320098877,-6.1492919921875,1.77001953125,4.0740966796875
12.789999900000002,-9.914389610290527,-0.3256114423274994,1.3239935636520386,2.8533935546875,-5.8441162109375,1.434326171875
12.809999900000001,-10.002974510192871,-0.33518823981285095,1.0414776802062988,7.9498291015625,-7.8582763671875,0.640869140625
12.8299999,-10.02691650390625,-0.33997663855552673,0.993593692779541,9.4757080078125,-11.383056640625,4.0740966796875
12.8499999,-9.909601211547852,-0.2825157940387726,1.1037269830703735,6.622314453125,-8.11767578125,0.030517578125
12.8699999,-9.873687744140625,-0.1628057211637497,1.434126853942871,1.64794921875,-3.2958984375,1.7852783203125
12.889999900000001,-9.806650161743164,-0.031124621629714966,1.7549498081207275,-4.0130615234375,-2.9449462890625,3.3111572265625
12.9099999,-9.801861763000488,0.07661445438861847,2.0039467811584473,-9.21630859375,1.1138916015625,-0.6866455078125
12.9299999,-9.813833236694336,0.10055647045373917,2.094926595687866,-12.4664306640625,3.7078857421875,0.152587890625
12.9499999,-9.746794700622559,0.07900865375995636,2.027888774871826,-11.23046875,4.21142578125,-1.190185546875
12.969999900000001,-9.734824180603027,-0.038307227194309235,1.8267759084701538,-4.547119140625,3.662109375,-0.1373291015625
12.9899999,-9.81143856048584,-0.17477671802043915,1.6160861253738403,2.899169921875,-1.800537109375,2.8076171875
13.0099999,-9.825803756713867,-0.2561795711517334,1.3934253454208374,5.5999755859375,-3.2806396484375,-1.617431640625
13.0299999,-9.919178009033203,-0.2825157940387726,1.3215993642807007,6.866455078125,-2.716064453125,0.244140625
13.049999900000001,-9.907206535339355,-0.26096799969673157,1.3455413579940796,5.5999755859375,-4.8065185546875,0.5950927734375
13.069999900000001,-9.825803756713867,-0.16998831927776337,1.4867992401123047,1.3885498046875,-1.678466796875,-1.5106201171875
13.0899999,-9.818621635437012,-0.09576806426048279,1.6639702320098877,-3.1585693359375,-0.2593994140625,1.6632080078125
13.1099999,-9.734824180603027,-0.035913024097681046,1.7764976024627686,-7.4462890625,0.5645751953125,-1.678466796875
13.129999900000001,-9.804255485534668,-0.016759412363171577,1.824381709098816,-7.049560546875,3.4027099609375,-0.5645751953125
13.149999900000001,-9.813833236694336,-0.0454898327589035,1.7956513166427612,-2.4871826171875,-0.9765625,0.42724609375
13.1699999,-9.797073364257812,-0.12449848651885986,1.6927006244659424,1.861572265625,-0.885009765625,-3.41796875
13.1899999,-9.892841339111328,-0.2346317619085312,1.6352397203445435,3.9825439453125,-1.4495849609375,1.5411376953125
13.209999900000001,-9.821015357971191,-0.2585737705230713,1.5682021379470825,3.2806396484375,-2.8533935546875,1.46484375
13.229999900000001,-9.847352027893066,-0.19153612852096558,1.6136919260025024,1.64794921875,0.2593994140625,-0.762939453125
13.2499999,-9.859322547912598,-0.1173158809542656,1.6855180263519287,-1.2969970703125,-2.227783203125,-0.06103515625
13.2699999,-9.78989028930664,-0.028730420395731926,1.7501614093780518,-5.767822265625,0.1983642578125,-3.0059814453125
13.289999900000002,-9.80904483795166,0.011971008032560349,1.8602946996688843,-6.8511962890625,2.7313232421875,0.42724609375
13.309999900000001,-9.794678688049316,-0.07661445438861847,1.8626888990402222,-5.7220458984375,0.6103515625,1.1138916015625
13.3299999,-9.830592155456543,-0.19153612852096558,1.8411411046981812,-4.7760009765625,2.1514892578125,-1.2969970703125
13.3499999,-9.890447616577148,-0.26815059781074524,1.7884687185287476,-2.6397705078125,0.91552734375,4.4097900390625
13.3699999,-9.840168952941895,-0.33997663855552673,1.680729627609253,0.335693359375,-0.1220703125,2.2430419921875
13.389999900000001,-9.8784761428833,-0.28730419278144836,1.6376339197158813,3.47900390625,0,0.8087158203125
13.4099999,-9.892841339111328,-0.2513911724090576,1.6041151285171509,4.6539306640625,-2.593994140625,2.105712890625
13.4299999,-9.885659217834473,-0.08858546614646912,1.6328455209732056,1.373291015625,-0.2899169921875,-0.9613037109375
13.4499999,-9.892841339111328,0.043095629662275314,1.742978811264038,-3.3111572265625,1.6937255859375,1.678466796875
13.469999900000001,-9.792284965515137,0.10055647045373917,1.8195933103561401,-7.6446533203125,1.953125,-1.617431640625
13.4899999,-9.701305389404297,0.13407529890537262,1.922544002532959,-7.87353515625,5.645751953125,-5.126953125
13.5099999,-9.701305389404297,0.035913024097681046,1.9249382019042969,-6.4849853515625,5.1727294921875,0.18310546875
13.5299999,-9.727641105651855,-0.10295066982507706,1.8411411046981812,-5.889892578125,4.150390625,-0.0762939453125
13.549999900000001,-9.828198432922363,-0.22505496442317963,1.6879122257232666,-2.9296875,3.692626953125,0.7781982421875
13.569999900000001,-9.890447616577148,-0.3256114423274994,1.5394717454910278,2.0904541015625,-1.77001953125,2.0599365234375
13.5899999,-9.904812812805176,-0.3495534360408783,1.4724340438842773,5.4473876953125,-0.6256103515625,0.213623046875
13.6099999,-9.947908401489258,-0.3232172429561615,1.45806884765625,4.6844482421875,-0.8392333984375,5.157470703125
13.629999900000001,-9.84495735168457,-0.1628057211637497,1.5418659448623657,-0.823974609375,-0.823974609375,1.1444091796875
13.649999900000001,-9.825803756713867,0.028730420395731926,1.7166426181793213,-8.1634521484375,4.3182373046875,-2.38037109375
13.6699999,-9.746794700622559,0.15083470940589905,1.8411411046981812,-14.923095703125,4.608154296875,-0.1220703125
13.6899999,-9.679757118225098,0.19871874153614044,1.9488801956176758,-19.073486328125,7.9803466796875,-1.129150390625
13.709999900000001,-9.643844604492188,0.1173158809542656,2.0231003761291504,-18.6309814453125,9.5977783203125,0.42724609375
13.729999900000001,-9.615114212036133,0.016759412363171577,2.169146776199341,-26.397705078125,12.9852294921875,5.126953125
13.7499999,-9.59596061706543,0.019153613597154617,2.3487119674682617,-52.9937744140625,23.86474609375,8.9111328125
13.7699999,-9.121908187866211,-0.12689268589019775,2.1571757793426514,-70.7550048828125,33.966064453125,10.4217529296875
13.789999900000002,-8.31985092163086,-0.524330198764801,1.7980455160140991,-40.008544921875,24.1241455078125,29.327392578125
13.809999900000001,-7.299921035766602,-1.0558429956436157,1.3048399686813354,9.2010498046875,7.843017578125,31.6162109375
13.8299999,-6.722918510437012,-1.5634137392044067,1.0773907899856567,22.3388671875,16.17431640625,30.3497314453125
13.8499999,-7.017405033111572,-1.534683346748352,1.3527239561080933,-0.152587890625,39.276123046875,43.8690185546875
13.8699999,-8.226476669311523,-0.8164227604866028,1.7070658206939697,-30.1513671875,52.825927734375,49.4842529296875
13.889999900000001,-9.979032516479492,0.49559974670410156,1.7884687185287476,-53.1768798828125,54.595947265625,43.060302734375
13.9099999,-11.872846603393555,1.7956513166427612,1.1827356815338135,-60.5926513671875,46.600341796875,30.120849609375
13.9299999,-13.405135154724121,2.892195701599121,0.30885201692581177,-54.19921875,24.2462158203125,1.983642578125
13.9499999,-14.396334648132324,3.201047658920288,-0.7182605266571045,-56.7626953125,1.2054443359375,-15.045166015625
13.969999900000001,-14.446613311767578,2.7964274883270264,-1.4101848602294922,-43.8690185546875,-17.1966552734375,-19.2413330078125
13.9899999,-13.481749534606934,1.7884687185287476,-1.5514427423477173,-10.4217529296875,-32.989501953125,-13.153076171875
14.0099999,-11.719616889953613,0.5722141861915588,-1.1899182796478271,8.880615234375,-36.6668701171875,-1.6021728515625
14.0299999,-9.674968719482422,-0.4908113479614258,-0.31603461503982544,10.3302001953125,-26.824951171875,10.162353515625
14.049999900000001,-7.8960771560668945,-1.0127472877502441,0.790086567401886,-3.9215087890625,-6.6680908203125,20.2178955078125
14.069999900000001,-6.919242858886719,-0.993593692779541,1.7573440074920654,-15.350341796875,14.1754150390625,23.4832763671875
14.0899999,-6.845022678375244,-0.6248866319656372,2.2457611560821533,-10.650634765625,21.5911865234375,15.9759521484375
14.1099999,-7.637503623962402,0.0454898327589035,2.166752576828003,2.4566650390625,17.7001953125,6.0577392578125
14.129999900000001,-8.848969459533691,0.7709329724311829,1.6735470294952393,8.7127685546875,10.406494140625,-3.96728515625
14.149999900000001,-10.113107681274414,1.4628572463989258,1.0582371950149536,4.8370361328125,2.8839111328125,-10.5743408203125
14.1699999,-11.02051067352295,1.8914192914962769,0.6320692300796509,-7.01904296875,-0.1678466796875,-17.1661376953125
14.1899999,-11.494562149047852,1.9632453918457031,0.3974374830722809,-6.8359375,0.5340576171875,-18.7225341796875
14.209999900000001,-11.494562149047852,1.6639702320098877,0.23702596127986908,-8.8958740234375,0,-17.5323486328125
14.229999900000001,-11.077971458435059,1.1444283723831177,0.40462008118629456,-32.4249267578125,-2.655029296875,-18.85986328125
14.2499999,-10.474632263183594,0.4908113479614258,0.5315127968788147,1.52587890625,-0.48828125,-11.71875
14.2699999,-9.78989028930664,-0.0454898327589035,0.9624691009521484,3.47900390625,8.9263916015625,-2.0294189453125
14.289999900000002,-9.21288776397705,-0.4644751250743866,1.2832920551300049,-0.335693359375,16.17431640625,8.7127685546875
14.309999900000001,-8.911218643188477,-0.5746083855628967,1.3982137441635132,-2.7008056640625,19.439697265625,13.9923095703125
14.3299999,-8.913613319396973,-0.395043283700943,1.2330138683319092,1.708984375,18.1427001953125,10.0860595703125
14.3499999,-9.2033109664917,-0.009576806798577309,0.8690952062606812,12.054443359375,12.4969482421875,1.4495849609375
14.3699999,-9.610325813293457,0.4429273009300232,0.5051765441894531,22.7813720703125,5.157470703125,-4.6234130859375
14.389999900000001,-9.971850395202637,0.8068459630012512,0.30885201692581177,25.08544921875,3.72314453125,-7.080078125
14.4099999,-10.218452453613281,1.0438719987869263,0.3495534360408783,16.6015625,8.8958740234375,-8.331298828125
14.4299999,-10.292673110961914,1.0103530883789062,0.4884171485900879,7.7667236328125,14.9688720703125,-9.674072265625
14.4499999,-10.316615104675293,0.8547300100326538,0.6033388376235962,5.096435546875,16.3726806640625,-6.2408447265625
14.469999900000001,-10.359710693359375,0.6153098344802856,0.5147533416748047,5.2947998046875,13.427734375,-2.13623046875
14.4899999,-10.438719749450684,0.4884171485900879,0.19153612852096558,4.3792724609375,4.6539306640625,-4.119873046875
14.5099999,-10.522516250610352,0.49559974670410156,-0.16759411990642548,0.0457763671875,-7.8125,-9.8114013671875
14.5299999,-10.548852920532227,0.5482721924781799,-0.3998316824436188,-5.0811767578125,-15.56396484375,-12.2833251953125
14.549999900000001,-10.486603736877441,0.4405331015586853,-0.3878606855869293,-4.1351318359375,-14.7705078125,-8.941650390625
14.569999900000001,-10.378864288330078,0.2106897532939911,-0.11971008777618408,-0.5340576171875,-12.6495361328125,-0.30517578125
14.5899999,-10.228029251098633,-0.043095629662275314,0.1412578970193863,2.7313232421875,-12.725830078125,6.3323974609375
14.6099999,-10.062829971313477,-0.181959331035614,0.40462008118629456,5.3558349609375,-15.9759521484375,7.87353515625
14.629999900000001,-9.895236015319824,-0.10295066982507706,0.6320692300796509,1.3427734375,-15.3961181640625,8.6517333984375
14.649999900000001,-9.77791976928711,0.1149216815829277,0.8475474119186401,-2.0294189453125,-9.1094970703125,7.50732421875
14.6699999,-9.658209800720215,0.36152446269989014,1.1204863786697388,-0.5340576171875,-2.25830078125,4.150390625
14.6899999,-9.593565940856934,0.5339069962501526,1.2761094570159912,-0.1678466796875,4.669189453125,0.6103515625
14.709999900000001,-9.718064308166504,0.4620809257030487,1.0414776802062988,8.6212158203125,6.6070556640625,-1.2664794921875
14.729999900000001,-9.897629737854004,0.2944868206977844,0.5003881454467773,45.623779296875,-12.6190185546875,-4.9896240234375
14.7499999,-10.11789608001709,0.040701430290937424,-0.4357447028160095,82.244873046875,-35.003662109375,-8.3770751953125
14.7699999,-10.223240852355957,-0.038307227194309235,-0.8307880163192749,103.5308837890625,-47.760009765625,-8.6669921875
14.789999900000002,-10.271124839782715,0.038307227194309235,-1.0678139925003052,102.1270751953125,-43.76220703125,-5.462646484375
14.809999900000001,-10.160991668701172,0.43335050344467163,-0.3711012601852417,92.6361083984375,-38.2080078125,-10.7879638671875
14.8299999,-10.101137161254883,0.8643068075180054,0.6153098344802856,70.2972412109375,-30.76171875,-10.5133056640625
14.8499999,-9.99339771270752,1.4101848602294922,1.802833914756775,29.4952392578125,-10.406494140625,-15.594482421875
14.8699999,-9.871294021606445,1.7118542194366455,2.7700912952423096,-9.5672607421875,11.474609375,-15.045166015625
14.889999900000001,-9.646238327026367,1.8100165128707886,3.3279404640197754,-32.318115234375,25.8026123046875,-13.36669921875
14.9099999,-9.627084732055664,1.4676456451416016,3.2345664501190186,-42.755126953125,34.4390869140625,-7.354736328125
14.9299999,-9.639056205749512,0.8954314589500427,2.513911724090576,-39.9322509765625,29.571533203125,-7.8887939453125
14.9499999,-9.821015357971191,0.19393034279346466,1.5897499322891235,-25.4974365234375,15.960693359375,-3.173828125
14.969999900000001,-9.945513725280762,-0.40940847992897034,0.5554547905921936,-9.82666015625,4.7760009765625,-1.1444091796875
14.9899999,-10.046070098876953,-0.7996633648872375,-0.05985504388809204,10.1318359375,-4.6234130859375,3.11279296875
15.0099999,-10.022128105163574,-0.8523358106613159,-0.363918662071228,25.6805419921875,-11.9476318359375,4.913330078125
15.0299999,-9.947908401489258,-0.646434485912323,-0.304063618183136,33.5235595703125,-12.20703125,3.2196044921875
15.049999900000001,-9.892841339111328,-0.23942017555236816,0.11013327538967133,36.102294921875,-12.3443603515625,-1.4495849609375
15.069999900000001,-9.852140426635742,0.15562310814857483,0.646434485912323,33.4625244140625,-9.8724365234375,-5.8135986328125
15.0899999,-9.77791976928711,0.5219359993934631,1.216254472732544,27.9388427734375,-1.8310546875,-6.927490234375
15.1099999,-9.691728591918945,0.7015010714530945,1.7118542194366455,20.9503173828125,4.1046142578125,-5.4931640625
15.129999900000001,-9.607931137084961,0.8140285611152649,1.9129672050476074,13.12255859375,13.5498046875,-5.2642822265625
15.149999900000001,-9.59835433959961,0.7565677165985107,1.9249382019042969,3.90625,17.6239013671875,-6.0272216796875
15.1699999,-9.6989107131958,0.5985504388809204,1.723825216293335,0.1373291015625,13.7176513671875,-7.5836181640625
15.1899999,-9.888052940368652,0.40222588181495667,1.357512354850769,2.349853515625,13.2293701171875,-5.8135986328125
15.209999900000001,-10.08437728881836,0.12449848651885986,0.9720458984375,5.828857421875,9.4757080078125,-3.0059814453125
15.229999900000001,-10.204087257385254,0.031124621629714966,0.6200982332229614,8.9263916015625,3.4332275390625,-2.197265625
15.2499999,-10.536881446838379,0.0071826050989329815,0.35913026332855225,9.33837890625,2.7008056640625,-1.6632080078125
15.2699999,-10.60391902923584,0.0933738648891449,0.2059013396501541,6.3323974609375,5.0048828125,-10.43701171875
15.289999900000002,-10.96544361114502,0.20111294090747833,0.17956513166427612,6.1187744140625,-2.288818359375,-6.866455078125
15.309999900000001,-10.884040832519531,0.30885201692581177,0.18914192914962769,8.4991455078125,-15.07568359375,-9.552001953125
15.3299999,-10.788272857666016,0.3208230137825012,0.31603461503982544,10.772705078125,-16.66259765625,-8.026123046875
15.3499999,-10.57040023803711,0.3447650372982025,0.5554547905921936,10.650634765625,-14.0380859375,-8.4991455078125
15.3699999,-10.101137161254883,0.2944868206977844,0.8068459630012512,7.354736328125,-10.3607177734375,-15.9149169921875
15.389999900000001,-9.832986831665039,0.22026655077934265,1.2066776752471924,3.7841796875,-5.126953125,-7.3394775390625
15.4099999,-9.476250648498535,0.021547814831137657,1.455674648284912,0.3662109375,-9.3231201171875,-3.0670166015625
15.4299999,-9.191340446472168,-0.14365209639072418,1.659181833267212,-0.4425048828125,1.6021728515625,-7.2479248046875
15.4499999,-9.057265281677246,-0.31364041566848755,1.7525556087493896,0.2593994140625,1.15966796875,-1.64794921875
15.469999900000001,-8.89445972442627,-0.35913026332855225,1.6759412288665771,0.946044921875,5.6304931640625,0.640869140625
15.4899999,-8.87051773071289,-0.33758243918418884,1.5442601442337036,1.617431640625,6.5765380859375,-1.5411376953125
15.5099999,-8.877699851989746,-0.20350714027881622,1.3934253454208374,0.3662109375,7.049560546875,0.7476806640625
15.5299999,-9.14585018157959,-0.08619125932455063,1.2521674633026123,-0.5340576171875,16.29638671875,-1.556396484375
15.549999900000001,-9.500192642211914,0.016759412363171577,1.1085153818130493,-1.28173828125,10.833740234375,-2.9144287109375
15.569999900000001,-10.031704902648926,0.14604631066322327,1.113303780555725,-4.6539306640625,10.3302001953125,-3.875732421875
15.5899999,-10.551246643066406,0.15562310814857483,0.9576807022094727,-6.2408447265625,10.498046875,-5.645751953125
15.6099999,-10.730812072753906,0.15322890877723694,0.8786720037460327,-3.753662109375,3.7078857421875,-6.7138671875
15.629999900000001,-10.81460952758789,0.10773907601833344,0.6919242739677429,2.5634765625,8.72802734375,-2.9754638671875
15.649999900000001,-10.520122528076172,0.090979665517807,0.545877993106842,11.1541748046875,4.45556640625,-12.481689453125
15.6699999,-10.33098030090332,-0.05267243832349777,0.5147533416748047,16.5252685546875,-4.852294921875,-11.2762451171875
15.6899999,-10.129867553710938,-0.17717093229293823,0.49799394607543945,12.4664306640625,-1.9378662109375,-8.3160400390625
15.709999900000001,-9.813833236694336,-0.3280056416988373,0.5937620401382446,6.7901611328125,-4.5928955078125,-7.720947265625
15.729999900000001,-9.624691009521484,-0.4836287498474121,0.7398083209991455,2.8533935546875,-0.7171630859375,0.48828125
15.7499999,-9.318233489990234,-0.4812345504760742,0.8523358106613159,-0.6866455078125,9.4146728515625,-0.396728515625
15.7699999,-9.248801231384277,-0.45489832758903503,1.0319008827209473,-3.3416748046875,3.692626953125,1.1749267578125
15.789999900000002,-9.287108421325684,-0.3663128614425659,1.1276689767837524,-6.8359375,4.8370361328125,3.35693359375
15.809999900000001,-9.502586364746094,-0.26575639843940735,1.1300631761550903,-8.544921875,8.575439453125,-0.2288818359375
15.8299999,-9.63187313079834,-0.17238251864910126,1.0821791887283325,-7.6446533203125,5.2490234375,-0.732421875
15.8499999,-9.921571731567383,-0.11252748221158981,0.9002198576927185,-3.3416748046875,11.199951171875,-0.030517578125
15.869999900000002,-10.06043529510498,-0.1173158809542656,0.6655880808830261,4.1046142578125,2.1209716796875,-5.5389404296875
15.889999900000001,-10.244789123535156,-0.17956513166427612,0.4596867263317108,11.383056640625,-5.7373046875,-2.0599365234375
15.9099999,-10.426748275756836,-0.272938996553421,0.33997663855552673,14.7857666015625,-3.5247802734375,-3.509521484375
15.9299999,-10.424354553222656,-0.3471592366695404,0.3423708379268646,18.8751220703125,-8.3160400390625,-6.04248046875
15.9499999,-10.493785858154297,-0.3471592366695404,0.49799394607543945,21.42333984375,-5.6610107421875,-2.3651123046875
15.969999900000001,-10.347740173339844,-0.2968810200691223,0.6560112833976746,19.2413330078125,-2.74658203125,-7.0953369140625
15.9899999,-10.1753568649292,-0.19393034279346466,0.8858546018600464,17.2576904296875,-8.4075927734375,-5.7220458984375
16.0099999,-10.062829971313477,-0.14604631066322327,1.039083480834961,14.6636962890625,-3.11279296875,-3.143310546875
16.0299999,-9.909601211547852,-0.1149216815829277,1.1779472827911377,8.9111328125,0.8544921875,-8.2550048828125
16.0499999,-9.897629737854004,-0.15322890877723694,1.2976573705673218,1.2664794921875,0,-3.0517578125
16.0699999,-10.541669845581055,-0.2968810200691223,1.3024457693099976,-9.735107421875,8.056640625,-16.0369873046875
16.089999900000002,-11.125855445861816,-0.40462008118629456,1.192312479019165,-10.711669921875,-5.67626953125,-26.1077880859375
16.109999900000002,-11.635820388793945,-0.6009446382522583,0.9600749015808105,-7.38525390625,-3.6773681640625,-24.47509765625
16.1299999,-11.820174217224121,-0.7637503147125244,0.6655880808830261,-2.4566650390625,-1.220703125,-24.90234375
16.1499999,-11.599906921386719,-0.8619126081466675,0.3519476354122162,3.143310546875,-1.983642578125,-23.8494873046875
16.1699999,-10.931924819946289,-0.9002198576927185,0.08858546614646912,9.918212890625,-0.54931640625,-18.9666748046875
16.1899999,-9.95748519897461,-0.8858546018600464,-0.0694318488240242,13.8092041015625,2.5787353515625,-9.58251953125
16.2099999,-8.956708908081055,-0.7852981686592102,-0.023942016065120697,12.3748779296875,4.119873046875,-1.678466796875
16.2299999,-8.190564155578613,-0.7086837291717529,0.16998831927776337,8.270263671875,10.162353515625,-0.1678466796875
16.249999900000002,-7.800309181213379,-0.49559974670410156,0.6991068720817566,0.4119873046875,10.3912353515625,1.800537109375
16.269999900000002,-7.733271598815918,-0.33997663855552673,1.2737152576446533,-27.5726318359375,13.9007568359375,6.04248046875
16.2899999,-7.879317760467529,-0.2561795711517334,1.7764976024627686,-52.825927734375,14.556884765625,7.3699951171875
16.3099999,-8.157045364379883,-0.3280056416988373,1.9584569931030273,-52.825927734375,12.1002197265625,7.2174072265625
16.3299999,-8.44195556640625,-0.6392518281936646,1.7310078144073486,-36.1175537109375,0.244140625,6.8359375
16.3499999,-8.789113998413086,-1.0558429956436157,1.2066776752471924,-18.9208984375,-13.5345458984375,12.5885009765625
16.3699999,-9.126696586608887,-1.4269442558288574,0.6799532771110535,-4.425048828125,-24.4140625,15.56396484375
16.3899999,-9.428366661071777,-1.6376339197158813,0.33039984107017517,5.31005859375,-23.7274169921875,10.0860595703125
16.4099999,-9.670180320739746,-1.6376339197158813,0.2322375625371933,9.7198486328125,-20.5535888671875,3.997802734375
16.429999900000002,-9.859322547912598,-1.4460978507995605,0.3495534360408783,9.002685546875,-29.2205810546875,3.0670166015625
16.4499999,-9.945513725280762,-1.1348515748977661,0.6224924325942993,4.1961669921875,-37.8570556640625,2.899169921875
16.4699999,-9.907206535339355,-0.811634361743927,0.9744400978088379,1.4495849609375,-24.7802734375,0.3662109375
16.4899999,-9.782708168029785,-0.5099649429321289,1.2473790645599365,0.30517578125,7.7362060546875,2.4871826171875
16.5099999,-9.873687744140625,-0.2968810200691223,1.4245500564575195,0.7781982421875,42.7398681640625,3.5247802734375
16.5299999,-10.11789608001709,-0.17477671802043915,1.4484920501708984,-1.8768310546875,24.169921875,-6.40869140625
16.5499999,-10.500968933105469,-0.181959331035614,1.3335703611373901,-6.2255859375,-2.838134765625,-22.5372314453125
16.5699999,-10.759542465209961,-0.26575639843940735,1.170764684677124,-5.1422119140625,-12.87841796875,-20.5841064453125
16.589999900000002,-10.642226219177246,-0.4141969084739685,0.9959878921508789,-2.8228759765625,-10.0860595703125,-3.5247802734375
16.609999900000002,-10.220847129821777,-0.545877993106842,0.828393816947937,-2.3345947265625,1.9073486328125,9.9334716796875
16.6299999,-9.761159896850586,-0.6057330369949341,0.7110779285430908,-2.74658203125,14.1448974609375,11.8408203125
16.6499999,-9.457097053527832,-0.6009446382522583,0.6560112833976746,-4.486083984375,14.2059326171875,6.7138671875
16.6699999,-9.35893440246582,-0.5650315880775452,0.6823474764823914,-7.7667236328125,2.4566650390625,2.5787353515625
16.6899999,-9.390059471130371,-0.5434837937355042,0.7733271718025208,-11.688232421875,-2.0904541015625,0.213623046875
16.7099999,-9.437943458557129,-0.5339069962501526,0.9097966551780701,-16.4794921875,4.241943359375,1.2969970703125
16.7299999,-9.464279174804688,-0.545877993106842,1.0007762908935547,-18.646240234375,15.8233642578125,6.4697265625
16.749999900000002,-9.48343276977539,-0.5530605912208557,1.0271124839782715,-13.9923095703125,24.0020751953125,11.993408203125
16.769999900000002,-9.627084732055664,-0.5339069962501526,0.9457096457481384,-7.0648193359375,29.022216796875,11.53564453125
16.7899999,-9.832986831665039,-0.5147533416748047,0.8259995579719543,-1.0223388671875,18.3563232421875,6.561279296875
16.8099999,-10.086771965026855,-0.45250412821769714,0.727837324142456,1.77001953125,-4.486083984375,8.087158203125
16.8299999,-10.266336441040039,-0.3878606855869293,0.6943184733390808,2.86865234375,-17.5018310546875,14.0533447265625
16.8499999,-10.311826705932617,-0.31603461503982544,0.7206547260284424,7.5531005859375,-20.3704833984375,21.575927734375
16.8699999,-10.44350814819336,-0.27054479718208313,0.8140285611152649,15.1214599609375,-23.2391357421875,28.717041015625
16.8899999,-10.78587818145752,-0.28730419278144836,0.9217676520347595,17.76123046875,-19.22607421875,18.951416015625
16.9099999,-10.94150161743164,-0.2561795711517334,0.9840168952941895,15.4266357421875,-11.4593505859375,-7.781982421875
16.929999900000002,-11.228805541992188,-0.2753331959247589,1.0342950820922852,16.082763671875,-11.1236572265625,-1.6326904296875
16.9499999,-11.02051067352295,-0.22026655077934265,1.048660397529602,16.54052734375,-13.97705078125,10.4217529296875
16.9699999,-10.615890502929688,-0.09816227108240128,1.0821791887283325,10.4217529296875,-10.009765625,6.6680908203125
16.9899999,-10.153809547424316,-0.047884032130241394,1.1683704853057861,2.532958984375,-6.2255859375,5.5389404296875
17.0099999,-9.775525093078613,-0.021547814831137657,1.2952631711959839,-2.899169921875,-6.8359375,4.9591064453125
17.0299999,-9.639056205749512,-0.08858546614646912,1.403002142906189,-7.110595703125,-5.035400390625,6.8511962890625
17.0499999,-9.682151794433594,-0.2561795711517334,1.4389152526855469,-7.7972412109375,-6.011962890625,10.711669921875
17.0699999,-9.859322547912598,-0.3711012601852417,1.4197616577148438,-4.5928955078125,-11.29150390625,17.2271728515625
17.089999900000002,-9.99100399017334,-0.3519476354122162,1.3742717504501343,-0.9918212890625,-17.3797607421875,24.749755859375
17.109999900000002,-10.031704902648926,-0.14844051003456116,1.3646949529647827,0.3814697265625,-19.10400390625,25.543212890625
17.1299999,-9.888052940368652,0.20350714027881622,1.400607943534851,-1.5106201171875,-16.4794921875,18.6614990234375
17.1499999,-9.634267807006836,0.5626373887062073,1.4939818382263184,-4.425048828125,-16.998291015625,15.8233642578125
17.1699999,-9.361329078674316,0.8092401623725891,1.5610195398330688,-9.063720703125,-10.894775390625,12.054443359375
17.1899999,-9.258378028869629,1.0534487962722778,1.6831238269805908,-13.824462890625,5.2337646484375,-9.979248046875
17.2099999,-9.337387084960938,1.0749965906143188,1.7118542194366455,-15.1214599609375,1.495361328125,-19.195556640625
17.2299999,-9.579200744628906,0.9959878921508789,1.7310078144073486,-13.73291015625,2.899169921875,-14.7552490234375
17.249999900000002,-9.856928825378418,0.6751648783683777,1.6352397203445435,-11.8560791015625,0.701904296875,-11.016845703125
17.269999900000002,-10.000580787658691,0.22505496442317963,1.5418659448623657,-9.5062255859375,-0.4425048828125,-6.65283203125
17.2899999,-10.08198356628418,-0.1867477297782898,1.4963760375976562,-8.6517333984375,1.373291015625,-2.532958984375
17.3099999,-10.070012092590332,-0.4884171485900879,1.4915876388549805,-8.4686279296875,1.800537109375,-0.30517578125
17.3299999,-10.002974510192871,-0.6200982332229614,1.556231141090393,-4.39453125,0.7171630859375,1.7547607421875
17.3499999,-9.914389610290527,-0.5746083855628967,1.6687586307525635,-1.03759765625,1.5106201171875,5.06591796875
17.3699999,-9.825803756713867,-0.363918662071228,1.7812861204147339,-7.110595703125,5.92041015625,6.3323974609375
17.3899999,-9.794678688049316,-0.05027823522686958,1.86508309841156,-16.6778564453125,9.857177734375,4.2724609375
17.409999900000003,-9.804255485534668,0.22266076505184174,1.8148049116134644,-20.599365234375,9.58251953125,1.800537109375
17.429999900000002,-9.876082420349121,0.40222588181495667,1.659181833267212,-18.1732177734375,6.317138671875,2.3345947265625
17.4499999,-9.931148529052734,0.3926490843296051,1.3838485479354858,-13.916015625,3.2196044921875,2.899169921875
17.4699999,-9.995792388916016,0.3280056416988373,1.161187767982483,-8.4686279296875,-0.3509521484375,1.251220703125
17.4899999,-10.022128105163574,0.18914192914962769,1.0342950820922852,-4.1961669921875,-4.3487548828125,-0.18310546875
17.5099999,-9.981427192687988,0.18914192914962769,1.0845733880996704,-4.8828125,-3.96728515625,0.9918212890625
17.5299999,-10.019734382629395,0.14604631066322327,1.194706678390503,-9.9639892578125,-0.030517578125,1.678466796875
17.5499999,-9.962273597717285,0.24420857429504395,1.3958195447921753,-12.0697021484375,0.67138671875,-0.732421875
17.5699999,-10.031704902648926,0.28730419278144836,1.460463047027588,-5.035400390625,-2.50244140625,-3.90625
17.589999900000002,-9.995792388916016,0.29209262132644653,1.4413094520568848,5.4779052734375,-8.5296630859375,-5.7830810546875
17.609999900000002,-9.945513725280762,0.27054479718208313,1.3862427473068237,12.725830078125,-10.6048583984375,-8.148193359375
17.6299999,-9.86889934539795,0.16998831927776337,1.3024457693099976,17.2576904296875,-10.80322265625,-10.55908203125
17.6499999,-9.832986831665039,0.019153613597154617,1.3982137441635132,18.85986328125,-9.6282958984375,-9.0484619140625
17.6699999,-9.744400978088379,-0.1149216815829277,1.601720929145813,12.603759765625,-7.7667236328125,-5.0811767578125
17.6899999,-9.701305389404297,-0.19153612852096558,1.8363527059555054,0.762939453125,-0.701904296875,0.1220703125
17.7099999,-9.603142738342285,-0.19393034279346466,2.1116859912872314,-8.331298828125,5.523681640625,1.77001953125
17.7299999,-9.588777542114258,-0.10295066982507706,2.2625205516815186,-11.4288330078125,7.6904296875,1.617431640625
17.749999900000002,-9.672574996948242,0.0454898327589035,2.233790159225464,-11.16943359375,6.5765380859375,1.800537109375
17.769999900000002,-9.823410034179688,0.08619125932455063,2.006340980529785,-8.453369140625,5.3863525390625,0.3509521484375
17.7899999,-9.974244117736816,0.09816227108240128,1.644816517829895,-1.1444091796875,0.9307861328125,-2.197265625
17.8099999,-10.007762908935547,0.014365210197865963,1.2617442607879639,8.5296630859375,-6.683349609375,-4.1961669921875
17.8299999,-9.979032516479492,-0.10773907601833344,1.0055646896362305,12.9852294921875,-8.6517333984375,-3.0975341796875
17.8499999,-9.892841339111328,-0.15562310814857483,0.9792284965515137,11.5203857421875,-6.4849853515625,0.7781982421875
17.8699999,-9.856928825378418,-0.16519992053508759,1.1875240802764893,9.735107421875,-6.6375732421875,2.0599365234375
17.8899999,-9.837775230407715,-0.10295066982507706,1.534683346748352,5.950927734375,-6.439208984375,1.5716552734375
17.909999900000003,-9.864110946655273,0.038307227194309235,1.946485996246338,-0.6866455078125,-1.129150390625,1.77001953125
17.929999900000002,-9.859322547912598,0.10055647045373917,2.1811177730560303,-4.9285888671875,3.2196044921875,2.4871826171875
17.9499999,-9.794678688049316,0.19632454216480255,2.250549554824829,-5.67626953125,1.8463134765625,-1.2969970703125
17.9699999,-9.761159896850586,0.1867477297782898,2.10210919380188,-5.6610107421875,4.0283203125,-3.021240234375
17.9899999,-9.758766174316406,0.17477671802043915,1.9345149993896484,-3.4942626953125,4.425048828125,1.2359619140625
18.0099999,-9.830592155456543,0.12689268589019775,1.766920804977417,-0.762939453125,1.617431640625,3.875732421875
18.0299999,-9.904812812805176,0.11252748221158981,1.6376339197158813,0.7781982421875,-0.5645751953125,0.518798828125
18.0499999,-9.950302124023438,0.08619125932455063,1.5849615335464478,2.9296875,-1.28173828125,-1.5869140625
18.0699999,-9.895236015319824,0.090979665517807,1.5969325304031372,3.326416015625,-1.9073486328125,-2.5634765625
18.089999900000002,-9.761159896850586,0.0933738648891449,1.6735470294952393,0.1068115234375,2.197265625,-4.57763671875
18.109999900000002,-9.725247383117676,-0.002394201699644327,1.7956513166427612,0.3509521484375,8.3770751953125,-2.1514892578125
18.1299999,-9.672574996948242,0.040701430290937424,1.9321208000183105,1.4495849609375,7.354736328125,1.708984375
18.1499999,-9.691728591918945,0.05506663769483566,2.0159177780151367,-4.08935546875,6.65283203125,2.227783203125
18.1699999,-9.77791976928711,0.0933738648891449,1.9991583824157715,-8.9263916015625,10.7269287109375,-0.48828125
18.1899999,-9.823410034179688,0.15083470940589905,1.8842366933822632,-6.3629150390625,9.857177734375,-2.62451171875
18.2099999,-9.823410034179688,0.10773907601833344,1.7357962131500244,-3.997802734375,6.89697265625,-4.8370361328125
18.2299999,-9.854534149169922,0.08619125932455063,1.5131354331970215,-5.035400390625,10.162353515625,-1.922607421875
18.249999900000002,-9.914389610290527,-0.033518824726343155,1.3263877630233765,-3.7841796875,7.5836181640625,2.105712890625
18.269999900000002,-9.945513725280762,-0.08858546614646912,1.1204863786697388,1.190185546875,-0.335693359375,0.48828125
18.2899999,-10.034099578857422,-0.15322890877723694,0.9983820915222168,5.4168701171875,-3.997802734375,-0.9307861328125
18.3099999,-10.077195167541504,-0.16519992053508759,0.9624691009521484,7.1868896484375,-6.3018798828125,0.7171630859375
18.3299999,-9.979032516479492,-0.15083470940589905,1.0079588890075684,6.9122314453125,-8.4075927734375,-2.3040771484375
18.3499999,-9.916783332824707,-0.09576806426048279,1.2617442607879639,5.5694580078125,-3.387451171875,-2.38037109375
18.3699999,-9.818621635437012,0.019153613597154617,1.522712230682373,1.922607421875,-0.9613037109375,2.7008056640625
18.3899999,-9.773131370544434,0.09816227108240128,1.8507179021835327,-5.31005859375,-0.244140625,4.0435791015625
18.409999900000003,-9.734824180603027,0.20350714027881622,2.049436569213867,-11.53564453125,4.547119140625,0.030517578125
18.429999900000002,-9.797073364257812,0.1843535304069519,2.1116859912872314,-9.4451904296875,6.3018798828125,-0.640869140625
18.4499999,-9.768342971801758,0.14604631066322327,2.03507137298584,-5.79833984375,2.197265625,-0.7171630859375
18.4699999,-9.77791976928711,0.035913024097681046,1.7741034030914307,-6.2255859375,5.4779052734375,-1.4495849609375
18.4899999,-9.80904483795166,-0.026336219161748886,1.5298948287963867,-3.875732421875,7.5531005859375,1.2054443359375
18.5099999,-9.876082420349121,-0.023942016065120697,1.3096283674240112,3.0364990234375,0.30517578125,0.91552734375
18.5299999,-9.926360130310059,-0.047884032130241394,1.137245774269104,6.4239501953125,-4.8370361328125,-2.2430419921875
18.5499999,-10.02691650390625,0.026336219161748886,1.0678139925003052,6.9427490234375,-4.7149658203125,-1.007080078125
18.5699999,-10.029311180114746,0,1.1492167711257935,8.3160400390625,-7.14111328125,-2.227783203125
18.589999900000002,-9.916783332824707,-0.019153613597154617,1.256955862045288,6.7596435546875,-6.1798095703125,-5.4473876953125
18.609999900000002,-9.847352027893066,0.002394201699644327,1.5059528350830078,2.1514892578125,-1.373291015625,-0.7781982421875
18.6299999,-9.77791976928711,-0.06224924325942993,1.7597382068634033,-3.082275390625,0.67138671875,4.547119140625
18.6499999,-9.742006301879883,0.016759412363171577,1.9273324012756348,-7.1868896484375,0.6561279296875,3.35693359375
18.6699999,-9.780313491821289,0.033518824726343155,1.9847931861877441,-7.293701171875,2.044677734375,-0.30517578125
18.6899999,-9.821015357971191,0.05985504388809204,1.9033904075622559,-4.547119140625,0.946044921875,0.91552734375
18.7099999,-9.813833236694336,0.10055647045373917,1.764526605606079,-5.0201416015625,-0.335693359375,-0.9918212890625
18.7299999,-9.818621635437012,0.0933738648891449,1.6280571222305298,-6.1492919921875,2.716064453125,-1.5869140625
18.749999900000002,-9.818621635437012,0.035913024097681046,1.5131354331970215,-2.0599365234375,1.15966796875,0.8544921875
18.769999900000002,-9.828198432922363,-0.0071826050989329815,1.4676456451416016,3.0364990234375,-3.4027099609375,2.288818359375
18.7899999,-9.876082420349121,-0.11252748221158981,1.403002142906189,3.875732421875,-4.364013671875,0.79345703125
18.8099999,-9.940725326538086,-0.12928688526153564,1.4221558570861816,3.1585693359375,-3.1585693359375,1.9073486328125
18.8299999,-9.943120002746582,-0.05027823522686958,1.525106430053711,1.2664794921875,-3.60107421875,1.556396484375
18.8499999,-9.93593692779541,0.08379705995321274,1.644816517829895,-3.90625,-0.1678466796875,-1.1138916015625
18.8699999,-9.861717224121094,0.2059013396501541,1.7717092037200928,-6.8817138671875,2.7923583984375,-0.9613037109375
18.8899999,-9.859322547912598,0.26336219906806946,1.7693150043487549,-4.69970703125,0.7781982421875,0.762939453125
18.909999900000003,-9.864110946655273,0.22266076505184174,1.7812861204147339,-0.30517578125,-2.6702880859375,-2.227783203125
18.929999900000002,-9.861717224121094,0.12449848651885986,1.7118542194366455,4.8980712890625,-2.7618408203125,-2.5787353515625
18.9499999,-9.876082420349121,0.07900865375995636,1.7621324062347412,6.5155029296875,-1.495361328125,-0.823974609375
18.9699999,-9.797073364257812,0.07661445438861847,1.8483237028121948,0.2593994140625,2.38037109375,-3.8299560546875
18.9899999,-9.832986831665039,0.14844051003456116,2.006340980529785,-6.3934326171875,8.30078125,-4.9591064453125
19.0099999,-9.955090522766113,0.19153612852096558,2.097320795059204,-9.6435546875,10.4827880859375,-1.922607421875
19.0299999,-10.06043529510498,0.23702596127986908,2.1164743900299072,-12.1612548828125,10.009765625,-1.5869140625
19.0499999,-10.165780067443848,0.20350714027881622,2.0231003761291504,-11.1846923828125,12.0849609375,-5.3863525390625
19.0699999,-10.122684478759766,0.12689268589019775,1.7908629179000854,-4.3487548828125,11.2762451171875,-6.5765380859375
19.089999900000002,-9.950302124023438,0.040701430290937424,1.522712230682373,3.326416015625,6.4697265625,-7.0648193359375
19.109999900000002,-9.890447616577148,-0.31603461503982544,1.039083480834961,15.56396484375,2.593994140625,-6.9122314453125
19.1299999,-9.864110946655273,-0.4812345504760742,0.689530074596405,46.6766357421875,-12.51220703125,-6.8817138671875
19.1499999,-9.9000244140625,-0.667982280254364,0.45489832758903503,60.333251953125,-21.8963623046875,-5.157470703125
19.1699999,-9.914389610290527,-0.5219359993934631,0.6033388376235962,49.713134765625,-19.195556640625,-4.8828125
19.1899999,-9.792284965515137,-0.1843535304069519,1.1228805780410767,26.55029296875,-9.765625,-5.3558349609375
19.2099999,-9.667786598205566,0.2082955539226532,1.8267759084701538,1.4190673828125,1.0528564453125,-5.2642822265625
19.2299999,-9.59835433959961,0.4908113479614258,2.449268341064453,-20.20263671875,9.2926025390625,-4.180908203125
19.249999900000002,-9.66299819946289,0.569819986820221,2.801215887069702,-32.1502685546875,14.3280029296875,-3.2501220703125
19.269999900000002,-9.765948295593262,0.45489832758903503,2.7700912952423096,-34.210205078125,17.2119140625,-0.79345703125
19.2899999,-9.986215591430664,0.17477671802043915,2.425326347351074,-28.6102294921875,17.181396484375,3.84521484375
19.3099999,-10.249577522277832,-0.10773907601833344,1.8986018896102905,-17.5628662109375,10.6201171875,-0.9002685546875
19.3299999,-10.625467300415039,-0.35673606395721436,1.3646949529647827,-5.7220458984375,-4.364013671875,-7.5531005859375
19.3499999,-11.039664268493652,-0.49799394607543945,0.9576807022094727,2.6092529296875,-11.4593505859375,-12.5732421875
19.3699999,-11.314997673034668,-0.5434837937355042,0.7254431247711182,10.650634765625,-4.9591064453125,-19.317626953125
19.3899999,-11.319786071777344,-0.5099649429321289,0.6368576288223267,18.829345703125,-0.3662109375,-25.8026123046875
19.409999900000003,-11.034875869750977,-0.42856210470199585,0.667982280254364,24.6429443359375,-2.3345947265625,-28.9154052734375
19.429999900000002,-10.548852920532227,-0.31364041566848755,0.7948749661445618,28.25927734375,-3.936767578125,-26.9927978515625
19.4499999,-9.99339771270752,-0.1843535304069519,1.015141487121582,28.9154052734375,-5.3863525390625,-20.7366943359375
19.4699999,-9.457097053527832,-0.0454898327589035,1.2952631711959839,24.932861328125,-6.04248046875,-12.1612548828125
19.4899999,-8.99740982055664,0.07900865375995636,1.5945383310317993,17.5628662109375,-1.5411376953125,-5.1422119140625
19.5099999,-8.65743350982666,0.19871874153614044,1.8746598958969116,8.7432861328125,3.4027099609375,0.732421875
19.5299999,-8.422801971435547,0.304063618183136,2.126051187515259,-0.1678466796875,4.913330078125,5.5084228515625
19.5499999,-8.305485725402832,0.38546648621559143,2.3247697353363037,-8.36181640625,8.636474609375,9.521484375
19.5699999,-8.276755332946777,0.4381389021873474,2.451662540435791,-14.7552490234375,13.092041015625,14.0380859375
19.589999900000002,-8.307879447937012,0.4668693244457245,2.5019407272338867,-19.195556640625,12.5885009765625,20.3704833984375
19.609999900000002,-8.422801971435547,0.45489832758903503,2.4468741416931152,-22.5067138671875,9.27734375,28.8543701171875
19.6299999,-8.588001251220703,0.42377370595932007,2.3343467712402344,-24.871826171875,2.716064453125,35.2783203125
19.6499999,-8.786720275878906,0.3663128614425659,2.1739351749420166,-27.313232421875,4.3182373046875,35.4766845703125
19.6699999,-9.016563415527344,0.2849099934101105,1.9919757843017578,-28.289794921875,14.251708984375,31.67724609375
19.6899999,-9.263166427612305,0.18914192914962769,1.8076223134994507,-26.336669921875,15.9912109375,29.022216796875
19.7099999,-9.493009567260742,0.08858546614646912,1.6328455209732056,-22.4151611328125,7.9498291015625,26.7333984375
19.7299999,-9.718064308166504,-0.011971008032560349,1.4652514457702637,-17.6544189453125,3.0517578125,25.390625
19.749999900000002,-9.93593692779541,-0.10055647045373917,1.3072341680526733,-12.542724609375,-0.518798828125,26.42822265625
19.769999900000002,-10.08437728881836,-0.17956513166427612,1.1468225717544556,-6.439208984375,-8.9111328125,24.90234375
19.7899999,-10.17296314239502,-0.24660277366638184,0.993593692779541,0.67138671875,-11.7340087890625,19.47021484375
19.8099999,-10.228029251098633,-0.28730419278144836,0.8690952062606812,6.378173828125,-3.936767578125,16.4947509765625
19.8299999,-10.251971244812012,-0.2944868206977844,0.7924807667732239,9.2010498046875,0.3814697265625,15.5487060546875
19.8499999,-10.237606048583984,-0.26336219906806946,0.7781155705451965,10.040283203125,-3.8604736328125,10.0250244140625
19.8699999,-10.84094524383545,-0.2825157940387726,0.8786720037460327,11.6729736328125,9.796142578125,-23.92578125
19.8899999,-11.142614364624023,-0.29209262132644653,0.9145850539207458,11.9476318359375,4.180908203125,-27.862548828125
19.909999900000003,-11.382035255432129,-0.2801215946674347,0.9361328482627869,15.106201171875,-0.6866455078125,-3.5247802734375
19.929999900000002,-11.142614364624023,-0.16519992053508759,0.9026140570640564,19.439697265625,-6.011962890625,-3.204345703125
19.9499999,-10.76193618774414,0.002394201699644327,0.8619126081466675,20.4925537109375,-8.209228515625,-0.6561279296875
19.9699999,-10.280701637268066,0.22266076505184174,0.8810662031173706,21.05712890625,-6.53076171875,3.90625
19.9899999,-9.813833236694336,0.45489832758903503,0.9816226959228516,17.974853515625,-2.6702880859375,1.4190673828125
20.0099999,-9.478644371032715,0.6584054827690125,1.173158884048462,12.1307373046875,3.1890869140625,-1.3885498046875
20.0299999,-9.272743225097656,0.8044517636299133,1.4101848602294922,7.3089599609375,7.9803466796875,0.0152587890625
