# Time (seconds),Accel_X,Accel_Y,Accel_Z,Gyro_X,Gyro_Y,Gyro_Z
0.0099999,-9.93354320526123,-1.6927006244659424,0.629675030708313,-12.02392578125,-10.3302001953125,-3.72314453125
0.029999900000000003,-9.75637149810791,-1.702277421951294,0.6775590777397156,-12.1612548828125,-9.8419189453125,-3.1280517578125
0.0499999,-9.59835433959961,-1.647210717201233,0.7445967197418213,-13.458251953125,-9.27734375,-2.3040771484375
0.0699999,-9.485827445983887,-1.5514427423477173,0.811634361743927,-14.7705078125,-7.6904296875,-2.5634765625
0.08999990000000001,-9.411606788635254,-1.4077905416488647,0.8643068075180054,-15.472412109375,-6.6680908203125,-3.387451171875
0.10999990000000001,-9.342175483703613,-1.2617442607879639,0.9169792532920837,-15.5792236328125,-5.9356689453125,-2.7923583984375
0.1299999,-9.29189682006836,-1.1252747774124146,0.9648633003234863,-15.4266357421875,-3.5858154296875,0.3814697265625
0.14999990000000002,-9.263166427612305,-1.0103530883789062,1.0199298858642578,-15.167236328125,-4.669189453125,4.1961669921875
0.1699999,-9.263166427612305,-0.8882488012313843,1.0845733880996704,-14.83154296875,-11.3677978515625,5.4473876953125
0.1899999,-9.272743225097656,-0.7733271718025208,1.1492167711257935,-13.4735107421875,-12.847900390625,4.5318603515625
0.20999990000000002,-9.282320022583008,-0.6727706789970398,1.213860273361206,-11.810302734375,-8.056640625,6.439208984375
0.2299999,-9.30386734008789,-0.5985504388809204,1.2832920551300049,-11.9781494140625,-4.3792724609375,10.589599609375
0.2499999,-9.394847869873047,-0.5602431893348694,1.3503297567367554,-14.22119140625,-3.936767578125,10.31494140625
0.2699999,-9.550470352172852,-0.5674257874488831,1.4077905416488647,-16.9830322265625,-2.9449462890625,5.523681640625
0.28999990000000003,-9.746794700622559,-0.6057330369949341,1.4508862495422363,-19.3328857421875,0.1220703125,3.8299560546875
0.3099999,-9.945513725280762,-0.6607996821403503,1.455674648284912,-21.148681640625,5.4473876953125,7.38525390625
0.3299999,-10.105925559997559,-0.7374141216278076,1.4053963422775269,-21.2860107421875,7.3699951171875,11.2457275390625
0.34999990000000003,-10.24239444732666,-0.7996633648872375,1.292868971824646,-19.9432373046875,2.593994140625,12.9852294921875
0.3699999,-10.321403503417969,-0.8236053586006165,1.1276689767837524,-17.4560546875,-1.0986328125,11.5203857421875
0.3899999,-10.314221382141113,-0.8259995579719543,0.9385270476341248,-13.5040283203125,2.1820068359375,8.9111328125
0.40999990000000003,-10.237606048583984,-0.7972691655158997,0.7613561153411865,-9.3231201171875,6.4239501953125,10.07080078125
0.4299999,-10.129867553710938,-0.7445967197418213,0.629675030708313,-6.744384765625,6.0272216796875,14.0380859375
0.4499999,-10.02691650390625,-0.6751648783683777,0.5554547905921936,-5.8135986328125,4.0435791015625,15.1824951171875
0.4699999,-9.931148529052734,-0.5889736413955688,0.5410895943641663,-4.974365234375,4.974365234375,13.24462890625
0.4899999,-9.825803756713867,-0.4884171485900879,0.5626373887062073,-3.11279296875,8.5601806640625,12.7105712890625
0.5099999,-9.6989107131958,-0.395043283700943,0.6105214357376099,-0.0457763671875,10.955810546875,15.2740478515625
0.5299999,-9.600749015808105,-0.304063618183136,0.6655880808830261,2.1820068359375,10.101318359375,19.4549560546875
0.5499999,-9.57441234588623,-0.2082955539226532,0.7398083209991455,2.7923583984375,6.7138671875,21.331787109375
0.5699999,-9.677363395690918,-0.12449848651885986,0.8379706144332886,2.716064453125,2.74658203125,20.904541015625
0.5899998999999999,-9.90241813659668,-0.040701430290937424,0.9744400978088379,1.678466796875,-6.011962890625,20.7061767578125
0.6099998999999999,-10.15141487121582,0.028730420395731926,1.1276689767837524,-1.5411376953125,-16.448974609375,18.0206298828125
0.6299999,-10.323798179626465,0.05985504388809204,1.2713210582733154,-4.9591064453125,-18.5699462890625,11.9171142578125
0.6499999,-10.321403503417969,0.035913024097681046,1.359906554222107,-6.622314453125,-14.0380859375,7.1563720703125
0.6699999,-10.17296314239502,0.0071826050989329815,1.3742717504501343,-6.622314453125,-6.34765625,2.7618408203125
0.6899999,-9.93354320526123,-0.0694318488240242,1.2832920551300049,-4.45556640625,8.1024169921875,-3.875732421875
0.7099999,-9.715670585632324,-0.12928688526153564,1.1348515748977661,-2.410888671875,15.44189453125,-3.96728515625
0.7299998999999999,-9.57201862335205,-0.16998831927776337,0.9528923034667969,-1.617431640625,11.6424560546875,4.08935546875
0.7499998999999999,-9.943120002746582,-0.21787235140800476,0.8212111592292786,-1.068115234375,4.6844482421875,11.90185546875
0.7699999,-10.110713958740234,-0.33997663855552673,0.7206547260284424,-1.64794921875,0.2288818359375,-1.556396484375
0.7899999,-10.551246643066406,-0.40940847992897034,0.706289529800415,-1.0528564453125,-1.3580322265625,-1.983642578125
0.8099999,-10.630255699157715,-0.4692635238170624,0.7158663272857666,2.38037109375,-4.0435791015625,11.993408203125
0.8299999,-10.493785858154297,-0.3902548849582672,0.7637503147125244,5.6610107421875,-6.7596435546875,17.1966552734375
0.8499998999999999,-10.268731117248535,-0.21547815203666687,0.8236053586006165,7.0343017578125,-8.0108642578125,19.439697265625
0.8699998999999999,-10.043676376342773,0.019153613597154617,0.8786720037460327,5.92041015625,-8.819580078125,18.0511474609375
0.8899999,-9.885659217834473,0.19393034279346466,0.9241618514060974,3.72314453125,-9.2620849609375,15.350341796875
0.9099999,-9.799467086791992,0.26096799969673157,0.9457096457481384,1.5411376953125,-8.087158203125,8.97216796875
0.9299999,-9.72285270690918,0.2322375625371933,0.9864110946655273,-0.0762939453125,-5.4779052734375,-1.3580322265625
0.9499999,-9.739612579345703,0.06464344263076782,1.05105459690094,-0.823974609375,-4.241943359375,-3.5858154296875
0.9699998999999999,-9.775525093078613,-0.14604631066322327,1.1540051698684692,-2.4871826171875,-3.5400390625,0.9918212890625
0.9899998999999999,-9.856928825378418,-0.3447650372982025,1.259350061416626,-5.645751953125,-1.64794921875,6.3629150390625
1.0099999,-9.955090522766113,-0.4668693244457245,1.3192051649093628,-8.087158203125,-0.7171630859375,10.55908203125
1.0299999,-10.022128105163574,-0.49799394607543945,1.3215993642807007,-8.514404296875,-1.3275146484375,12.725830078125
1.0499999,-10.014945983886719,-0.40462008118629456,1.2521674633026123,-8.4381103515625,-1.953125,14.2669677734375
1.0699999,-9.99100399017334,-0.1843535304069519,1.1635819673538208,-8.1787109375,-2.6092529296875,14.251708984375
1.0899999,-9.931148529052734,0.12210428714752197,1.094150185585022,-7.904052734375,-3.4942626953125,10.894775390625
1.1099999,-9.90241813659668,0.47644615173339844,1.0749965906143188,-8.11767578125,-4.5623779296875,7.0343017578125
1.1299999,-9.8784761428833,0.7733271718025208,1.1061211824417114,-8.6212158203125,-4.241943359375,4.364013671875
1.1499999,-9.864110946655273,0.9768342971801758,1.1851298809051514,-8.8958740234375,-2.9296875,0.8697509765625
1.1699998999999999,-9.86889934539795,1.0127472877502441,1.2737152576446533,-7.8582763671875,-3.0975341796875,-1.0223388671875
1.1899998999999999,-9.816226959228516,0.9481038451194763,1.3120225667953491,-6.1492919921875,-2.777099609375,0.2593994140625
1.2099999,-9.852140426635742,0.8212111592292786,1.3048399686813354,-3.753662109375,3.96728515625,7.8125
1.2299999,-9.823410034179688,0.6799532771110535,1.2306196689605713,-1.5869140625,4.4403076171875,10.223388671875
1.2499999,-9.859322547912598,0.5506663918495178,1.139639973640442,0.3662109375,1.6326904296875,4.94384765625
1.2699999,-9.895236015319824,0.47884035110473633,1.1228805780410767,3.0517578125,-2.7008056640625,1.953125
1.2899999,-9.86889934539795,0.42856210470199585,1.1492167711257935,6.2713623046875,-3.5858154296875,1.7852783203125
1.3099999,-9.885659217834473,0.42856210470199585,1.2832920551300049,11.016845703125,-0.06103515625,4.3792724609375
1.3299999,-9.813833236694336,0.45010992884635925,1.4245500564575195,13.00048828125,-2.9754638671875,-0.0762939453125
1.3499999,-9.749189376831055,0.45489832758903503,1.558625340461731,12.3748779296875,-3.631591796875,-5.767822265625
1.3699999,-9.605537414550781,0.37828385829925537,1.6663644313812256,9.3231201171875,-0.4730224609375,-6.591796875
1.3899999,-9.543288230895996,0.26575639843940735,1.7884687185287476,1.312255859375,3.90625,-4.6539306640625
1.4099999,-9.57441234588623,0.07182604819536209,1.9033904075622559,-12.39013671875,9.9945068359375,-1.2054443359375
1.4299998999999999,-9.493009567260742,0.0071826050989329815,1.965639591217041,-25.6805419921875,13.916015625,-3.570556640625
1.4499999,-9.725247383117676,-0.047884032130241394,1.9321208000183105,-30.4412841796875,19.683837890625,7.4462890625
1.4699999,-9.737217903137207,0.0694318488240242,1.7310078144073486,-29.7088623046875,19.83642578125,9.8724365234375
1.4899999,-9.909601211547852,0.24420857429504395,1.4077905416488647,-25.177001953125,17.5323486328125,8.1939697265625
1.5099999,-10.079588890075684,0.4620809257030487,1.0103530883789062,-15.3656005859375,13.5650634765625,4.57763671875
1.5299999,-10.170568466186523,0.667982280254364,0.629675030708313,-3.35693359375,7.110595703125,0.8087158203125
1.5499999,-10.168174743652344,0.8379706144332886,0.31842881441116333,4.302978515625,0.7476806640625,-2.960205078125
1.5699999,-10.098742485046387,0.9433154463768005,0.10055647045373917,7.87353515625,-4.1656494140625,-7.2174072265625
1.5899999,-10.031704902648926,0.9624691009521484,0.021547814831137657,11.23046875,-9.2926025390625,-11.6729736328125
1.6099999,-10.02691650390625,0.8954314589500427,0.12928688526153564,12.7410888671875,-13.5650634765625,-12.908935546875
1.6299999,-10.065223693847656,0.7374141216278076,0.33997663855552673,10.8184814453125,-14.617919921875,-10.9405517578125
1.6499999,-10.091560363769531,0.4884171485900879,0.5937620401382446,10.55908203125,-14.8468017578125,-9.063720703125
1.6699999,-10.062829971313477,0.18914192914962769,0.8667010068893433,13.6871337890625,-16.6778564453125,-7.2174072265625
1.6899998999999999,-9.974244117736816,-0.090979665517807,1.0893617868423462,14.7705078125,-17.6544189453125,-3.41796875
1.7099999,-9.876082420349121,-0.2513911724090576,1.2713210582733154,12.0086669921875,-15.9149169921875,0.579833984375
1.7299999,-9.835380554199219,-0.2585737705230713,1.403002142906189,9.246826171875,-14.5263671875,1.556396484375
1.7499999,-9.86650562286377,-0.1149216815829277,1.5131354331970215,7.4462890625,-15.0146484375,1.40380859375
1.7699999,-9.923966407775879,0.11252748221158981,1.5849615335464478,3.6773681640625,-14.2669677734375,2.532958984375
1.7899999,-9.95748519897461,0.31364041566848755,1.6280571222305298,-1.0833740234375,-12.0849609375,3.875732421875
1.8099999,-9.931148529052734,0.42856210470199585,1.6639702320098877,-2.3193359375,-11.29150390625,3.4027099609375
1.8299999,-9.849745750427246,0.4812345504760742,1.6687586307525635,-1.15966796875,-11.4898681640625,2.3956298828125
1.8499999,-9.770736694335938,0.5147533416748047,1.6376339197158813,0.1068115234375,-11.6119384765625,1.6326904296875
1.8699999,-9.746794700622559,0.5267243981361389,1.6184803247451782,1.800537109375,-12.420654296875,0.30517578125
1.8899999,-9.770736694335938,0.5434837937355042,1.6041151285171509,3.0059814453125,-13.153076171875,-0.732421875
1.9099999,-9.797073364257812,0.5578489899635315,1.6376339197158813,3.8909912109375,-13.4124755859375,-1.2969970703125
1.9299998999999999,-9.818621635437012,0.5530605912208557,1.7310078144073486,4.7607421875,-12.9547119140625,-2.044677734375
1.9499999,-9.816226959228516,0.5099649429321289,1.845929503440857,4.2572021484375,-11.04736328125,-2.8533935546875
1.9699999,-9.801861763000488,0.42377370595932007,1.944091796875,5.035400390625,-9.735107421875,-2.6092529296875
1.9899999,-9.787496566772461,0.3495534360408783,2.0685901641845703,7.4005126953125,-9.765625,-1.28173828125
2.0099999,-9.775525093078613,0.2825157940387726,2.1930887699127197,6.8359375,-7.75146484375,0.0762939453125
2.0299999,-9.770736694335938,0.27054479718208313,2.3319525718688965,2.9144287109375,-2.8533935546875,0.5035400390625
2.0499999,-9.751583099365234,0.3016694188117981,2.456450939178467,-0.0152587890625,1.2969970703125,0.579833984375
2.0699999,-9.706093788146973,0.37828385829925537,2.499546527862549,-0.9613037109375,3.2806396484375,0.42724609375
2.0899999,-9.641449928283691,0.45489832758903503,2.4157495498657227,-1.77001953125,4.4097900390625,-0.6103515625
2.1099999,-9.59835433959961,0.5267243981361389,2.2457611560821533,-1.7242431640625,4.6234130859375,-2.3040771484375
2.1299999,-9.612719535827637,0.5578489899635315,2.049436569213867,0.1373291015625,3.0975341796875,-3.5247802734375
2.1499999,-9.667786598205566,0.5410895943641663,1.8722656965255737,1.922607421875,1.373291015625,-3.509521484375
2.1699999,-9.727641105651855,0.49559974670410156,1.7764976024627686,1.6326904296875,0.3204345703125,-3.173828125
2.1899999,-9.782708168029785,0.3998316824436188,1.7477672100067139,-0.823974609375,0.9765625,-3.3416748046875
2.2099999,-9.801861763000488,0.28730419278144836,1.8387469053268433,-1.6937255859375,1.64794921875,-2.7008056640625
2.2299999,-9.804255485534668,0.16998831927776337,1.9081788063049316,-3.8909912109375,1.7852783203125,-0.1373291015625
2.2499999,-9.787496566772461,0.05027823522686958,1.9800047874450684,-5.6915283203125,2.5482177734375,2.3651123046875
2.2699999,-9.787496566772461,-0.040701430290937424,1.987187385559082,-3.9520263671875,2.5482177734375,3.1280517578125
2.2899999,-9.775525093078613,-0.05506663769483566,1.9177556037902832,0.6103515625,1.9683837890625,3.2806396484375
2.3099999,-9.80904483795166,-0.0071826050989329815,1.8387469053268433,5.7525634765625,-0.579833984375,4.150390625
2.3299999,-9.84256362915039,0.1388636976480484,1.7262194156646729,9.246826171875,-3.387451171875,4.0435791015625
2.3499999,-9.823410034179688,0.3711012601852417,1.6543933153152466,9.46044921875,-4.608154296875,2.227783203125
2.3699999,-9.864110946655273,0.5410895943641663,1.5298948287963867,9.27734375,-6.65283203125,0.335693359375
2.3899999,-9.794678688049316,0.7613561153411865,1.5921441316604614,11.0015869140625,-9.5977783203125,-0.457763671875
2.4099999,-9.780313491821289,0.8427590131759644,1.8124107122421265,7.1868896484375,-7.9345703125,-0.0457763671875
2.4299999,-9.679757118225098,0.9217676520347595,2.188300371170044,-5.8135986328125,-1.7242431640625,-0.42724609375
2.4499999,-9.576807022094727,0.8643068075180054,2.647987127304077,-18.0816650390625,5.859375,-1.861572265625
2.4699999,-9.481039047241211,0.7015010714530945,2.9161376953125,-22.430419921875,11.6424560546875,-2.197265625
2.4899999,-9.47146224975586,0.42377370595932007,2.8419175148010254,-19.5159912109375,14.0838623046875,-0.518798828125
2.5099999,-9.57201862335205,0.07182604819536209,2.5091233253479004,-11.29150390625,12.8021240234375,1.9378662109375
2.5299999,-9.75397777557373,-0.10773907601833344,1.9105730056762695,-0.5645751953125,5.7525634765625,4.119873046875
2.5499999,-9.928754806518555,-0.16998831927776337,1.4077905416488647,8.5906982421875,-1.9683837890625,4.5928955078125
2.5699999,-10.043676376342773,0.011971008032560349,0.9385270476341248,14.3585205078125,-7.904052734375,4.119873046875
2.5899999,-10.0580415725708,0.33758243918418884,0.7398083209991455,17.913818359375,-13.153076171875,2.5177001953125
2.6099999,-10.005369186401367,0.6488286852836609,0.8068459630012512,20.4925537109375,-18.951416015625,0.946044921875
2.6299999,-9.931148529052734,0.933738648891449,1.170764684677124,17.4713134765625,-21.575927734375,-2.471923828125
2.6499999,-9.823410034179688,1.0414776802062988,1.678335428237915,9.521484375,-16.9219970703125,-6.439208984375
2.6699999,-9.674968719482422,0.9816226959228516,2.2026655673980713,3.9520263671875,-12.2222900390625,-9.2010498046875
2.6899999,-9.524134635925293,0.7972691655158997,2.6455929279327393,2.593994140625,-6.6680908203125,-8.72802734375
2.7099999,-9.435548782348633,0.5530605912208557,2.8634653091430664,-1.007080078125,-0.1678466796875,-3.631591796875
2.7299999,-9.418789863586426,0.272938996553421,3.0142998695373535,-9.0789794921875,5.157470703125,0.7476806640625
2.7499999,-9.526528358459473,0.10534487664699554,2.9712042808532715,-14.58740234375,8.4686279296875,3.326416015625
2.7699999,-9.636661529541016,0.028730420395731926,2.786850690841675,-14.4195556640625,7.6446533203125,6.103515625
2.7899999,-9.75397777557373,0.06703764945268631,2.4827871322631836,-9.796142578125,4.0283203125,8.1634521484375
2.8099999,-9.9000244140625,0.18914192914962769,2.0446481704711914,-3.326416015625,-3.23486328125,7.080078125
2.8299999,-9.983820915222168,0.2944868206977844,1.7166426181793213,5.3863525390625,-10.92529296875,1.9989013671875
2.8499999,-10.002974510192871,0.40701428055763245,1.4748282432556152,14.495849609375,-16.021728515625,-2.227783203125
2.8699999,-9.895236015319824,0.47405192255973816,1.525106430053711,17.2119140625,-13.85498046875,-3.204345703125
2.8899999,-9.75637149810791,0.524330198764801,1.7094600200653076,12.87841796875,-9.033203125,-1.2054443359375
2.9099999,-9.548076629638672,0.646434485912323,2.432508945465088,-3.021240234375,-1.678466796875,1.03759765625
2.9299999,-9.53849983215332,0.6416460275650024,2.7030537128448486,-8.6822509765625,1.1749267578125,2.4871826171875
2.9499999,-9.59596061706543,0.689530074596405,2.7964274883270264,-10.223388671875,1.5869140625,4.0435791015625
2.9699999,-9.622296333312988,0.5913678407669067,2.782062292098999,-6.317138671875,-1.6021728515625,2.9449462890625
2.9899999,-9.672574996948242,0.5386953949928284,2.6647465229034424,-0.8544921875,-2.6397705078125,-0.946044921875
3.0099999,-9.648633003234863,0.47165772318840027,2.5450363159179688,3.1585693359375,-2.2430419921875,-4.94384765625
3.0299999,-9.569623947143555,0.4189853072166443,2.473210334777832,5.7830810546875,1.7547607421875,-6.1798095703125
3.0499999,-9.545681953430176,0.4572925269603729,2.3750481605529785,5.3253173828125,5.3863525390625,-2.838134765625
3.0699999,-9.48343276977539,0.47165772318840027,2.3798365592956543,1.6021728515625,6.439208984375,-1.6326904296875
3.0899999,-9.560047149658203,0.47405192255973816,2.2457611560821533,-0.457763671875,5.6304931640625,-1.6632080078125
3.1099999,-9.607931137084961,0.47884035110473633,2.190694570541382,0.9918212890625,2.7313232421875,-0.9307861328125
3.1299999,-9.68694019317627,0.43335050344467163,2.0853497982025146,4.180908203125,-1.953125,0.9765625
3.1499999,-9.751583099365234,0.4620809257030487,2.013523578643799,7.4310302734375,-6.7138671875,0.7171630859375
3.1699999,-9.782708168029785,0.4189853072166443,2.1140801906585693,8.30078125,-7.293701171875,-3.021240234375
3.1899999,-9.75397777557373,0.42377370595932007,2.2601263523101807,5.5694580078125,-3.6468505859375,-5.67626953125
3.2099999,-9.636661529541016,0.3232172429561615,2.492363929748535,1.922607421875,3.4637451171875,-3.90625
3.2299999,-9.576807022094727,0.33997663855552673,2.650381326675415,-1.434326171875,7.476806640625,0.946044921875
3.2499999,-9.485827445983887,0.28730419278144836,2.7246015071868896,-5.8135986328125,8.7738037109375,3.3416748046875
3.2699999,-9.555258750915527,0.3998316824436188,2.6647465229034424,-9.4757080078125,9.46044921875,4.547119140625
3.2899999,-9.607931137084961,0.45010992884635925,2.5043349266052246,-10.1318359375,7.8277587890625,5.67626953125
3.3099999,-9.72285270690918,0.5506663918495178,2.319981336593628,-6.866455078125,2.9449462890625,6.7901611328125
3.3299999000000002,-9.804255485534668,0.5746083855628967,2.097320795059204,-2.8076171875,-2.5634765625,4.9896240234375
3.3499999,-9.832986831665039,0.5578489899635315,2.0231003761291504,-1.0833740234375,-4.730224609375,1.0223388671875
3.3699999,-9.804255485534668,0.5123591423034668,2.006340980529785,-2.349853515625,-2.410888671875,-2.410888671875
3.3899999,-9.720458984375,0.43335050344467163,2.1523873805999756,-4.1656494140625,2.6702880859375,-1.312255859375
3.4099999,-9.617507934570312,0.3758896589279175,2.2625205516815186,-4.69970703125,4.9591064453125,4.3487548828125
3.4299999,-9.569623947143555,0.395043283700943,2.389413356781006,-6.16455078125,4.791259765625,6.6986083984375
3.4499999,-9.581595420837402,0.4141969084739685,2.4205379486083984,-7.3089599609375,4.94384765625,6.3018798828125
3.4699999,-9.624691009521484,0.5722141861915588,2.360682964324951,-5.096435546875,3.4027099609375,5.2032470703125
3.4899999,-9.706093788146973,0.6919242739677429,2.279279947280884,-2.01416015625,-1.0986328125,4.8370361328125
3.5099999,-9.763554573059082,0.8571242094039917,2.205059766769409,-0.244140625,-5.1116943359375,2.9449462890625
3.5299999,-9.806650161743164,0.9265560507774353,2.142810583114624,0.06103515625,-5.9967041015625,-2.1209716796875
3.5499999,-9.770736694335938,0.8882488012313843,2.22660756111145,-0.732421875,-2.0599365234375,-6.0272216796875
3.5699999,-9.66539192199707,0.8020575642585754,2.293645143508911,-1.6021728515625,3.0975341796875,-6.9122314453125
3.5899999,-9.588777542114258,0.569819986820221,2.3726539611816406,-1.3885498046875,6.866455078125,-1.89208984375
3.6099999,-9.567230224609375,0.4668693244457245,2.4372973442077637,0.2899169921875,5.9814453125,1.312255859375
3.6299999,-9.57201862335205,0.3447650372982025,2.432508945465088,0.2593994140625,5.0811767578125,1.6326904296875
3.6499999,-9.655815124511719,0.3711012601852417,2.360682964324951,-0.5645751953125,5.859375,1.861572265625
3.6699999,-9.670180320739746,0.47644615173339844,2.2912509441375732,0.244140625,2.3193359375,1.64794921875
3.6899999,-9.739612579345703,0.5482721924781799,2.1811177730560303,2.3651123046875,-3.2958984375,1.77001953125
3.7099999,-9.770736694335938,0.6943184733390808,2.161964178085327,2.0294189453125,-4.6844482421875,-1.0528564453125
3.7299999,-9.792284965515137,0.646434485912323,2.121262788772583,-1.2969970703125,-1.8463134765625,-4.241943359375
3.7499999,-9.734824180603027,0.5889736413955688,2.212242364883423,-1.7242431640625,1.953125,-4.547119140625
3.7699999,-9.66299819946289,0.4405331015586853,2.2002713680267334,1.9989013671875,3.448486328125,-1.9989013671875
3.7899999,-9.63187313079834,0.33518823981285095,2.2385785579681396,4.5623779296875,1.6632080078125,2.9754638671875
3.8099999,-9.634267807006836,0.3471592366695404,2.1739351749420166,2.0294189453125,1.190185546875,3.8604736328125
3.8299999000000002,-9.672574996948242,0.49799394607543945,2.1284453868865967,-3.5552978515625,3.0364990234375,3.570556640625
3.8499999,-9.720458984375,0.7086837291717529,2.0470423698425293,-8.1024169921875,4.302978515625,3.8909912109375
3.8699999,-9.66299819946289,0.8427590131759644,2.10210919380188,-10.2386474609375,1.77001953125,3.4332275390625
3.8899999,-9.701305389404297,0.9481038451194763,2.1284453868865967,-9.735107421875,0.3814697265625,1.9073486328125
3.9099999,-9.68694019317627,0.768538773059845,2.2361843585968018,-6.988525390625,-0.3662109375,-1.312255859375
3.9299999,-9.706093788146973,0.6320692300796509,2.2218191623687744,-3.1890869140625,1.15966796875,-3.143310546875
3.9499999,-9.658209800720215,0.40462008118629456,2.2433669567108154,0.732421875,4.0130615234375,-2.9296875
3.9699999,-9.679757118225098,0.3256114423274994,2.0925323963165283,4.058837890625,2.838134765625,0.030517578125
3.9899999,-9.66299819946289,0.3687070608139038,2.056619167327881,2.9144287109375,1.2664794921875,2.105712890625
4.0099999,-9.68933391571045,0.5315127968788147,2.0374655723571777,-3.11279296875,2.349853515625,0.8544921875
4.029999900000001,-9.701305389404297,0.727837324142456,2.0470423698425293,-7.049560546875,2.960205078125,0.18310546875
4.0499999,-9.744400978088379,0.8068459630012512,2.118868589401245,-5.859375,0.823974609375,-0.823974609375
4.069999900000001,-9.713275909423828,0.8619126081466675,2.078166961669922,-0.885009765625,-4.608154296875,-2.777099609375
4.0899999000000005,-9.801861763000488,0.7422025203704834,2.0661959648132324,6.53076171875,-9.124755859375,-2.50244140625
4.1099999,-9.813833236694336,0.6200982332229614,1.9800047874450684,12.8173828125,-10.6964111328125,-5.615234375
4.1299999000000005,-9.804255485534668,0.42616790533065796,2.0254945755004883,15.68603515625,-8.2244873046875,-6.7291259765625
4.1499999,-9.72285270690918,0.2968810200691223,2.121262788772583,15.5487060546875,-4.547119140625,-4.7760009765625
4.1699999000000005,-9.639056205749512,0.21787235140800476,2.3271639347076416,11.3372802734375,-1.861572265625,-0.5950927734375
4.1899999,-9.548076629638672,0.33279404044151306,2.5306711196899414,1.4801025390625,2.1209716796875,1.8157958984375
4.209999900000001,-9.552865028381348,0.4908113479614258,2.676717519760132,-10.3912353515625,7.9498291015625,2.0904541015625
4.2299999,-9.53849983215332,0.751779317855835,2.760514497756958,-18.7530517578125,11.3677978515625,1.4190673828125
4.249999900000001,-9.605537414550781,0.8882488012313843,2.7006595134735107,-21.1181640625,9.307861328125,-0.1068115234375
4.2699999,-9.651026725769043,0.8810662031173706,2.535459518432617,-17.425537109375,5.401611328125,-1.0223388671875
4.289999900000001,-9.77791976928711,0.6727706789970398,2.276885747909546,-7.354736328125,0.5950927734375,-0.8544921875
4.3099999,-9.84495735168457,0.4668693244457245,1.9488801956176758,4.39453125,-5.06591796875,-2.2430419921875
4.329999900000001,-9.888052940368652,0.19871874153614044,1.7717092037200928,13.36669921875,-6.1492919921875,-4.1961669921875
4.3499999,-9.84495735168457,0.10773907601833344,1.659181833267212,16.6473388671875,-5.6915283203125,-3.9825439453125
4.369999900000001,-9.780313491821289,0.11252748221158981,1.802833914756775,14.09912109375,-4.21142578125,-0.9307861328125
4.3899999,-9.691728591918945,0.33279404044151306,2.0039467811584473,6.16455078125,-2.166748046875,-0.0457763671875
4.409999900000001,-9.588777542114258,0.5841852426528931,2.3702597618103027,-3.84521484375,1.9989013671875,0.9307861328125
4.4299999,-9.564835548400879,0.8906430602073669,2.540247917175293,-14.129638671875,7.659912109375,-0.06103515625
4.449999900000001,-9.521739959716797,1.0103530883789062,2.782062292098999,-18.6309814453125,9.3994140625,-1.495361328125
4.4699999,-9.586383819580078,0.9409212470054626,2.736572504043579,-15.13671875,5.5694580078125,-1.9378662109375
4.489999900000001,-9.68694019317627,0.7326257228851318,2.5546131134033203,-7.32421875,2.777099609375,-0.1373291015625
4.5099999,-9.758766174316406,0.3758896589279175,2.27209734916687,0.9307861328125,-2.410888671875,0.48828125
4.529999900000001,-9.86889934539795,0.16998831927776337,1.9345149993896484,8.2855224609375,-5.2947998046875,-1.8310546875
4.5499999,-9.813833236694336,0.002394201699644327,1.7573440074920654,13.48876953125,-6.34765625,-1.8310546875
4.569999900000001,-9.8784761428833,0.040701430290937424,1.6759412288665771,13.946533203125,-6.0272216796875,-0.8392333984375
4.5899999000000005,-9.75397777557373,0.22505496442317963,1.8315643072128296,9.857177734375,-4.94384765625,0.7476806640625
4.609999900000001,-9.749189376831055,0.5123591423034668,2.094926595687866,2.38037109375,-2.5482177734375,1.190185546875
4.6299999000000005,-9.641449928283691,0.8092401623725891,2.425326347351074,-6.7901611328125,1.2359619140625,-0.0762939453125
4.6499999,-9.68694019317627,1.0582371950149536,2.6192567348480225,-13.00048828125,5.4473876953125,-1.7547607421875
4.6699999000000005,-9.718064308166504,1.048660397529602,2.7724854946136475,-10.9100341796875,3.35693359375,-3.7994384765625
4.6899999,-9.830592155456543,0.950498104095459,2.6623523235321045,-3.4027099609375,-1.678466796875,-3.8909912109375
4.709999900000001,-9.914389610290527,0.6607996821403503,2.5043349266052246,4.974365234375,-4.638671875,-3.0517578125
4.7299999,-9.940725326538086,0.4141969084739685,2.3271639347076416,13.1988525390625,-6.0577392578125,-5.43212890625
4.749999900000001,-9.931148529052734,0.2322375625371933,2.231395959854126,20.0653076171875,-6.3018798828125,-7.5836181640625
4.7699999,-9.81143856048584,0.21547815203666687,2.2361843585968018,21.331787109375,-5.1727294921875,-8.880615234375
4.789999900000001,-9.742006301879883,0.2513911724090576,2.293645143508911,18.1427001953125,-2.2125244140625,-6.5460205078125
4.8099999,-9.533711433410645,0.3998316824436188,2.4013843536376953,12.5274658203125,-0.091552734375,-8.60595703125
4.829999900000001,-9.493009567260742,0.49559974670410156,2.5043349266052246,6.927490234375,1.9989013671875,-7.2174072265625
4.8499999,-9.411606788635254,0.49559974670410156,2.4851813316345215,2.25830078125,5.9661865234375,-6.3629150390625
4.869999900000001,-9.44991397857666,0.42856210470199585,2.4899697303771973,6.8511962890625,4.058837890625,-4.0283203125
4.8899999,-9.476250648498535,0.31842881441116333,2.4205379486083984,11.932373046875,-1.434326171875,-3.3721923828125
4.909999900000001,-9.50498104095459,0.22505496442317963,2.3942017555236816,5.7525634765625,0.1068115234375,-2.8228759765625
4.9299999,-9.536105155944824,0.2106897532939911,2.454056739807129,-3.2501220703125,3.4942626953125,-1.2054443359375
4.949999900000001,-9.57441234588623,0.22026655077934265,2.535459518432617,-9.9029541015625,6.8359375,0.701904296875
4.9699999,-9.617507934570312,0.22505496442317963,2.585737943649292,-11.4288330078125,9.0179443359375,1.953125
4.989999900000001,-9.643844604492188,0.2059013396501541,2.580949544906616,-9.1400146484375,8.9874267578125,2.25830078125
5.0099999,-9.655815124511719,0.1843535304069519,2.5115175247192383,-6.28662109375,8.7127685546875,2.227783203125
5.029999900000001,-9.68694019317627,0.18914192914962769,2.4157495498657227,-4.45556640625,8.880615234375,2.2735595703125
5.0499999,-9.72285270690918,0.22026655077934265,2.3367409706115723,-4.1351318359375,9.0179443359375,2.3956298828125
5.069999900000001,-9.746794700622559,0.2992752194404602,2.279279947280884,-6.16455078125,8.6212158203125,3.11279296875
5.0899999000000005,-9.742006301879883,0.395043283700943,2.250549554824829,-8.758544921875,9.8419189453125,3.8909912109375
5.109999900000001,-9.710882186889648,0.47405192255973816,2.2194249629974365,-9.552001953125,11.474609375,5.3863525390625
5.1299999000000005,-9.718064308166504,0.5195417404174805,2.1978771686553955,-9.27734375,12.0697021484375,5.9814453125
5.1499999,-9.770736694335938,0.5410895943641663,2.169146776199341,-9.8419189453125,12.0849609375,3.509521484375
5.1699999000000005,-9.861717224121094,0.5147533416748047,2.118868589401245,-9.7503662109375,10.8795166015625,1.3275146484375
5.1899999,-10.041281700134277,0.5171475410461426,2.0638017654418945,-6.866455078125,10.009765625,1.312255859375
5.209999900000001,-10.333374977111816,0.45250412821769714,1.987187385559082,-3.6773681640625,5.2032470703125,-2.99072265625
5.2299999,-10.680533409118652,0.40222588181495667,1.9129672050476074,-1.6632080078125,-0.732421875,-13.6871337890625
5.249999900000001,-11.046846389770508,0.28730419278144836,1.8363527059555054,2.3193359375,-0.8697509765625,-17.6239013671875
5.2699999,-11.207258224487305,0.17238251864910126,1.7501614093780518,8.1634521484375,-0.030517578125,-15.960693359375
5.289999900000001,-11.073183059692383,0.10534487664699554,1.6639702320098877,14.2974853515625,1.15966796875,-12.1307373046875
5.3099999,-10.716446876525879,0.14604631066322327,1.6089035272598267,17.4407958984375,2.3345947265625,-7.5225830078125
5.329999900000001,-10.216058731079102,0.2968810200691223,1.6352397203445435,16.4642333984375,2.5787353515625,-7.049560546875
5.3499999,-9.703699111938477,0.5171475410461426,1.7525556087493896,12.0849609375,8.056640625,-10.1470947265625
5.369999900000001,-9.265560150146484,0.7469909191131592,1.9393033981323242,5.7525634765625,12.451171875,-9.765625
5.3899999,-8.87051773071289,0.9050082564353943,2.1380221843719482,-0.8087158203125,8.3465576171875,-5.645751953125
5.409999900000001,-8.540117263793945,0.9816226959228516,2.293645143508911,-5.5694580078125,5.9356689453125,0.5950927734375
5.4299999,-8.305485725402832,0.9792284965515137,2.3750481605529785,-7.2784423828125,10.2386474609375,7.080078125
5.449999900000001,-8.216899871826172,0.9385270476341248,2.3726539611816406,-8.056640625,10.7879638671875,12.51220703125
5.4699999,-8.269572257995605,0.8619126081466675,2.3127987384796143,-9.674072265625,2.4261474609375,14.739990234375
5.489999900000001,-8.446743965148926,0.7661445140838623,2.2146365642547607,-11.2152099609375,-4.4097900390625,14.34326171875
5.5099999,-8.683769226074219,0.6488286852836609,2.1092917919158936,-11.0015869140625,-2.01416015625,12.87841796875
5.529999900000001,-8.911218643188477,0.5147533416748047,2.006340980529785,-9.2620849609375,2.7618408203125,11.4898681640625
5.5499999,-9.117119789123535,0.37828385829925537,1.922544002532959,-6.988525390625,1.495361328125,11.688232421875
5.569999900000001,-9.311050415039062,0.27054479718208313,1.86508309841156,-5.0506591796875,-1.129150390625,12.969970703125
5.5899999000000005,-9.466673851013184,0.181959331035614,1.845929503440857,-3.7841796875,-1.2664794921875,13.214111328125
5.609999900000001,-9.617507934570312,0.13407529890537262,1.845929503440857,-3.9825439453125,-2.38037109375,14.1754150390625
5.6299999000000005,-9.737217903137207,0.10534487664699554,1.8555063009262085,-4.486083984375,-6.04248046875,14.251708984375
5.6499999,-9.828198432922363,0.0933738648891449,1.8411411046981812,-3.8604736328125,-8.5906982421875,11.6729736328125
5.6699999000000005,-9.871294021606445,0.08379705995321274,1.802833914756775,-2.6092529296875,-7.110595703125,8.5601806640625
5.6899999,-9.9000244140625,0.08619125932455063,1.7357962131500244,-2.288818359375,-3.5247802734375,7.32421875
5.709999900000001,-9.907206535339355,0.090979665517807,1.6519991159439087,-2.197265625,-3.265380859375,5.7373046875
5.7299999,-9.9000244140625,0.09816227108240128,1.5682021379470825,-1.2969970703125,-6.8817138671875,3.35693359375
5.749999900000001,-9.914389610290527,0.12449848651885986,1.4939818382263184,0.6561279296875,-6.3323974609375,3.7841796875
5.7699999,-9.93354320526123,0.16759411990642548,1.4437036514282227,2.3345947265625,-1.4495849609375,5.2337646484375
5.789999900000001,-9.959878921508789,0.2346317619085312,1.4269442558288574,3.143310546875,3.0059814453125,3.7384033203125
5.8099999,-10.007762908935547,0.33279404044151306,1.4508862495422363,3.082275390625,5.0201416015625,1.0986328125
5.829999900000001,-10.067618370056152,0.4381389021873474,1.50355863571167,2.13623046875,9.368896484375,-0.6866455078125
5.8499999,-10.108319282531738,0.5386953949928284,1.5658079385757446,0.8544921875,12.451171875,-1.251220703125
5.869999900000001,-10.120290756225586,0.6248866319656372,1.6280571222305298,-0.0152587890625,11.8865966796875,-0.4119873046875
5.8899999,-10.11550235748291,0.6943184733390808,1.680729627609253,-1.068115234375,12.0391845703125,2.7618408203125
5.909999900000001,-10.137049674987793,0.7613561153411865,1.7070658206939697,-2.6702880859375,13.6871337890625,6.3323974609375
5.9299999,-10.168174743652344,0.8188169598579407,1.7070658206939697,-3.875732421875,11.505126953125,4.058837890625
5.949999900000001,-10.156203269958496,0.8619126081466675,1.6879122257232666,-3.7841796875,5.9051513671875,-0.8544921875
5.9699999,-10.077195167541504,0.8834604024887085,1.644816517829895,-2.2430419921875,6.6680908203125,-0.2288818359375
5.989999900000001,-9.919178009033203,0.8882488012313843,1.599326729774475,0.152587890625,12.8936767578125,4.2724609375
6.0099999,-9.780313491821289,0.8906430602073669,1.5634137392044067,2.0904541015625,10.9710693359375,6.77490234375
6.029999900000001,-9.797073364257812,0.8523358106613159,1.5466543436050415,3.1585693359375,-3.509521484375,5.096435546875
6.0499999,-9.847352027893066,0.7829039692878723,1.5418659448623657,4.39453125,-8.2244873046875,-1.953125
6.069999900000001,-9.979032516479492,0.6991068720817566,1.6089035272598267,7.32421875,-4.3487548828125,-0.762939453125
6.0899999000000005,-10.010157585144043,0.6153098344802856,1.6950948238372803,9.1705322265625,-6.6070556640625,5.0048828125
6.109999900000001,-9.945513725280762,0.6177040338516235,1.8363527059555054,9.82666015625,-4.669189453125,5.157470703125
6.1299999000000005,-9.885659217834473,0.6775590777397156,1.9847931861877441,8.72802734375,-1.5411376953125,5.31005859375
6.149999900000001,-9.81143856048584,0.8092401623725891,2.1356279850006104,5.18798828125,1.2664794921875,3.4637451171875
6.1699999000000005,-9.739612579345703,0.9457096457481384,2.2409727573394775,-0.6866455078125,6.0577392578125,1.89208984375
6.1899999,-9.627084732055664,1.070208191871643,2.250549554824829,-6.5460205078125,13.824462890625,2.9296875
6.209999900000001,-9.615114212036133,1.1659762859344482,2.1954829692840576,-10.3607177734375,22.2625732421875,4.94384765625
6.2299999,-9.545681953430176,1.1994950771331787,2.006340980529785,-14.34326171875,12.4664306640625,2.166748046875
6.249999900000001,-9.622296333312988,1.1851298809051514,1.7932571172714233,-15.2435302734375,9.8114013671875,-1.9989013671875
6.2699999,-9.667786598205566,1.091755986213684,1.53707754611969,-13.1378173828125,8.3465576171875,-2.8839111328125
6.289999900000001,-9.730035781860352,0.9457096457481384,1.314416766166687,-9.21630859375,6.378173828125,-2.2735595703125
6.3099999,-9.739612579345703,0.8188169598579407,1.1037269830703735,-4.4097900390625,3.60107421875,-1.8768310546875
6.329999900000001,-9.792284965515137,0.7038952708244324,0.9265560507774353,1.89208984375,-0.640869140625,0.335693359375
6.3499999,-9.84495735168457,0.6823474764823914,0.790086567401886,8.6822509765625,-5.92041015625,-0.3509521484375
6.369999900000001,-9.911994934082031,0.7254431247711182,0.7254431247711182,12.75634765625,-10.9710693359375,-0.9918212890625
6.3899999,-9.938331604003906,0.7876923680305481,0.751779317855835,13.8397216796875,-14.0838623046875,-1.2969970703125
6.409999900000001,-9.909601211547852,0.8523358106613159,0.9289502501487732,13.824462890625,-15.4571533203125,-1.40380859375
6.4299999,-9.818621635437012,0.9313444495201111,1.2449848651885986,12.4053955078125,-14.09912109375,-1.129150390625
6.449999900000001,-9.701305389404297,1.039083480834961,1.5705963373184204,9.6893310546875,-10.6048583984375,-2.4871826171875
6.4699999,-9.617507934570312,1.173158884048462,1.900996208190918,10.467529296875,-8.4686279296875,-6.2103271484375
6.489999900000001,-9.576807022094727,1.3000515699386597,2.248155355453491,10.345458984375,-5.4779052734375,-9.3841552734375
6.5099999,-9.543288230895996,1.3407529592514038,2.4636335372924805,1.03759765625,2.6092529296875,-9.2315673828125
6.529999900000001,-9.5408935546875,1.2713210582733154,2.583343744277954,-6.65283203125,8.85009765625,-8.514404296875
6.5499999,-9.591172218322754,1.070208191871643,2.5665841102600098,-4.7149658203125,9.5367431640625,-8.544921875
6.569999900000001,-9.816226959228516,0.6631938815116882,2.011129379272461,-7.32421875,10.467529296875,-3.47900390625
6.5899999000000005,-10.007762908935547,0.5363011956214905,1.6089035272598267,-7.3394775390625,6.8511962890625,-2.6397705078125
6.609999900000001,-10.125079154968262,0.49799394607543945,1.2234370708465576,0.213623046875,-0.3509521484375,-3.0517578125
6.6299999000000005,-10.14902114868164,0.5506663918495178,0.9289502501487732,7.965087890625,-5.55419921875,-3.8909912109375
6.649999900000001,-10.089165687561035,0.629675030708313,0.751779317855835,11.7645263671875,-8.7432861328125,-5.9661865234375
6.6699999000000005,-9.998186111450195,0.7038952708244324,0.7829039692878723,14.617919921875,-13.1683349609375,-8.4991455078125
6.6899999,-9.816226959228516,0.8236053586006165,0.9696516990661621,12.451171875,-15.44189453125,-8.4228515625
6.709999900000001,-9.780313491821289,0.8475474119186401,1.2832920551300049,5.1116943359375,-11.77978515625,-7.8125
6.7299999,-9.6989107131958,0.8259995579719543,1.6400281190872192,-2.13623046875,-8.209228515625,-5.584716796875
6.749999900000001,-9.727641105651855,0.7398083209991455,1.9129672050476074,-4.3792724609375,-7.4462890625,-3.8909912109375
6.7699999,-9.785101890563965,0.5937620401382446,2.1164743900299072,-1.373291015625,-9.3536376953125,-1.9073486328125
6.789999900000001,-9.806650161743164,0.4620809257030487,2.1739351749420166,2.50244140625,-10.9100341796875,-0.1068115234375
6.8099999,-9.818621635437012,0.3878606855869293,2.2170307636260986,4.9896240234375,-9.5367431640625,0
6.829999900000001,-9.75397777557373,0.3687070608139038,2.2649147510528564,5.706787109375,-7.7056884765625,-0.396728515625
6.8499999,-9.667786598205566,0.4189853072166443,2.360682964324951,3.387451171875,-5.1422119140625,-0.54931640625
6.869999900000001,-9.643844604492188,0.5626373887062073,2.408566951751709,-1.0528564453125,-1.64794921875,-1.8157958984375
6.8899999,-9.627084732055664,0.6009446382522583,2.4133553504943848,-3.7841796875,1.800537109375,-3.4942626953125
6.909999900000001,-9.648633003234863,0.7015010714530945,2.363077163696289,-3.9215087890625,3.7994384765625,-3.1585693359375
6.9299999,-9.639056205749512,0.6871358752250671,2.255337953567505,-4.94384765625,6.256103515625,-2.01416015625
6.949999900000001,-9.653421401977539,0.6560112833976746,2.1045033931732178,-6.011962890625,7.4615478515625,-1.0833740234375
6.9699999,-9.694122314453125,0.5722141861915588,1.9321208000183105,-2.4566650390625,5.2642822265625,-1.312255859375
6.989999900000001,-9.794678688049316,0.4620809257030487,1.680729627609253,5.2642822265625,-0.1068115234375,-0.4425048828125
7.0099999,-9.9000244140625,0.3711012601852417,1.4700398445129395,11.9171142578125,-5.3558349609375,1.0223388671875
7.029999900000001,-9.931148529052734,0.3711012601852417,1.2832920551300049,14.8162841796875,-8.9263916015625,1.5716552734375
7.0499999,-9.93354320526123,0.45010992884635925,1.2641384601593018,15.9759521484375,-13.0767822265625,1.6326904296875
7.069999900000001,-9.871294021606445,0.608127236366272,1.37906014919281,16.8304443359375,-17.669677734375,0.885009765625
7.0899999000000005,-9.81143856048584,0.7876923680305481,1.7190368175506592,12.298583984375,-16.021728515625,-0.67138671875
7.109999900000001,-9.701305389404297,0.8978256583213806,2.145204782485962,1.7547607421875,-9.5062255859375,-1.922607421875
7.1299999000000005,-9.593565940856934,0.9481038451194763,2.609679937362671,-8.8043212890625,-1.190185546875,-3.7994384765625
7.149999900000001,-9.452308654785156,0.8954314589500427,2.918531894683838,-15.4571533203125,6.5765380859375,-3.4637451171875
7.1699999000000005,-9.430760383605957,0.7398083209991455,3.0406360626220703,-17.6239013671875,12.3748779296875,-0.244140625
7.1899999,-9.521739959716797,0.545877993106842,2.808398485183716,-14.95361328125,12.298583984375,2.6092529296875
7.209999900000001,-9.622296333312988,0.37828385829925537,2.4875755310058594,-8.4686279296875,8.0413818359375,3.5400390625
7.2299999,-9.739612579345703,0.3758896589279175,2.1595699787139893,-2.410888671875,3.662109375,3.448486328125
7.249999900000001,-9.794678688049316,0.4596867263317108,1.8387469053268433,-1.15966796875,2.5177001953125,2.3345947265625
7.2699999,-9.81143856048584,0.6727706789970398,1.7094600200653076,-1.373291015625,0.457763671875,1.007080078125
7.289999900000001,-9.84495735168457,0.8331822156906128,1.6927006244659424,0.640869140625,-4.0130615234375,-1.953125
7.3099999,-9.84256362915039,0.9241618514060974,1.7334020137786865,3.5552978515625,-5.5999755859375,-5.3253173828125
7.329999900000001,-9.80904483795166,0.8978256583213806,1.8938134908676147,3.387451171875,-3.5400390625,-7.62939453125
7.3499999,-9.6989107131958,0.7254431247711182,2.1164743900299072,1.068115234375,3.021240234375,-8.148193359375
7.369999900000001,-9.62947940826416,0.5793967843055725,2.2242133617401123,0.091552734375,7.7972412109375,-5.2642822265625
7.3899999,-9.591172218322754,0.3663128614425659,2.3558945655822754,1.007080078125,7.293701171875,-1.6021728515625
7.409999900000001,-9.679757118225098,0.3256114423274994,2.276885747909546,0.3204345703125,6.6680908203125,0.0762939453125
7.4299999,-9.744400978088379,0.31842881441116333,2.123656988143921,-1.373291015625,5.0201416015625,1.7242431640625
7.449999900000001,-9.835380554199219,0.4572925269603729,1.8387469053268433,-0.91552734375,2.7008056640625,2.6092529296875
7.4699999,-9.856928825378418,0.5889736413955688,1.599326729774475,1.7852783203125,-2.7008056640625,2.4871826171875
7.489999900000001,-9.873687744140625,0.7254431247711182,1.3958195447921753,3.7384033203125,-6.866455078125,0.1678466796875
7.5099999,-9.854534149169922,0.7110779285430908,1.436521053314209,4.7607421875,-9.765625,-2.7618408203125
7.529999900000001,-9.77791976928711,0.7350199222564697,1.577778935432434,5.4931640625,-8.6822509765625,-5.06591796875
7.5499999,-9.66539192199707,0.608127236366272,1.889025092124939,2.838134765625,-0.9613037109375,-3.814697265625
7.569999900000001,-9.59835433959961,0.5722141861915588,2.078166961669922,-1.8768310546875,3.631591796875,-0.2288818359375
7.5899999000000005,-9.59596061706543,0.5506663918495178,2.2697031497955322,-4.608154296875,2.960205078125,0.3662109375
7.609999900000001,-9.703699111938477,0.5315127968788147,2.298433542251587,-4.7760009765625,2.0294189453125,0.9918212890625
7.6299999000000005,-9.737217903137207,0.5506663918495178,2.248155355453491,-3.570556640625,1.861572265625,2.2125244140625
7.649999900000001,-9.806650161743164,0.5674257874488831,2.1164743900299072,-1.0833740234375,-0.9307861328125,3.3416748046875
7.6699999000000005,-9.794678688049316,0.5650315880775452,1.9512743949890137,2.349853515625,-6.65283203125,2.38037109375
7.6899999,-9.828198432922363,0.5817909836769104,1.920149803161621,4.1656494140625,-9.5062255859375,-1.220703125
7.709999900000001,-9.787496566772461,0.5363011956214905,1.920149803161621,2.44140625,-7.99560546875,-4.241943359375
7.7299999,-9.718064308166504,0.5099649429321289,2.0207061767578125,0.1373291015625,-2.4871826171875,-4.1656494140625
7.749999900000001,-9.636661529541016,0.42377370595932007,2.1332337856292725,0.9765625,0.732421875,-0.5645751953125
7.7699999,-9.593565940856934,0.4165911078453064,2.207453966140747,1.861572265625,0.396728515625,2.1820068359375
7.789999900000001,-9.643844604492188,0.4572925269603729,2.2433669567108154,0.5340576171875,0.30517578125,1.8310546875
7.8099999,-9.710882186889648,0.5650315880775452,2.274491548538208,-1.1749267578125,0.18310546875,1.28173828125
7.829999900000001,-9.775525093078613,0.7182605266571045,2.255337953567505,-1.220703125,-0.8697509765625,1.0223388671875
7.8499999,-9.75637149810791,0.8140285611152649,2.2673089504241943,-0.5340576171875,-3.7841796875,1.0986328125
7.869999900000001,-9.75637149810791,0.8858546018600464,2.319981336593628,-1.556396484375,-3.72314453125,-1.800537109375
7.8899999,-9.677363395690918,0.7996633648872375,2.3750481605529785,-5.0506591796875,-1.4495849609375,-5.9356689453125
7.909999900000001,-9.622296333312988,0.6799532771110535,2.5498247146606445,-7.99560546875,3.5247802734375,-6.805419921875
7.9299999,-9.550470352172852,0.5171475410461426,2.518700122833252,-8.209228515625,10.3912353515625,-4.0435791015625
7.949999900000001,-9.567230224609375,0.36152446269989014,2.449268341064453,-5.615234375,10.9710693359375,1.1138916015625
7.9699999,-9.62947940826416,0.3232172429561615,2.229001760482788,-1.7242431640625,7.4615478515625,1.007080078125
7.989999900000001,-9.720458984375,0.3447650372982025,2.0374655723571777,0.7171630859375,3.84521484375,-0.06103515625
8.0099999,-9.787496566772461,0.4405331015586853,1.8698714971542358,1.922607421875,1.220703125,0.30517578125
8.0299999,-9.832986831665039,0.5482721924781799,1.8531121015548706,2.9296875,-2.3651123046875,0.8697509765625
8.049999900000001,-9.849745750427246,0.5578489899635315,1.8842366933822632,3.692626953125,-6.8817138671875,-0.54931640625
8.069999900000001,-9.861717224121094,0.5051765441894531,1.965639591217041,2.7313232421875,-7.8887939453125,-4.0130615234375
8.0899999,-9.80904483795166,0.3974374830722809,2.0901381969451904,0.701904296875,-4.7454833984375,-6.3934326171875
8.1099999,-9.720458984375,0.26336219906806946,2.3032219409942627,-0.7476806640625,1.007080078125,-5.2642822265625
8.129999900000001,-9.670180320739746,0.15801730751991272,2.4157495498657227,-2.3345947265625,5.7220458984375,0.7171630859375
8.149999900000001,-9.648633003234863,0.1388636976480484,2.5115175247192383,-5.3253173828125,7.2479248046875,4.302978515625
8.1699999,-9.624691009521484,0.17477671802043915,2.5115175247192383,-8.453369140625,8.7432861328125,4.7760009765625
8.1899999,-9.684545516967773,0.33039984107017517,2.3582887649536133,-10.650634765625,10.284423828125,3.814697265625
8.2099999,-9.684545516967773,0.4836287498474121,2.1811177730560303,-10.0250244140625,6.7291259765625,2.593994140625
8.229999900000001,-9.765948295593262,0.6105214357376099,2.049436569213867,-7.965087890625,1.739501953125,2.685546875
8.2499999,-9.854534149169922,0.6871358752250671,1.900996208190918,-5.3253173828125,-0.3814697265625,-0.6561279296875
8.2699999,-9.871294021606445,0.6440402865409851,1.9081788063049316,-1.6937255859375,-1.3427734375,-5.5389404296875
8.2899999,-9.825803756713867,0.47405192255973816,1.886630892753601,3.7841796875,-1.556396484375,-6.317138671875
8.309999900000001,-9.761159896850586,0.3232172429561615,1.987187385559082,8.941650390625,0.30517578125,-3.326416015625
8.3299999,-9.708487510681152,0.1412578970193863,2.078166961669922,9.9334716796875,-0.152587890625,2.593994140625
8.3499999,-9.72285270690918,0.12210428714752197,2.2194249629974365,4.45556640625,1.5106201171875,3.875732421875
8.3699999,-9.72285270690918,0.2753331959247589,2.315192937850952,-4.5318603515625,5.2947998046875,3.9215087890625
8.389999900000001,-9.732429504394531,0.4644751250743866,2.31758713722229,-9.5062255859375,4.5623779296875,3.082275390625
8.4099999,-9.68694019317627,0.6919242739677429,2.274491548538208,-8.3160400390625,1.0528564453125,1.0986328125
8.4299999,-9.765948295593262,0.7422025203704834,2.1140801906585693,-5.3863525390625,-1.3580322265625,0.732421875
8.4499999,-9.746794700622559,0.7374141216278076,2.056619167327881,-1.7547607421875,-3.1280517578125,-1.617431640625
8.469999900000001,-9.84256362915039,0.5722141861915588,1.9752163887023926,2.8533935546875,-3.570556640625,-4.486083984375
8.4899999,-9.708487510681152,0.4118026793003082,1.9704279899597168,5.828857421875,-1.28173828125,-5.0811767578125
8.5099999,-9.708487510681152,0.3208230137825012,1.9369091987609863,6.53076171875,1.2969970703125,-1.1749267578125
8.5299999,-9.627084732055664,0.24899697303771973,2.070984363555908,3.5247802734375,1.312255859375,2.899169921875
8.549999900000001,-9.63187313079834,0.4357447028160095,2.1045033931732178,-5.859375,5.279541015625,2.471923828125
8.569999900000001,-9.646238327026367,0.4908113479614258,2.2433669567108154,-15.9454345703125,10.7421875,2.532958984375
8.5899999,-9.670180320739746,0.7182605266571045,2.3127987384796143,-18.2342529296875,9.1705322265625,1.3427734375
8.6099999,-9.6989107131958,0.7374141216278076,2.185906171798706,-12.603759765625,3.3111572265625,-0.4730224609375
8.629999900000001,-9.797073364257812,0.6512228846549988,2.0254945755004883,-3.265380859375,-1.129150390625,0.0152587890625
8.649999900000001,-9.871294021606445,0.5003881454467773,1.843535304069519,4.8675537109375,-4.791259765625,-1.861572265625
8.6699999,-9.955090522766113,0.26575639843940735,1.647210717201233,11.4898681640625,-6.4239501953125,-3.6773681640625
8.6899999,-9.909601211547852,0.10773907601833344,1.6400281190872192,15.0146484375,-7.293701171875,-3.173828125
8.709999900000001,-9.825803756713867,0.08858546614646912,1.7262194156646729,13.5955810546875,-5.8746337890625,1.617431640625
8.729999900000001,-9.761159896850586,0.20111294090747833,1.8555063009262085,5.2490234375,-3.3111572265625,4.5623779296875
8.7499999,-9.68694019317627,0.4165911078453064,2.1523873805999756,-7.0343017578125,2.44140625,5.43212890625
8.7699999,-9.677363395690918,0.7015010714530945,2.3295583724975586,-16.937255859375,7.904052734375,5.218505859375
8.7899999,-9.646238327026367,0.8882488012313843,2.5306711196899414,-19.4549560546875,5.5694580078125,2.0294189453125
8.809999900000001,-9.696516990661621,0.9672574996948242,2.454056739807129,-15.7470703125,1.495361328125,-0.0457763671875
8.8299999,-9.768342971801758,0.8571242094039917,2.231395959854126,-6.2408447265625,-3.11279296875,-0.2593994140625
8.8499999,-9.818621635437012,0.6368576288223267,1.9153614044189453,4.6234130859375,-8.148193359375,-2.99072265625
8.8699999,-9.86650562286377,0.38307225704193115,1.7334020137786865,10.772705078125,-9.429931640625,-4.33349609375
8.889999900000001,-9.816226959228516,0.2825157940387726,1.7046716213226318,9.33837890625,-7.0648193359375,-5.0201416015625
8.9099999,-9.696516990661621,0.24660277366638184,1.9273324012756348,5.401611328125,-2.8533935546875,-1.1749267578125
8.9299999,-9.670180320739746,0.44532153010368347,2.1930887699127197,-0.8544921875,1.0986328125,0.8697509765625
8.9499999,-9.617507934570312,0.6440402865409851,2.564189910888672,-11.1236572265625,7.3699951171875,0.4119873046875
8.969999900000001,-9.658209800720215,0.8403648138046265,2.557007312774658,-19.1497802734375,12.2222900390625,-0.18310546875
8.9899999,-9.636661529541016,0.828393816947937,2.6144683361053467,-16.2811279296875,5.5694580078125,-3.204345703125
9.0099999,-9.66299819946289,0.6943184733390808,2.3080103397369385,-6.40869140625,-1.2359619140625,-3.2806396484375
9.0299999,-9.641449928283691,0.35434186458587646,2.032677173614502,2.6702880859375,-3.60107421875,-2.8076171875
9.049999900000001,-9.62947940826416,0.090979665517807,1.824381709098816,8.72802734375,-4.6844482421875,-5.1116943359375
9.069999900000001,-9.59835433959961,-0.1149216815829277,1.745373010635376,13.1378173828125,-5.859375,-6.4239501953125
9.0899999,-9.579200744628906,-0.12449848651885986,1.8938134908676147,13.946533203125,-2.6397705078125,-3.9520263671875
9.1099999,-9.548076629638672,0.043095629662275314,2.1140801906585693,7.965087890625,2.3956298828125,-0.3814697265625
9.129999900000001,-9.567230224609375,0.3016694188117981,2.387019157409668,-2.532958984375,8.0718994140625,1.15966796875
9.149999900000001,-9.619902610778809,0.608127236366272,2.583343744277954,-11.810302734375,11.7340087890625,0.3204345703125
9.1699999,-9.715670585632324,0.7948749661445618,2.7030537128448486,-16.8914794921875,11.810302734375,-1.2054443359375
9.1899999,-9.78989028930664,0.8954314589500427,2.58813214302063,-17.7154541015625,8.0108642578125,-2.6092529296875
9.209999900000001,-9.871294021606445,0.7038952708244324,2.387019157409668,-13.36669921875,5.523681640625,-0.9613037109375
9.229999900000001,-9.859322547912598,0.44532153010368347,2.0422539710998535,-5.9356689453125,0.1220703125,-2.044677734375
9.2499999,-9.835380554199219,0.031124621629714966,1.6831238269805908,2.3193359375,-2.0904541015625,-2.1820068359375
9.2699999,-9.806650161743164,-0.21308395266532898,1.4484920501708984,8.9874267578125,-3.1890869140625,1.068115234375
9.2899999,-9.773131370544434,-0.33039984107017517,1.3718775510787964,12.14599609375,-5.828857421875,4.9285888671875
9.309999900000001,-9.830592155456543,-0.08379705995321274,1.4772224426269531,8.8348388671875,-8.087158203125,7.1563720703125
9.3299999,-9.792284965515137,0.33279404044151306,1.824381709098816,-3.23486328125,-3.60107421875,6.8206787109375
9.3499999,-9.763554573059082,0.7374141216278076,2.212242364883423,-18.035888671875,4.1351318359375,5.37109375
9.3699999,-9.677363395690918,1.0031704902648926,2.5498247146606445,-25.360107421875,3.7078857421875,1.373291015625
9.389999900000001,-9.634267807006836,0.933738648891449,2.6862943172454834,-20.5841064453125,0.946044921875,0.30517578125
9.4099999,-9.612719535827637,0.6368576288223267,2.6886885166168213,-10.8795166015625,-1.2969970703125,0.4425048828125
9.4299999,-9.696516990661621,0.2106897532939911,2.456450939178467,-2.532958984375,0.732421875,-0.7476806640625
9.4499999,-9.694122314453125,-0.08858546614646912,2.2840683460235596,4.6234130859375,3.2958984375,0.5950927734375
9.469999900000001,-9.744400978088379,-0.2059013396501541,2.006340980529785,9.33837890625,4.1046142578125,3.8604736328125
9.4899999,-9.749189376831055,0.0071826050989329815,1.8722656965255737,7.843017578125,3.2501220703125,3.570556640625
9.5099999,-9.710882186889648,0.3280056416988373,1.8387469053268433,2.227783203125,2.6702880859375,4.1046142578125
9.5299999,-9.758766174316406,0.7350199222564697,1.7621324062347412,-3.997802734375,3.326416015625,2.044677734375
9.549999900000001,-9.765948295593262,0.9481038451194763,1.886630892753601,-7.415771484375,0.4119873046875,-0.8544921875
9.569999900000001,-9.775525093078613,1.0079588890075684,1.843535304069519,-7.5225830078125,-4.791259765625,-3.509521484375
9.5899999,-9.821015357971191,0.8547300100326538,1.9177556037902832,-5.7830810546875,-5.126953125,-1.800537109375
9.6099999,-9.787496566772461,0.5339069962501526,1.9943699836730957,-3.60107421875,-4.852294921875,-1.220703125
9.629999900000001,-9.77791976928711,0.19632454216480255,2.1140801906585693,-0.152587890625,-2.5787353515625,0.0762939453125
9.649999900000001,-9.670180320739746,-0.028730420395731926,2.2625205516815186,-0.335693359375,3.4027099609375,3.4637451171875
9.6699999,-9.660603523254395,-0.047884032130241394,2.3535003662109375,-5.9051513671875,9.5062255859375,7.6904296875
9.6899999,-9.612719535827637,0.16998831927776337,2.408566951751709,-12.908935546875,10.8642578125,7.2174072265625
9.709999900000001,-9.593565940856934,0.5003881454467773,2.3750481605529785,-16.6168212890625,8.7890625,6.0272216796875
9.729999900000001,-9.605537414550781,0.8379706144332886,2.3127987384796143,-18.7835693359375,9.552001953125,2.7923583984375
9.7499999,-9.624691009521484,0.993593692779541,2.1140801906585693,-17.2576904296875,7.9498291015625,-0.7171630859375
9.7699999,-9.730035781860352,0.993593692779541,1.9943699836730957,-6.9427490234375,1.4495849609375,-3.662109375
9.7899999,-9.859322547912598,0.7709329724311829,1.778891921043396,5.889892578125,-4.5928955078125,-3.9520263671875
9.809999900000001,-9.938331604003906,0.5363011956214905,1.7286136150360107,11.3677978515625,-5.9051513671875,-5.4168701171875
9.8299999,-9.90241813659668,0.26096799969673157,1.6543933153152466,12.8326416015625,-1.7242431640625,-6.8359375
9.8499999,-9.797073364257812,0.19393034279346466,1.6927006244659424,12.8631591796875,0.8392333984375,-6.3323974609375
9.8699999,-9.68694019317627,0.181959331035614,1.8555063009262085,8.97216796875,1.7547607421875,-2.960205078125
9.889999900000001,-9.646238327026367,0.3256114423274994,1.9584569931030273,-0.701904296875,4.669189453125,0.4119873046875
9.9099999,-9.720458984375,0.4908113479614258,2.185906171798706,-11.23046875,6.9732666015625,2.7008056640625
9.9299999,-9.720458984375,0.6129156351089478,2.2242133617401123,-15.7623291015625,7.5225830078125,1.0223388671875
9.9499999,-9.739612579345703,0.6033388376235962,2.2146365642547607,-11.4288330078125,3.4332275390625,-1.3885498046875
9.969999900000001,-9.739612579345703,0.524330198764801,2.1164743900299072,-2.227783203125,0,-1.708984375
9.9899999,-9.801861763000488,0.2849099934101105,1.9393033981323242,6.1187744140625,-2.197265625,0.7476806640625
10.0099999,-9.823410034179688,0.16759411990642548,1.867477297782898,9.918212890625,-4.1351318359375,-0.5950927734375
10.0299999,-9.871294021606445,0.10055647045373917,1.7597382068634033,11.260986328125,-2.86865234375,-2.6092529296875
10.049999900000001,-9.823410034179688,0.22026655077934265,1.766920804977417,6.5155029296875,1.5716552734375,-2.471923828125
10.069999900000001,-9.797073364257812,0.40462008118629456,1.8100165128707886,-2.4871826171875,4.5318603515625,0.091552734375
10.0899999,-9.751583099365234,0.6344634294509888,1.843535304069519,-8.392333984375,3.570556640625,0.5950927734375
10.1099999,-9.75397777557373,0.7398083209991455,1.86508309841156,-6.65283203125,-0.5950927734375,0.3814697265625
10.129999900000001,-9.787496566772461,0.7541735172271729,1.8531121015548706,-3.2196044921875,-3.1585693359375,-1.007080078125
10.149999900000001,-9.801861763000488,0.5746083855628967,1.8171991109848022,1.6021728515625,-7.598876953125,-1.800537109375
10.1699999,-9.818621635437012,0.3232172429561615,1.8291701078414917,8.6669921875,-12.481689453125,-1.1444091796875
10.1899999,-9.792284965515137,0.07182604819536209,1.9393033981323242,13.427734375,-13.824462890625,1.190185546875
10.209999900000001,-9.720458984375,-0.1173158809542656,2.166752576828003,10.894775390625,-10.2996826171875,1.0986328125
10.229999900000001,-9.588777542114258,-0.090979665517807,2.4851813316345215,2.471923828125,-0.9002685546875,0.79345703125
10.2499999,-9.478644371032715,0.07661445438861847,2.7964274883270264,-7.3089599609375,9.5977783203125,2.3651123046875
10.2699999,-9.464279174804688,0.7613561153411865,2.937685489654541,-22.247314453125,19.683837890625,2.7923583984375
10.2899999,-9.536105155944824,1.0199298858642578,2.650381326675415,-23.590087890625,17.5933837890625,0.579833984375
10.309999900000001,-9.72285270690918,1.0845733880996704,2.2601263523101807,-16.6015625,10.986328125,-2.4566650390625
10.3299999,-9.832986831665039,0.8738836050033569,1.7142484188079834,-4.82177734375,0.9918212890625,-4.058837890625
10.3499999,-9.979032516479492,0.49799394607543945,1.3431471586227417,8.60595703125,-7.293701171875,-3.35693359375
10.3699999,-10.110713958740234,0.043095629662275314,1.0606313943862915,20.32470703125,-13.00048828125,-0.823974609375
10.389999900000001,-10.122684478759766,-0.27054479718208313,1.0582371950149536,25.6500244140625,-16.265869140625,-0.48828125
10.4099999,-10.041281700134277,-0.30885201692581177,1.3239935636520386,24.7344970703125,-12.0697021484375,-0.48828125
10.4299999,-9.84495735168457,-0.023942016065120697,1.7501614093780518,14.58740234375,-2.685546875,0.0152587890625
10.4499999,-9.670180320739746,0.3711012601852417,2.2697031497955322,-1.9378662109375,6.4544677734375,1.922607421875
10.469999900000001,-9.493009567260742,0.8595184087753296,2.695871114730835,-17.6239013671875,11.0626220703125,1.678466796875
10.4899999,-9.41639518737793,1.1013327836990356,2.9305028915405273,-28.900146484375,14.0838623046875,1.708984375
10.5099999,-9.485827445983887,1.1348515748977661,2.8347349166870117,-32.1044921875,16.0675048828125,0.732421875
10.5299999,-9.593565940856934,0.8667010068893433,2.4660277366638184,-21.575927734375,10.772705078125,-0.7781982421875
10.549999900000001,-9.768342971801758,0.47644615173339844,1.8986018896102905,-0.5035400390625,-1.373291015625,-0.5340576171875
10.569999900000001,-9.964667320251465,0.10055647045373917,1.4437036514282227,17.5933837890625,-10.101318359375,1.15966796875
10.5899999,-9.99100399017334,-0.15322890877723694,1.1803414821624756,21.1029052734375,-12.7716064453125,-0.0457763671875
10.6099999,-9.952696800231934,-0.11252748221158981,1.3000515699386597,14.862060546875,-7.50732421875,-2.44140625
10.629999900000001,-9.797073364257812,0.10534487664699554,1.644816517829895,5.401611328125,-0.1983642578125,-3.11279296875
10.649999900000001,-9.641449928283691,0.38546648621559143,2.073378562927246,-4.8370361328125,5.4168701171875,0.274658203125
10.6699999,-9.5408935546875,0.7038952708244324,2.4181437492370605,-14.7857666015625,10.2691650390625,1.708984375
10.6899999,-9.567230224609375,0.849941611289978,2.580949544906616,-18.9056396484375,11.0015869140625,0.946044921875
10.709999900000001,-9.59596061706543,0.8978256583213806,2.4133553504943848,-14.34326171875,8.8348388671875,0.091552734375
10.729999900000001,-9.761159896850586,0.7230489253997803,2.2026655673980713,-5.7525634765625,4.6539306640625,-0.2288818359375
10.7499999,-9.86889934539795,0.5195417404174805,1.7932571172714233,2.9296875,-3.1280517578125,-1.1444091796875
10.7699999,-9.99100399017334,0.21308395266532898,1.4867992401123047,11.0321044921875,-7.87353515625,-0.6561279296875
10.7899999,-9.99100399017334,0.026336219161748886,1.3503297567367554,16.66259765625,-13.12255859375,-1.1749267578125
10.809999900000001,-9.979032516479492,-0.043095629662275314,1.3527239561080933,15.56396484375,-12.359619140625,-1.9989013671875
10.8299999,-9.81143856048584,0.08140286058187485,1.6160861253738403,4.8828125,-4.058837890625,-1.8463134765625
10.8499999,-9.696516990661621,0.33518823981285095,1.9584569931030273,-9.0179443359375,4.94384765625,0.9613037109375
10.8699999,-9.567230224609375,0.569819986820221,2.2625205516815186,-17.08984375,9.0789794921875,2.7008056640625
10.889999900000001,-9.567230224609375,0.7493851184844971,2.470816135406494,-19.5159912109375,8.5906982421875,3.5247802734375
10.9099999,-9.610325813293457,0.8068459630012512,2.3127987384796143,-17.6544189453125,7.3699951171875,3.3111572265625
10.9299999,-9.751583099365234,0.6344634294509888,2.1380221843719482,-7.6446533203125,2.25830078125,2.2735595703125
10.9499999,-9.861717224121094,0.42856210470199585,1.7405846118927002,7.14111328125,-8.1787109375,0.3814697265625
10.969999900000001,-9.923966407775879,0.23942017555236816,1.5179238319396973,18.951416015625,-14.09912109375,-0.030517578125
10.9899999,-9.93354320526123,0.090979665517807,1.5322890281677246,22.1405029296875,-16.05224609375,-0.6103515625
11.0099999,-9.832986831665039,0.1628057211637497,1.7597382068634033,16.0369873046875,-11.8560791015625,-3.8604736328125
11.0299999,-9.66539192199707,0.3711012601852417,2.2026655673980713,3.143310546875,-0.67138671875,-5.37109375
11.049999900000001,-9.485827445983887,0.6057330369949341,2.7030537128448486,-13.73291015625,12.359619140625,-2.838134765625
11.069999900000001,-9.404424667358398,0.7589619159698486,2.959233283996582,-25.543212890625,19.47021484375,0.3204345703125
11.0899999,-9.430760383605957,0.8451532125473022,3.0310592651367188,-27.496337890625,20.6298828125,1.5106201171875
11.1099999,-9.543288230895996,0.6943184733390808,2.7772738933563232,-22.5677490234375,16.5863037109375,2.8228759765625
11.129999900000001,-9.78989028930664,0.5602431893348694,2.231395959854126,-13.85498046875,10.7269287109375,2.777099609375
11.149999900000001,-9.911994934082031,0.33518823981285095,1.6711528301239014,-1.8463134765625,-0.0457763671875,1.3580322265625
11.1699999,-9.99339771270752,0.22026655077934265,1.1683704853057861,6.7138671875,-8.331298828125,-0.3814697265625
11.1899999,-10.08437728881836,0.12689268589019775,0.9552865028381348,7.7362060546875,-9.765625,-0.1220703125
11.209999900000001,-10.02452278137207,0.1412578970193863,1.036689281463623,3.326416015625,-9.2315673828125,-0.2288818359375
11.229999900000001,-9.90241813659668,0.2082955539226532,1.3838485479354858,-0.9765625,-5.55419921875,-1.3275146484375
11.2499999,-9.730035781860352,0.3423708379268646,1.9584569931030273,-5.0048828125,2.2430419921875,-2.5177001953125
11.2699999,-9.545681953430176,0.49320554733276367,2.3798365592956543,-14.373779296875,10.223388671875,0.4730224609375
11.2899999,-9.409213066101074,0.6799532771110535,2.782062292098999,-24.1851806640625,16.78466796875,3.3416748046875
11.309999900000001,-9.385271072387695,0.790086567401886,2.9281086921691895,-32.77587890625,19.927978515625,3.997802734375
11.3299999,-9.469067573547363,0.8451532125473022,2.734178304672241,-42.66357421875,23.6968994140625,2.8839111328125
11.3499999,-9.576807022094727,0.7613561153411865,2.561795711517334,-47.9736328125,26.1688232421875,1.3885498046875
11.3699999,-9.813833236694336,0.6033388376235962,2.006340980529785,-41.32080078125,21.392822265625,3.7384033203125
11.389999900000001,-9.974244117736816,0.3734954595565796,1.5729905366897583,-28.6102294921875,12.6495361328125,1.708984375
11.4099999,-10.137049674987793,0.16519992053508759,1.0678139925003052,-17.0135498046875,5.06591796875,-0.732421875
11.4299999,-10.182539939880371,0.1173158809542656,0.8571242094039917,-15.80810546875,1.0986328125,0.5950927734375
11.4499999,-10.110713958740234,0.11013327538967133,0.9744400978088379,-29.022216796875,2.349853515625,4.241943359375
11.469999900000001,-9.749189376831055,0.21547815203666687,1.2401964664459229,-50.4913330078125,11.260986328125,6.7596435546875
11.4899999,-9.198522567749023,0.13407529890537262,1.5945383310317993,-47.7447509765625,14.7857666015625,9.796142578125
11.5099999,-8.604761123657227,-0.09576806426048279,1.534683346748352,-17.2576904296875,6.683349609375,9.46044921875
11.5299999,-8.49941635131836,-0.3974374830722809,1.2521674633026123,19.3328857421875,-0.579833984375,9.4146728515625
11.549999900000001,-8.635885238647461,-0.30885201692581177,1.1180921792984009,48.4619140625,-16.6015625,4.7760009765625
11.569999900000001,-9.53849983215332,0.15083470940589905,1.4101848602294922,16.937255859375,-3.2501220703125,7.843017578125
11.5899999,-10.232817649841309,0.8667010068893433,2.0925323963165283,-39.794921875,21.66748046875,7.8887939453125
11.6099999,-10.848128318786621,1.6328455209732056,3.0526070594787598,-85.5865478515625,40.557861328125,7.2174072265625
11.629999900000001,-10.881647109985352,1.7932571172714233,3.354276657104492,-110.9771728515625,56.0302734375,5.43212890625
11.649999900000001,-10.644620895385742,1.5490485429763794,2.999934673309326,-105.28564453125,57.2967529296875,5.8746337890625
11.6699999,-10.362105369567871,0.8188169598579407,1.6687586307525635,-72.20458984375,42.6177978515625,8.1634521484375
11.6899999,-10.335768699645996,0.023942016065120697,0.06224924325942993,-6.3323974609375,6.866455078125,5.5999755859375
11.709999900000001,-10.505757331848145,-0.49320554733276367,-1.1827356815338135,49.6063232421875,-29.4952392578125,-2.1820068359375
11.729999900000001,-10.625467300415039,-0.4908113479614258,-1.3838485479354858,47.91259765625,-31.73828125,-4.791259765625
11.7499999,-10.453084945678711,-0.004788403399288654,-0.507570743560791,-1.1138916015625,-4.8980712890625,-1.3427734375
11.7699999,-9.955090522766113,0.5722141861915588,0.828393816947937,-46.5850830078125,23.345947265625,-0.18310546875
11.7899999,-9.622296333312988,0.8379706144332886,1.8746598958969116,-50.0946044921875,34.0576171875,5.7525634765625
11.809999900000001,-9.411606788635254,0.646434485912323,2.073378562927246,-22.0184326171875,18.6920166015625,4.791259765625
11.8299999,-9.552865028381348,0.2082955539226532,1.599326729774475,10.19287109375,2.38037109375,5.5694580078125
11.8499999,-9.72285270690918,-0.11252748221158981,0.933738648891449,27.2064208984375,-8.1329345703125,6.8817138671875
11.8699999,-9.804255485534668,-0.07900865375995636,0.5027823448181152,20.172119140625,-8.7890625,4.2266845703125
11.889999900000001,-9.761159896850586,0.2298433631658554,0.44532153010368347,-0.6256103515625,-1.3427734375,1.6632080078125
11.9099999,-9.636661529541016,0.6177040338516235,0.6129156351089478,-16.876220703125,5.462646484375,0.091552734375
11.9299999,-9.500192642211914,0.8355764150619507,0.8403648138046265,-16.5863037109375,5.6304931640625,-1.64794921875
11.9499999,-9.488221168518066,0.8355764150619507,0.9600749015808105,-4.7149658203125,3.0059814453125,-2.197265625
11.969999900000001,-9.550470352172852,0.6560112833976746,1.01753568649292,7.9193115234375,1.28173828125,-2.8839111328125
11.9899999,-9.66299819946289,0.44532153010368347,1.0821791887283325,13.00048828125,1.983642578125,-2.0294189453125
12.0099999,-9.68694019317627,0.26815059781074524,1.213860273361206,6.9427490234375,6.3323974609375,0.2899169921875
12.0299999,-9.684545516967773,0.21547815203666687,1.3886369466781616,-5.8135986328125,13.6260986328125,3.692626953125
12.049999900000001,-9.710882186889648,0.29209262132644653,1.4939818382263184,-13.2293701171875,21.1334228515625,4.39453125
12.069999900000001,-9.763554573059082,0.3974374830722809,1.4389152526855469,-8.575439453125,23.3154296875,-0.7476806640625
12.0899999,-9.885659217834473,0.5195417404174805,1.2473790645599365,-0.1678466796875,20.3399658203125,-4.45556640625
12.1099999,-9.995792388916016,0.608127236366272,1.0127472877502441,1.0986328125,20.7366943359375,-6.04248046875
12.129999900000001,-10.014945983886719,0.6584054827690125,0.790086567401886,-5.4168701171875,27.740478515625,-9.796142578125
12.149999900000001,-10.160991668701172,0.7661445140838623,0.6727706789970398,-12.847900390625,30.6396484375,-11.3525390625
12.1699999,-10.333374977111816,0.7374141216278076,0.47405192255973816,-16.693115234375,25.0396728515625,-9.27734375
12.1899999,-10.654197692871094,0.6799532771110535,0.20111294090747833,-13.1683349609375,16.815185546875,-7.01904296875
12.209999900000001,-10.960655212402344,0.48602294921875,-0.16519992053508759,-2.99072265625,8.0413818359375,-5.4168701171875
12.229999900000001,-10.991780281066895,0.17717093229293823,-0.5027823448181152,6.866455078125,0.1983642578125,-5.767822265625
12.2499999,-10.891223907470703,-0.05746084079146385,-0.7110779285430908,11.322021484375,-6.04248046875,-2.044677734375
12.2699999,-10.541669845581055,-0.2801215946674347,-0.7565677165985107,11.4593505859375,-10.711669921875,3.021240234375
12.289999900000002,-10.244789123535156,-0.3998316824436188,-0.7038952708244324,7.4005126953125,-14.739990234375,7.4005126953125
12.309999900000001,-10.041281700134277,-0.3926490843296051,-0.5410895943641663,1.4801025390625,-18.829345703125,10.223388671875
12.3299999,-9.928754806518555,-0.23942017555236816,-0.2825157940387726,2.4871826171875,-21.820068359375,10.4827880859375
12.3499999,-9.835380554199219,0.019153613597154617,0.07661445438861847,8.48388671875,-20.5535888671875,8.7738037109375
12.3699999,-9.68694019317627,0.31124621629714966,0.5219359993934631,8.3770751953125,-16.387939453125,7.171630859375
12.389999900000001,-9.521739959716797,0.608127236366272,0.9600749015808105,-0.335693359375,-10.101318359375,6.8359375
12.4099999,-9.397241592407227,0.7757213711738586,1.2832920551300049,-7.8887939453125,-3.4027099609375,5.7373046875
12.4299999,-9.349357604980469,0.8523358106613159,1.37906014919281,-6.8359375,0.335693359375,3.5858154296875
12.4499999,-9.402029991149902,0.8475474119186401,1.292868971824646,-0.54931640625,-0.7171630859375,1.5411376953125
12.469999900000001,-9.5408935546875,0.7829039692878723,1.1109095811843872,4.119873046875,-2.0599365234375,-0.2288818359375
12.4899999,-9.706093788146973,0.6536170840263367,0.9768342971801758,5.706787109375,-0.54931640625,-1.068115234375
12.5099999,-9.880870819091797,0.5027823448181152,0.9265560507774353,5.06591796875,2.8533935546875,1.007080078125
12.5299999,-10.007762908935547,0.363918662071228,0.9696516990661621,1.8157958984375,5.3253173828125,4.2877197265625
12.549999900000001,-10.105925559997559,0.31124621629714966,1.0055646896362305,-1.0223388671875,9.2010498046875,5.2947998046875
12.569999900000001,-10.132261276245117,0.35673606395721436,0.9648633003234863,-2.01416015625,11.505126953125,3.1280517578125
12.5899999,-10.086771965026855,0.4357447028160095,0.8236053586006165,-2.0599365234375,10.5743408203125,2.44140625
12.6099999,-9.99100399017334,0.5291185975074768,0.6368576288223267,-0.9002685546875,8.087158203125,3.7841796875
12.629999900000001,-9.856928825378418,0.5722141861915588,0.40222588181495667,0.762939453125,5.859375,3.60107421875
12.649999900000001,-9.792284965515137,0.6416460275650024,0.26575639843940735,3.387451171875,4.0435791015625,1.15966796875
12.6699999,-9.758766174316406,0.7015010714530945,0.22505496442317963,5.0811767578125,3.265380859375,-2.2430419921875
12.6899999,-9.801861763000488,0.730231523513794,0.2801215946674347,2.1820068359375,4.7454833984375,-2.777099609375
12.709999900000001,-9.81143856048584,0.6703764796257019,0.31364041566848755,-2.9449462890625,5.9661865234375,-0.1678466796875
12.729999900000001,-9.832986831665039,0.5985504388809204,0.3663128614425659,-3.0364990234375,3.7384033203125,2.716064453125
12.7499999,-9.852140426635742,0.5482721924781799,0.3926490843296051,3.509521484375,3.84521484375,0.6256103515625
12.7699999,-9.84495735168457,0.5626373887062073,0.45489832758903503,6.5765380859375,4.08935546875,-2.777099609375
12.789999900000002,-9.847352027893066,0.6153098344802856,0.5147533416748047,1.5106201171875,5.6610107421875,-2.471923828125
12.809999900000001,-9.835380554199219,0.629675030708313,0.5363011956214905,-5.218505859375,7.171630859375,-0.9307861328125
12.8299999,-9.832986831665039,0.6224924325942993,0.47165772318840027,-5.401611328125,5.2032470703125,-0.3509521484375
12.8499999,-9.885659217834473,0.6392518281936646,0.3734954595565796,0.457763671875,2.3345947265625,-1.7852783203125
12.8699999,-9.99100399017334,0.667982280254364,0.272938996553421,3.692626953125,0.67138671875,-4.3792724609375
12.889999900000001,-10.091560363769531,0.6943184733390808,0.17477671802043915,0.335693359375,-0.762939453125,-5.8746337890625
12.9099999,-10.225635528564453,0.6919242739677429,0.11971008777618408,-4.45556640625,-2.9144287109375,-4.7607421875
12.9299999,-10.309432983398438,0.608127236366272,0.047884032130241394,-3.5400390625,-5.55419921875,-4.0283203125
12.9499999,-10.350133895874023,0.4668693244457245,0.011971008032560349,1.7547607421875,-9.5977783203125,-3.5858154296875
12.969999900000001,-10.33098030090332,0.2968810200691223,0.05985504388809204,5.9967041015625,-12.5885009765625,-1.3885498046875
12.9899999,-10.26394271850586,0.17717093229293823,0.20111294090747833,6.1798095703125,-11.9171142578125,2.0294189453125
13.0099999,-10.192116737365723,0.15322890877723694,0.48602294921875,2.8839111328125,-8.270263671875,4.0283203125
13.0299999,-10.089165687561035,0.20111294090747833,0.8020575642585754,-3.2806396484375,-1.4495849609375,3.5400390625
13.049999900000001,-9.890447616577148,0.4213795065879822,1.3910311460494995,-13.6566162109375,2.960205078125,6.134033203125
13.069999900000001,-9.607931137084961,0.6751648783683777,1.8411411046981812,-52.2918701171875,20.69091796875,10.955810546875
13.0899999,-9.41639518737793,0.8355764150619507,2.070984363555908,-87.1429443359375,45.5780029296875,14.95361328125
13.1099999,-9.342175483703613,0.8738836050033569,1.8052281141281128,-71.014404296875,41.1834716796875,11.6424560546875
13.129999900000001,-9.533711433410645,0.6320692300796509,0.8667010068893433,-33.8134765625,23.8800048828125,9.4146728515625
13.149999900000001,-9.907206535339355,0.40701428055763245,-0.33279404044151306,7.9803466796875,1.9073486328125,9.5062255859375
13.1699999,-10.390835762023926,0.23942017555236816,-1.5059528350830078,40.34423828125,-19.5159912109375,3.8299560546875
13.1899999,-10.714052200317383,0.4357447028160095,-2.1739351749420166,58.563232421875,-35.8123779296875,-8.3160400390625
13.209999900000001,-10.886435508728027,0.8164227604866028,-2.1356279850006104,62.8814697265625,-45.2728271484375,-9.857177734375
13.229999900000001,-10.793061256408691,1.1540051698684692,-1.434126853942871,50.0946044921875,-39.2608642578125,-10.6658935546875
13.2499999,-10.371682167053223,1.3120225667953491,-0.23942017555236816,29.11376953125,-25.787353515625,-13.7176513671875
13.2699999,-9.876082420349121,1.2042834758758545,1.0223240852355957,11.29150390625,-12.02392578125,-9.70458984375
13.289999900000002,-9.404424667358398,0.9241618514060974,2.0183119773864746,0.3509521484375,-0.518798828125,-3.631591796875
13.309999900000001,-9.095572471618652,0.5889736413955688,2.451662540435791,-3.35693359375,4.7454833984375,-0.0457763671875
13.3299999,-8.99740982055664,0.3878606855869293,2.427720546722412,-0.79345703125,7.62939453125,0.9002685546875
13.3499999,-9.107542991638184,0.2801215946674347,2.0231003761291504,-3.5552978515625,12.542724609375,1.5716552734375
13.3699999,-9.363722801208496,0.304063618183136,1.4293384552001953,-6.65283203125,12.9852294921875,1.46484375
13.389999900000001,-9.660603523254395,0.40222588181495667,0.7805097699165344,-2.4261474609375,8.4228515625,-0.701904296875
13.4099999,-9.983820915222168,0.5051765441894531,0.20111294090747833,5.92041015625,-0.0152587890625,-1.3427734375
13.4299999,-10.24239444732666,0.586579442024231,-0.16519992053508759,10.528564453125,-5.889892578125,-2.8228759765625
13.4499999,-10.41956615447998,0.667982280254364,-0.21547815203666687,8.6822509765625,-6.9427490234375,-3.23486328125
13.469999900000001,-10.500968933105469,0.7254431247711182,0.023942016065120697,3.9825439453125,-3.96728515625,-3.7689208984375
13.4899999,-10.491392135620117,0.7230489253997803,0.40462008118629456,1.068115234375,0,-3.7841796875
13.5099999,-10.38604736328125,0.646434485912323,0.7469909191131592,-0.0152587890625,2.6092529296875,-2.4871826171875
13.5299999,-10.228029251098633,0.5937620401382446,0.9744400978088379,1.4190673828125,3.4637451171875,-1.3427734375
13.549999900000001,-10.02452278137207,0.5913678407669067,1.113303780555725,4.974365234375,4.5928955078125,-3.662109375
13.569999900000001,-9.823410034179688,0.6105214357376099,1.1324573755264282,3.2958984375,8.4228515625,-6.4239501953125
13.5899999,-9.68933391571045,0.6153098344802856,1.0989385843276978,-3.509521484375,13.092041015625,-6.0882568359375
13.6099999,-9.588777542114258,0.5434837937355042,1.0342950820922852,-7.4615478515625,15.1214599609375,-1.77001953125
13.629999900000001,-9.526528358459473,0.3758896589279175,0.8667010068893433,-12.8326416015625,18.5394287109375,2.2125244140625
13.649999900000001,-9.533711433410645,0.14844051003456116,0.6727706789970398,-12.8936767578125,18.4783935546875,5.8746337890625
13.6699999,-9.610325813293457,-0.016759412363171577,0.363918662071228,-2.86865234375,12.4053955078125,9.4757080078125
13.6899999,-9.780313491821289,-0.10773907601833344,-0.05985504388809204,12.0391845703125,4.6234130859375,6.40869140625
13.709999900000001,-10.098742485046387,-0.023942016065120697,-0.44532153010368347,25.6500244140625,-7.0953369140625,3.5400390625
13.729999900000001,-10.395624160766602,0.2322375625371933,-0.7038952708244324,31.1431884765625,-15.8843994140625,5.218505859375
13.7499999,-10.757147789001465,0.5841852426528931,-0.7110779285430908,29.205322265625,-13.763427734375,-0.335693359375
13.7699999,-10.960655212402344,0.871489405632019,-0.4596867263317108,26.4434814453125,-15.31982421875,2.3040771484375
13.789999900000002,-11.128249168395996,1.1803414821624756,0,19.22607421875,-12.6495361328125,-5.2947998046875
13.809999900000001,-10.888829231262207,1.1468225717544556,0.35673606395721436,13.275146484375,-17.0440673828125,-7.568359375
13.8299999,-10.57040023803711,1.091755986213684,0.7086837291717529,19.6533203125,-13.00048828125,-3.2958984375
13.8499999,-9.86889934539795,0.8451532125473022,0.9744400978088379,27.8472900390625,-13.1988525390625,-7.38525390625
13.8699999,-9.251194953918457,0.6368576288223267,1.1994950771331787,17.8375244140625,-7.476806640625,-1.9989013671875
13.889999900000001,-8.7268648147583,0.5003881454467773,1.4101848602294922,-1.15966796875,6.16455078125,-2.9296875
13.9099999,-8.485051155090332,0.40701428055763245,1.5634137392044067,-12.9852294921875,12.420654296875,2.0294189453125
13.9299999,-8.547300338745117,0.36152446269989014,1.5418659448623657,-14.16015625,17.242431640625,3.5858154296875
13.9499999,-8.920795440673828,0.2968810200691223,1.338358759880066,-9.0789794921875,17.913818359375,4.974365234375
13.969999900000001,-9.41639518737793,0.31364041566848755,0.9911994934082031,-3.6468505859375,15.6097412109375,4.2724609375
13.9899999,-10.228029251098633,0.608127236366272,0.2298433631658554,2.166748046875,8.8958740234375,1.3275146484375
14.0099999,-10.402806282043457,0.768538773059845,-0.05985504388809204,4.8980712890625,6.4239501953125,-2.8533935546875
14.0299999,-10.431536674499512,0.8882488012313843,-0.181959331035614,6.2255859375,1.77001953125,-4.4403076171875
14.049999900000001,-10.38844108581543,0.8906430602073669,-0.16998831927776337,1.64794921875,0.732421875,-3.692626953125
14.069999900000001,-10.642226219177246,0.8690952062606812,-0.090979665517807,-6.3629150390625,3.9825439453125,-1.0833740234375
14.0899999,-11.267112731933594,0.6919242739677429,-0.014365210197865963,-3.47900390625,-4.2572021484375,-5.126953125
14.1099999,-12.06198787689209,0.507570743560791,0.023942016065120697,9.1094970703125,-36.895751953125,-10.986328125
14.129999900000001,-12.895170211791992,0.23942017555236816,-0.011971008032560349,26.2908935546875,-46.4019775390625,-12.939453125
14.149999900000001,-13.151350021362305,0.06224924325942993,-0.05506663769483566,41.3055419921875,-31.402587890625,-19.744873046875
14.1699999,-12.75870132446289,0.07661445438861847,-0.033518824726343155,47.821044921875,-21.1639404296875,-31.6619873046875
14.1899999,-11.81299114227295,0.21308395266532898,0.06703764945268631,46.56982421875,-26.4739990234375,-35.919189453125
14.209999900000001,-10.563218116760254,0.42856210470199585,0.1388636976480484,44.0216064453125,-37.90283203125,-25.2532958984375
14.229999900000001,-9.29189682006836,0.6488286852836609,0.4118026793003082,46.5240478515625,-31.6619873046875,-11.3525390625
14.2499999,-8.216899871826172,0.8092401623725891,0.6991068720817566,38.2843017578125,-7.62939453125,-8.514404296875
14.2699999,-7.491456985473633,0.9409212470054626,1.1109095811843872,21.484375,11.9171142578125,-10.3302001953125
14.289999900000002,-7.182605266571045,1.01753568649292,1.501164436340332,6.1798095703125,18.768310546875,-6.53076171875
14.309999900000001,-7.220912456512451,1.0079588890075684,1.7190368175506592,-3.7994384765625,16.66259765625,-0.6866455078125
14.3299999,-7.42681360244751,0.8834604024887085,1.7142484188079834,-3.997802734375,12.87841796875,-0.3204345703125
14.3499999,-7.73087739944458,0.7038952708244324,1.5131354331970215,1.922607421875,13.4124755859375,1.0986328125
14.3699999,-8.066065788269043,0.5099649429321289,1.2306196689605713,8.544921875,9.3841552734375,7.8277587890625
14.389999900000001,-8.415618896484375,0.35913026332855225,0.9648633003234863,13.092041015625,-1.434326171875,14.2669677734375
14.4099999,-8.786720275878906,0.26815059781074524,0.7876923680305481,16.357421875,-7.7972412109375,14.8468017578125
14.4299999,-9.184157371520996,0.2513911724090576,0.706289529800415,19.53125,-7.4462890625,11.5203857421875
14.4499999,-9.526528358459473,0.2753331959247589,0.7086837291717529,22.979736328125,-7.415771484375,7.6904296875
14.469999900000001,-9.799467086791992,0.3256114423274994,0.7589619159698486,24.90234375,-10.2996826171875,6.1492919921875
14.4899999,-9.988609313964844,0.3687070608139038,0.8236053586006165,25.238037109375,-12.4664306640625,5.5389404296875
14.5099999,-10.072406768798828,0.3734954595565796,0.8762778043746948,26.2908935546875,-12.4359130859375,2.8839111328125
14.5299999,-10.062829971313477,0.33518823981285095,0.8882488012313843,28.594970703125,-10.7879638671875,-0.8392333984375
14.549999900000001,-10.012551307678223,0.26096799969673157,0.8571242094039917,31.524658203125,-8.8653564453125,-3.4942626953125
14.569999900000001,-9.955090522766113,0.16998831927776337,0.8140285611152649,34.9884033203125,-7.26318359375,-6.561279296875
14.5899999,-9.909601211547852,0.0694318488240242,0.7829039692878723,38.0859375,-5.67626953125,-10.1318359375
14.6099999,-9.916783332824707,-0.016759412363171577,0.8259995579719543,39.00146484375,-5.4168701171875,-10.68115234375
14.629999900000001,-9.947908401489258,-0.11013327538967133,0.9528923034667969,36.0870361328125,-8.453369140625,-7.75146484375
14.649999900000001,-9.981427192687988,-0.20111294090747833,1.158793568611145,29.541015625,-15.2587890625,-5.1422119140625
14.6699999,-10.038887977600098,-0.24181437492370605,1.414973258972168,22.735595703125,-16.693115234375,-5.859375
14.6899999,-10.086771965026855,-0.26336219906806946,1.6663644313812256,18.1121826171875,-8.8348388671875,-7.9498291015625
14.709999900000001,-10.139444351196289,-0.20350714027881622,1.8722656965255737,13.3819580078125,-5.2337646484375,-6.5460205078125
14.729999900000001,-10.165780067443848,-0.10055647045373917,1.9967641830444336,8.11767578125,-5.950927734375,-4.2572021484375
14.7499999,-10.139444351196289,0.043095629662275314,2.030282974243164,3.9215087890625,-4.1656494140625,-3.5858154296875
14.7699999,-10.038887977600098,0.19632454216480255,2.006340980529785,0.1678466796875,0.7171630859375,-2.0904541015625
14.789999900000002,-9.940725326538086,0.3471592366695404,1.9249382019042969,-4.852294921875,8.6822509765625,1.6632080078125
14.809999900000001,-9.897629737854004,0.4836287498474121,1.821987509727478,-10.19287109375,9.979248046875,3.4942626953125
14.8299999,-9.911994934082031,0.569819986820221,1.6950948238372803,-12.87841796875,4.7760009765625,1.708984375
14.8499999,-9.974244117736816,0.6129156351089478,1.5394717454910278,-11.383056640625,2.0599365234375,1.8310546875
14.8699999,-10.007762908935547,0.5985504388809204,1.3742717504501343,-7.4615478515625,1.5106201171875,5.615234375
14.889999900000001,-9.99339771270752,0.5530605912208557,1.2210428714752197,-3.570556640625,-1.89208984375,9.27734375
14.9099999,-9.93354320526123,0.5147533416748047,1.115697979927063,-0.8087158203125,-6.04248046875,9.2010498046875
14.9299999,-9.825803756713867,0.47405192255973816,1.0654197931289673,1.190185546875,-6.591796875,9.063720703125
14.9499999,-9.708487510681152,0.45489832758903503,1.0797849893569946,1.4801025390625,-5.67626953125,13.00048828125
14.969999900000001,-9.622296333312988,0.4644751250743866,1.139639973640442,-0.030517578125,-0.4119873046875,13.5650634765625
14.9899999,-9.581595420837402,0.47644615173339844,1.2066776752471924,-2.0294189453125,6.927490234375,6.500244140625
15.0099999,-9.5624418258667,0.4908113479614258,1.259350061416626,-3.8909912109375,9.6435546875,0.6866455078125
15.0299999,-9.53849983215332,0.5027823448181152,1.2641384601593018,-5.2490234375,10.0250244140625,2.349853515625
15.049999900000001,-9.533711433410645,0.49559974670410156,1.2210428714752197,-5.4473876953125,12.39013671875,5.5084228515625
15.069999900000001,-9.821015357971191,0.5291185975074768,1.2090718746185303,-4.82177734375,10.711669921875,1.556396484375
15.0899999,-10.129867553710938,0.5554547905921936,1.137245774269104,-4.5166015625,-3.4637451171875,-9.002685546875
15.1099999,-10.716446876525879,0.5650315880775452,1.0893617868423462,-0.8697509765625,-4.8675537109375,-5.218505859375
15.129999900000001,-11.063606262207031,0.5602431893348694,0.9983820915222168,4.3182373046875,-7.2479248046875,-0.7171630859375
15.149999900000001,-11.106701850891113,0.507570743560791,0.9002198576927185,8.4075927734375,-12.115478515625,-0.4425048828125
15.1699999,-10.81460952758789,0.4572925269603729,0.8379706144332886,12.481689453125,-14.1143798828125,-0.5950927734375
15.1899999,-10.299856185913086,0.35913026332855225,0.8451532125473022,17.242431640625,-15.2587890625,-0.1678466796875
15.209999900000001,-9.68694019317627,0.2513911724090576,0.993593692779541,20.3399658203125,-16.8914794921875,1.6937255859375
15.229999900000001,-9.330204010009766,0.19393034279346466,1.2449848651885986,19.3634033203125,-16.204833984375,1.8310546875
15.2499999,-9.193734169006348,0.20111294090747833,1.580173134803772,15.2435302734375,-10.6201171875,2.7313232421875
15.2699999,-9.394847869873047,0.33758243918418884,1.8938134908676147,9.33837890625,-6.256103515625,4.69970703125
15.289999900000002,-9.718064308166504,0.5363011956214905,2.1116859912872314,2.7008056640625,-3.9215087890625,7.01904296875
15.309999900000001,-10.012551307678223,0.7398083209991455,2.209848165512085,-4.4097900390625,-1.2969970703125,7.7972412109375
15.3299999,-10.153809547424316,0.9026140570640564,2.2146365642547607,-10.07080078125,2.0599365234375,6.7596435546875
15.3499999,-10.098742485046387,0.9911994934082031,2.1475989818573,-12.8936767578125,4.9591064453125,5.18798828125
15.3699999,-9.916783332824707,0.9983820915222168,2.0422539710998535,-12.8326416015625,6.500244140625,4.0435791015625
15.389999900000001,-9.715670585632324,0.9720458984375,1.946485996246338,-10.772705078125,7.7056884765625,3.1585693359375
15.4099999,-9.576807022094727,0.9265560507774353,1.8794482946395874,-9.1094970703125,9.9639892578125,1.6632080078125
15.4299999,-9.5408935546875,0.9050082564353943,1.8267759084701538,-8.60595703125,12.51220703125,0.091552734375
15.4499999,-9.603142738342285,0.8834604024887085,1.764526605606079,-7.6141357421875,13.427734375,-0.8544921875
15.469999900000001,-9.696516990661621,0.8690952062606812,1.656787633895874,-5.615234375,12.8021240234375,-1.6021728515625
15.4899999,-9.77791976928711,0.8331822156906128,1.5155296325683594,-4.5013427734375,12.2833251953125,-2.410888671875
15.5099999,-9.84495735168457,0.7709329724311829,1.3479355573654175,-5.06591796875,11.5814208984375,-2.777099609375
15.5299999,-9.907206535339355,0.6919242739677429,1.1444283723831177,-5.79833984375,8.97216796875,-1.495361328125
15.549999900000001,-9.974244117736816,0.6153098344802856,0.9624691009521484,-5.31005859375,4.9896240234375,0.335693359375
15.569999900000001,-10.046070098876953,0.5554547905921936,0.8259995579719543,-4.2266845703125,1.64794921875,0.762939453125
15.5899999,-10.096348762512207,0.5195417404174805,0.7541735172271729,-2.99072265625,-0.030517578125,0.640869140625
15.6099999,-10.11789608001709,0.5339069962501526,0.7613561153411865,0.6256103515625,-2.593994140625,0.91552734375
15.629999900000001,-10.113107681274414,0.5578489899635315,0.8427590131759644,6.195068359375,-5.8746337890625,0.8697509765625
15.649999900000001,-10.070012092590332,0.5937620401382446,0.9576807022094727,10.55908203125,-7.2784423828125,0.3204345703125
15.6699999,-9.998186111450195,0.6320692300796509,1.1252747774124146,11.932373046875,-6.5765380859375,0.1678466796875
15.6899999,-9.904812812805176,0.646434485912323,1.2665326595306396,11.749267578125,-5.950927734375,0.579833984375
15.709999900000001,-9.821015357971191,0.6751648783683777,1.41257905960083,11.3372802734375,-6.256103515625,1.2054443359375
15.729999900000001,-9.746794700622559,0.7469909191131592,1.5538369417190552,6.805419921875,-4.730224609375,1.15966796875
15.7499999,-9.696516990661621,0.8212111592292786,1.6663644313812256,-2.7313232421875,-0.274658203125,0.7476806640625
15.7699999,-9.658209800720215,0.8858546018600464,1.7405846118927002,-9.2315673828125,3.0364990234375,0.823974609375
15.789999900000002,-9.634267807006836,0.9097966551780701,1.7286136150360107,-7.87353515625,2.6397705078125,0.79345703125
15.809999900000001,-9.66539192199707,0.8690952062606812,1.6400281190872192,-2.5482177734375,1.251220703125,-0.6256103515625
15.8299999,-9.751583099365234,0.811634361743927,1.50355863571167,1.52587890625,0.5950927734375,-1.7547607421875
15.8499999,-9.880870819091797,0.7565677165985107,1.4053963422775269,3.1280517578125,-0.030517578125,-1.2664794921875
15.869999900000002,-9.998186111450195,0.7326257228851318,1.3623007535934448,3.1585693359375,-0.518798828125,-0.1220703125
15.889999900000001,-10.050858497619629,0.7374141216278076,1.3742717504501343,1.6937255859375,0.18310546875,-0.06103515625
15.9099999,-10.010157585144043,0.7613561153411865,1.3670891523361206,-0.0762939453125,1.129150390625,-1.15966796875
15.9299999,-9.93593692779541,0.7948749661445618,1.316810965538025,0.8392333984375,-0.640869140625,-2.2735595703125
15.9499999,-9.888052940368652,0.8331822156906128,1.2713210582733154,4.2266845703125,-4.0435791015625,-3.3416748046875
15.969999900000001,-9.890447616577148,0.8475474119186401,1.2210428714752197,5.4779052734375,-5.0811767578125,-4.241943359375
15.9899999,-9.945513725280762,0.8355764150619507,1.2425906658172607,4.7454833984375,-4.486083984375,-4.5318603515625
16.0099999,-9.971850395202637,0.8044517636299133,1.359906554222107,3.7689208984375,-4.791259765625,-3.6468505859375
16.0299999,-9.93593692779541,0.7254431247711182,1.4437036514282227,1.0986328125,-3.9215087890625,-2.4566650390625
16.0499999,-9.864110946655273,0.6703764796257019,1.5131354331970215,1.0528564453125,-2.8533935546875,-2.8839111328125
16.0699999,-9.81143856048584,0.5793967843055725,1.460463047027588,4.6234130859375,-4.8370361328125,-4.1656494140625
16.089999900000002,-9.797073364257812,0.5506663918495178,1.3718775510787964,11.6424560546875,-8.8348388671875,-4.1351318359375
16.109999900000002,-9.818621635437012,0.5410895943641663,1.2976573705673218,16.6778564453125,-11.5509033203125,-3.11279296875
16.1299999,-9.804255485534668,0.5817909836769104,1.2976573705673218,15.8538818359375,-11.322021484375,-3.5247802734375
16.1499999,-9.797073364257812,0.646434485912323,1.381454348564148,11.1541748046875,-9.1094970703125,-4.3487548828125
16.1699999,-9.742006301879883,0.751779317855835,1.6352397203445435,7.965087890625,-8.5296630859375,-4.1046142578125
16.1899999,-9.775525093078613,0.7398083209991455,1.7884687185287476,5.1727294921875,-6.1187744140625,-2.86865234375
16.2099999,-9.780313491821289,0.7230489253997803,1.944091796875,2.655029296875,-4.486083984375,-1.8157958984375
16.2299999,-9.773131370544434,0.7038952708244324,2.008735179901123,3.0364990234375,-6.3629150390625,-2.3193359375
16.249999900000002,-9.780313491821289,0.5913678407669067,2.011129379272461,5.4168701171875,-7.4310302734375,-3.509521484375
16.269999900000002,-9.715670585632324,0.5889736413955688,1.9608511924743652,6.8817138671875,-4.8065185546875,-4.21142578125
16.2899999,-9.670180320739746,0.5339069962501526,1.9393033981323242,7.0953369140625,-2.5177001953125,-4.5623779296875
16.3099999,-9.674968719482422,0.5051765441894531,1.845929503440857,7.4462890625,-0.9765625,-4.058837890625
16.3299999,-9.66299819946289,0.5147533416748047,1.766920804977417,8.0413818359375,-1.6632080078125,-2.3345947265625
16.3499999,-9.715670585632324,0.5650315880775452,1.7094600200653076,7.8887939453125,-2.74658203125,-1.77001953125
16.3699999,-9.75397777557373,0.6536170840263367,1.6759412288665771,6.9427490234375,-2.9449462890625,-3.0364990234375
16.3899999,-9.785101890563965,0.7206547260284424,1.6663644313812256,6.3934326171875,-4.39453125,-4.058837890625
16.4099999,-9.797073364257812,0.7781155705451965,1.7166426181793213,7.4310302734375,-5.8746337890625,-4.302978515625
16.429999900000002,-9.818621635437012,0.7158663272857666,1.8124107122421265,6.28662109375,-7.8277587890625,-3.7994384765625
16.4499999,-9.804255485534668,0.6272808313369751,1.9153614044189453,2.4261474609375,-5.8135986328125,-5.218505859375
16.4699999,-9.797073364257812,0.5051765441894531,2.032677173614502,-0.0457763671875,-1.0986328125,-5.92041015625
16.4899999,-9.773131370544434,0.4189853072166443,2.078166961669922,0.701904296875,1.6937255859375,-3.5858154296875
16.5099999,-9.751583099365234,0.4189853072166443,2.0159177780151367,2.1820068359375,1.0833740234375,-1.03759765625
16.5299999,-9.80904483795166,0.395043283700943,1.8698714971542358,3.0059814453125,-1.983642578125,-0.3814697265625
16.5499999,-9.86650562286377,0.5027823448181152,1.6639702320098877,5.55419921875,-6.34765625,-1.5869140625
16.5699999,-9.95748519897461,0.5937620401382446,1.5298948287963867,8.514404296875,-11.444091796875,-2.3345947265625
16.589999900000002,-9.99100399017334,0.6871358752250671,1.5155296325683594,7.0037841796875,-13.336181640625,-3.0364990234375
16.609999900000002,-9.96945571899414,0.706289529800415,1.5825673341751099,3.448486328125,-14.6942138671875,-4.638671875
16.6299999,-9.880870819091797,0.6512228846549988,1.7884687185287476,3.509521484375,-13.916015625,-7.0343017578125
16.6499999,-9.770736694335938,0.5147533416748047,2.0159177780151367,4.9591064453125,-10.650634765625,-5.889892578125
16.6699999,-9.643844604492188,0.3758896589279175,2.274491548538208,2.166748046875,-4.0130615234375,-1.220703125
16.6899999,-9.586383819580078,0.3064578175544739,2.494758129119873,-3.0975341796875,-0.701904296875,1.861572265625
16.7099999,-9.567230224609375,0.3064578175544739,2.612074136734009,-6.6986083984375,-0.30517578125,2.74658203125
16.7299999,-9.624691009521484,0.3687070608139038,2.6216509342193604,-8.5296630859375,-0.5340576171875,3.570556640625
16.749999900000002,-9.720458984375,0.5123591423034668,2.4420857429504395,-8.4075927734375,-0.8392333984375,3.7078857421875
16.769999900000002,-9.837775230407715,0.5817909836769104,2.2242133617401123,-4.94384765625,-6.6070556640625,1.0833740234375
16.7899999,-9.8784761428833,0.6272808313369751,2.032677173614502,0.274658203125,-10.650634765625,-3.662109375
16.8099999,-9.84495735168457,0.5961562395095825,1.8938134908676147,3.9215087890625,-8.7127685546875,-5.157470703125
16.8299999,-9.734824180603027,0.5554547905921936,1.8842366933822632,4.150390625,-4.791259765625,-2.593994140625
16.8499999,-9.59835433959961,0.47644615173339844,1.9943699836730957,4.2877197265625,-5.1727294921875,-0.9765625
16.8699999,-9.564835548400879,0.4572925269603729,2.094926595687866,5.157470703125,-6.2255859375,-0.5950927734375
16.8899999,-9.545681953430176,0.44771572947502136,2.2697031497955322,4.7607421875,-7.1868896484375,0.640869140625
16.9099999,-9.643844604492188,0.47884035110473633,2.367865562438965,2.25830078125,-5.8135986328125,1.3580322265625
16.929999900000002,-9.708487510681152,0.4812345504760742,2.4612393379211426,-0.2899169921875,-7.3699951171875,0.274658203125
16.9499999,-9.720458984375,0.48602294921875,2.492363929748535,-0.18310546875,-8.758544921875,-3.021240234375
16.9699999,-9.677363395690918,0.4141969084739685,2.4851813316345215,2.0904541015625,-5.8746337890625,-4.6234130859375
16.9899999,-9.557653427124023,0.3687070608139038,2.4420857429504395,3.662109375,-1.617431640625,-1.708984375
17.0099999,-9.509769439697266,0.3711012601852417,2.403778553009033,4.425048828125,-1.6937255859375,1.190185546875
17.0299999,-9.497797966003418,0.4357447028160095,2.3750481605529785,5.126953125,-4.0740966796875,0.91552734375
17.0499999,-9.555258750915527,0.5386953949928284,2.389413356781006,4.21142578125,-6.1798095703125,0.4119873046875
17.0699999,-9.634267807006836,0.6560112833976746,2.456450939178467,1.922607421875,-5.2947998046875,0.3662109375
17.089999900000002,-9.672574996948242,0.7398083209991455,2.5546131134033203,0.335693359375,-6.3323974609375,-0.5340576171875
17.109999900000002,-9.672574996948242,0.7398083209991455,2.6408045291900635,-1.7852783203125,-6.8206787109375,-4.669189453125
17.1299999,-9.591172218322754,0.6967126727104187,2.784456491470337,-4.5318603515625,-1.77001953125,-7.476806640625
17.1499999,-9.521739959716797,0.5530605912208557,2.8203697204589844,-6.16455078125,5.0506591796875,-4.058837890625
17.1699999,-9.452308654785156,0.33997663855552673,2.80361008644104,-3.8299560546875,5.67626953125,0.396728515625
17.1899999,-9.485827445983887,0.2059013396501541,2.762908697128296,1.251220703125,1.739501953125,1.3885498046875
17.2099999,-9.581595420837402,0.09816227108240128,2.5953147411346436,3.875732421875,-1.007080078125,1.7852783203125
17.2299999,-9.710882186889648,0.23702596127986908,2.4851813316345215,3.9520263671875,-2.1514892578125,2.50244140625
17.249999900000002,-9.78989028930664,0.3734954595565796,2.3989901542663574,3.5552978515625,-5.06591796875,2.044677734375
17.269999900000002,-9.804255485534668,0.5722141861915588,2.4420857429504395,-0.0762939453125,-7.3089599609375,-2.2430419921875
17.2899999,-9.725247383117676,0.6272808313369751,2.540247917175293,-5.9814453125,-1.9989013671875,-5.035400390625
17.3099999,-9.576807022094727,0.6153098344802856,2.655169725418091,-8.880615234375,4.1656494140625,-2.9144287109375
17.3299999,-9.473855972290039,0.5003881454467773,2.7030537128448486,-4.5166015625,5.6610107421875,0.8087158203125
17.3499999,-9.457097053527832,0.3902548849582672,2.7102363109588623,1.7547607421875,1.434326171875,1.6021728515625
17.3699999,-9.550470352172852,0.35434186458587646,2.6360161304473877,2.8076171875,-0.8697509765625,2.0294189453125
17.3899999,-9.624691009521484,0.3423708379268646,2.5761611461639404,-0.152587890625,-1.46484375,2.9144287109375
17.409999900000003,-9.737217903137207,0.4644751250743866,2.5330653190612793,-0.9002685546875,-1.617431640625,3.509521484375
17.429999900000002,-9.66539192199707,0.5339069962501526,2.5522189140319824,-2.716064453125,-4.1961669921875,-0.9002685546875
17.4499999,-9.62947940826416,0.6105214357376099,2.5953147411346436,-6.77490234375,-1.007080078125,-5.1116943359375
17.4699999,-9.512163162231445,0.5147533416748047,2.6623523235321045,-8.60595703125,4.119873046875,-4.57763671875
17.4899999,-9.461885452270508,0.45489832758903503,2.6862943172454834,-5.645751953125,7.4310302734375,0.335693359375
17.5099999,-9.473855972290039,0.2825157940387726,2.6384103298187256,-1.4190673828125,4.730224609375,2.3345947265625
17.5299999,-9.545681953430176,0.26815059781074524,2.52109432220459,0.6866455078125,1.9683837890625,3.173828125
17.5499999,-9.627084732055664,0.2777273952960968,2.4181437492370605,2.0599365234375,-1.678466796875,2.8839111328125
17.5699999,-9.746794700622559,0.40940847992897034,2.3798365592956543,2.838134765625,-2.99072265625,2.899169921875
17.589999900000002,-9.75397777557373,0.569819986820221,2.319981336593628,0.6561279296875,-4.730224609375,2.166748046875
17.609999900000002,-9.641449928283691,0.6200982332229614,2.5665841102600098,-2.5634765625,-1.5716552734375,-4.7607421875
17.6299999,-9.50737476348877,0.569819986820221,2.691082715988159,-1.6632080078125,3.9215087890625,-1.2359619140625
17.6499999,-9.428366661071777,0.37828385829925537,2.7964274883270264,-0.5035400390625,4.8980712890625,2.777099609375
17.6699999,-9.35893440246582,0.36152446269989014,2.782062292098999,-1.8310546875,4.2724609375,2.3651123046875
17.6899999,-9.521739959716797,0.3758896589279175,2.7485435009002686,-4.791259765625,3.9520263671875,2.3651123046875
17.7099999,-9.550470352172852,0.49799394607543945,2.674323320388794,-5.8135986328125,1.556396484375,1.5106201171875
17.7299999,-9.708487510681152,0.6105214357376099,2.626439332962036,-4.08935546875,0.4730224609375,2.716064453125
17.749999900000002,-9.720458984375,0.6584054827690125,2.5785553455352783,-3.2501220703125,-2.5482177734375,-1.861572265625
17.769999900000002,-9.718064308166504,0.5650315880775452,2.5115175247192383,-0.9002685546875,-2.5787353515625,-6.195068359375
17.7899999,-9.679757118225098,0.44771572947502136,2.4420857429504395,3.936767578125,-2.227783203125,-5.2032470703125
17.8099999,-9.593565940856934,0.26575639843940735,2.403778553009033,9.6435546875,-2.777099609375,-0.1983642578125
17.8299999,-9.548076629638672,0.26096799969673157,2.432508945465088,9.70458984375,-3.0975341796875,2.6397705078125
17.8499999,-9.521739959716797,0.35434186458587646,2.604891538619995,0.9002685546875,2.716064453125,1.8768310546875
17.8699999,-9.519346237182617,0.5650315880775452,2.7988216876983643,-8.8348388671875,3.11279296875,1.2054443359375
17.8899999,-9.531316757202148,0.7565677165985107,2.9879636764526367,-12.969970703125,5.126953125,-0.06103515625
17.909999900000003,-9.588777542114258,0.8044517636299133,2.9759926795959473,-10.68115234375,3.5552978515625,0.79345703125
17.929999900000002,-9.670180320739746,0.7015010714530945,2.806004285812378,-5.6304931640625,0.9307861328125,-2.7618408203125
17.9499999,-9.694122314453125,0.4812345504760742,2.5977089405059814,1.800537109375,-0.335693359375,-4.7454833984375
17.9699999,-9.713275909423828,0.26336219906806946,2.3702597618103027,8.636474609375,-0.701904296875,-2.2430419921875
17.9899999,-9.651026725769043,0.1412578970193863,2.2864625453948975,12.75634765625,-2.1514892578125,2.0904541015625
18.0099999,-9.514557838439941,0.22744916379451752,2.3104045391082764,7.7667236328125,-1.4190673828125,1.52587890625
18.0299999,-9.536105155944824,0.40462008118629456,2.4684219360351562,-3.143310546875,2.7923583984375,0.8392333984375
18.0499999,-9.528923034667969,0.6416460275650024,2.6408045291900635,-11.810302734375,1.28173828125,-0.6866455078125
18.0699999,-9.57201862335205,0.8020575642585754,2.7772738933563232,-14.5721435546875,3.7078857421875,-2.01416015625
18.089999900000002,-9.660603523254395,0.7805097699165344,2.7748796939849854,-11.322021484375,1.4495849609375,-0.2593994140625
18.109999900000002,-9.6989107131958,0.6200982332229614,2.652775526046753,-3.84521484375,-0.732421875,-4.08935546875
18.1299999,-9.701305389404297,0.29209262132644653,2.456450939178467,5.340576171875,-2.7923583984375,-5.340576171875
18.1499999,-9.720458984375,0.10773907601833344,2.3104045391082764,12.9547119140625,-3.8299560546875,-1.5869140625
18.1699999,-9.646238327026367,-0.040701430290937424,2.250549554824829,15.899658203125,-6.0882568359375,1.434326171875
18.1899999,-9.543288230895996,0.19393034279346466,2.3535003662109375,9.0484619140625,-4.608154296875,2.3040771484375
18.2099999,-9.557653427124023,0.49320554733276367,2.564189910888672,-5.55419921875,2.3956298828125,1.0223388671875
18.2299999,-9.478644371032715,0.8164227604866028,2.827552318572998,-16.1285400390625,2.8228759765625,-1.312255859375
18.249999900000002,-9.533711433410645,0.9457096457481384,3.0166940689086914,-16.9525146484375,5.06591796875,-1.8463134765625
18.269999900000002,-9.583989143371582,0.828393816947937,3.050212860107422,-12.481689453125,3.692626953125,0.3509521484375
18.2899999,-9.57441234588623,0.49799394607543945,2.9544448852539062,-6.0882568359375,3.3416748046875,-1.7852783203125
18.3099999,-9.591172218322754,0.16759411990642548,2.734178304672241,3.814697265625,0.9765625,-2.3956298828125
18.3299999,-9.617507934570312,-0.05746084079146385,2.513911724090576,13.2904052734375,-1.9989013671875,-1.0528564453125
18.3499999,-9.521739959716797,-0.014365210197865963,2.4444799423217773,16.0675048828125,-3.2806396484375,-0.4730224609375
18.3699999,-9.516951560974121,0.2537853717803955,2.4420857429504395,8.087158203125,-0.9002685546875,1.3275146484375
18.3899999,-9.536105155944824,0.6272808313369751,2.6671407222747803,-6.2408447265625,4.852294921875,0
18.409999900000003,-9.53849983215332,0.9193734526634216,2.853888511657715,-15.13671875,5.340576171875,-3.814697265625
18.429999900000002,-9.603142738342285,1.0007762908935547,2.985569477081299,-14.923095703125,5.9051513671875,-6.2713623046875
18.4499999,-9.66539192199707,0.8212111592292786,2.9951462745666504,-9.5977783203125,3.7841796875,-3.570556640625
18.4699999,-9.682151794433594,0.43335050344467163,2.8131868839263916,-1.0528564453125,0.91552734375,-4.3182373046875
18.4899999,-9.674968719482422,0.05746084079146385,2.557007312774658,8.392333984375,-1.52587890625,-4.302978515625
18.5099999,-9.636661529541016,-0.22266076505184174,2.3511061668395996,13.9312744140625,-1.89208984375,-1.9073486328125
18.5299999,-9.57441234588623,-0.21787235140800476,2.1763293743133545,14.6942138671875,-2.349853515625,-0.030517578125
18.5499999,-9.512163162231445,0.047884032130241394,2.2673089504241943,10.07080078125,-3.509521484375,1.64794921875
18.5699999,-9.528923034667969,0.4141969084739685,2.4588451385498047,0,-1.03759765625,0.6561279296875
18.589999900000002,-9.57441234588623,0.7637503147125244,2.6575639247894287,-10.284423828125,1.77001953125,-2.5177001953125
18.609999900000002,-9.62947940826416,0.8834604024887085,2.8634653091430664,-13.00048828125,2.7008056640625,-5.218505859375
18.6299999,-9.682151794433594,0.7972691655158997,2.851494312286377,-9.124755859375,0.030517578125,-3.5858154296875
18.6499999,-9.68694019317627,0.5027823448181152,2.782062292098999,-2.716064453125,-1.800537109375,-4.6539306640625
18.6699999,-9.641449928283691,0.1628057211637497,2.6192567348480225,3.3111572265625,-1.40380859375,-4.8370361328125
18.6899999,-9.567230224609375,-0.05985504388809204,2.473210334777832,6.4697265625,0.6561279296875,-2.532958984375
18.7099999,-9.428366661071777,-0.13407529890537262,2.4205379486083984,7.6751708984375,1.0833740234375,-0.3814697265625
18.7299999,-9.373299598693848,0.07182604819536209,2.4875755310058594,2.777099609375,1.8310546875,0.3204345703125
18.749999900000002,-9.38048267364502,0.3711012601852417,2.6815059185028076,-8.6517333984375,6.9122314453125,-0.5645751953125
18.769999900000002,-9.461885452270508,0.6416460275650024,2.82515811920166,-17.4713134765625,8.4381103515625,-3.5400390625
18.7899999,-9.605537414550781,0.7445967197418213,2.846705913543701,-16.3726806640625,5.2490234375,-7.0343017578125
18.8099999,-9.749189376831055,0.5674257874488831,2.6647465229034424,-9.3841552734375,-0.0762939453125,-5.584716796875
18.8299999,-9.775525093078613,0.2561795711517334,2.403778553009033,0.823974609375,-4.69970703125,-6.2255859375
18.8499999,-9.787496566772461,-0.10773907601833344,2.188300371170044,13.0615234375,-8.056640625,-6.378173828125
18.8699999,-9.746794700622559,-0.28730419278144836,2.1356279850006104,20.233154296875,-9.2315673828125,-4.9896240234375
18.8899999,-9.641449928283691,-0.3280056416988373,2.188300371170044,19.287109375,-7.75146484375,-1.7852783203125
18.909999900000003,-9.591172218322754,-0.090979665517807,2.432508945465088,11.8865966796875,-6.5460205078125,1.03759765625
18.929999900000002,-9.550470352172852,0.19871874153614044,2.693476915359497,-0.1220703125,-4.0283203125,1.5411376953125
18.9499999,-9.519346237182617,0.42616790533065796,3.0334534645080566,-12.2528076171875,-0.3662109375,-0.7171630859375
18.9699999,-9.476250648498535,0.5722141861915588,3.3016040325164795,-16.90673828125,3.0670166015625,-2.86865234375
18.9899999,-9.497797966003418,0.44532153010368347,3.3734302520751953,-14.312744140625,3.173828125,-0.1068115234375
19.0099999,-9.526528358459473,0.2322375625371933,3.315969467163086,-8.4381103515625,2.4566650390625,-1.5869140625
19.0299999,-9.5408935546875,-0.05746084079146385,3.095702886581421,-3.082275390625,4.4097900390625,-2.685546875
19.0499999,-9.557653427124023,-0.19153612852096558,2.8586769104003906,0.1983642578125,5.9051513671875,-1.03759765625
19.0699999,-9.57441234588623,-0.1843535304069519,2.5761611461639404,3.4942626953125,5.584716796875,2.288818359375
19.089999900000002,-9.600749015808105,-0.040701430290937424,2.4013843536376953,3.84521484375,1.6326904296875,2.593994140625
19.109999900000002,-9.643844604492188,0.19871874153614044,2.3343467712402344,-0.5340576171875,-0.0457763671875,2.3956298828125
19.1299999,-9.744400978088379,0.38067805767059326,2.3774423599243164,-6.256103515625,-0.701904296875,0.946044921875
19.1499999,-9.720458984375,0.4381389021873474,2.5115175247192383,-6.53076171875,-0.396728515625,-2.655029296875
19.1699999,-9.715670585632324,0.4596867263317108,2.6839001178741455,-2.7618408203125,-1.373291015625,-2.7313232421875
19.1899999,-9.646238327026367,0.2585737705230713,2.7269957065582275,0.54931640625,-2.2125244140625,-3.814697265625
19.2099999,-9.555258750915527,0.13407529890537262,2.7724854946136475,4.2266845703125,-0.91552734375,-5.06591796875
19.2299999,-9.476250648498535,-0.035913024097681046,2.693476915359497,6.4544677734375,1.7242431640625,-4.5623779296875
19.249999900000002,-9.44991397857666,-0.1149216815829277,2.717418909072876,4.7760009765625,5.9967041015625,-0.732421875
19.269999900000002,-9.47146224975586,0.031124621629714966,2.6886885166168213,-0.7476806640625,7.0343017578125,1.1444091796875
19.2899999,-9.607931137084961,0.1867477297782898,2.7676970958709717,-8.2244873046875,6.9427490234375,1.495361328125
19.3099999,-9.84495735168457,0.4405331015586853,2.7509377002716064,-14.556884765625,6.256103515625,-0.7171630859375
19.3299999,-10.070012092590332,0.5147533416748047,2.6839001178741455,-13.9312744140625,4.241943359375,-5.0048828125
19.3499999,-10.235212326049805,0.45489832758903503,2.4636335372924805,-5.6304931640625,-1.9073486328125,-5.950927734375
19.3699999,-10.292673110961914,0.19632454216480255,2.2218191623687744,6.103515625,-9.002685546875,-6.16455078125
19.3899999,-10.134655952453613,-0.1149216815829277,2.0254945755004883,17.333984375,-12.5885009765625,-7.080078125
19.409999900000003,-9.804255485534668,-0.3711012601852417,2.0661959648132324,22.5372314453125,-13.1378173828125,-6.04248046875
19.429999900000002,-9.418789863586426,-0.40462008118629456,2.3798365592956543,14.0533447265625,-6.500244140625,-1.8768310546875
19.4499999,-9.01895809173584,-0.24899697303771973,2.920926094055176,-7.7056884765625,3.90625,2.3345947265625
19.4699999,-8.741230010986328,0.035913024097681046,3.49314022064209,-32.745361328125,16.5863037109375,3.6773681640625
19.4899999,-8.80587387084961,0.272938996553421,3.665522813796997,-49.1943359375,27.16064453125,3.84521484375
19.5099999,-9.064447402954102,0.31842881441116333,3.5170822143554688,-37.59765625,20.782470703125,2.44140625
19.5299999,-9.500192642211914,0.1843535304069519,2.9328970909118652,-12.14599609375,7.049560546875,0.152587890625
19.5499999,-9.897629737854004,-0.0454898327589035,2.2649147510528564,2.3040771484375,1.068115234375,-0.8544921875
19.5699999,-10.079588890075684,-0.21787235140800476,1.7860745191574097,9.063720703125,-3.814697265625,-1.0833740234375
19.589999900000002,-10.053253173828125,-0.2753331959247589,1.6065093278884888,10.1776123046875,-8.2550048828125,-1.0833740234375
19.609999900000002,-9.897629737854004,-0.23942017555236816,1.7381904125213623,6.77490234375,-7.2479248046875,-1.03759765625
19.6299999,-9.72285270690918,-0.13168109953403473,2.075772762298584,0.9765625,-4.4403076171875,-1.0833740234375
19.6499999,-9.607931137084961,-0.019153613597154617,2.477998733520508,-4.425048828125,-1.556396484375,-1.0528564453125
19.6699999,-9.57441234588623,0.05506663769483566,2.80361008644104,-7.4310302734375,0.9002685546875,-0.7476806640625
19.6899999,-9.59596061706543,0.06464344263076782,3.002328872680664,-6.6680908203125,2.1209716796875,-0.2593994140625
19.7099999,-9.622296333312988,0.016759412363171577,3.045424461364746,-3.753662109375,2.5634765625,0.274658203125
19.7299999,-9.583989143371582,-0.06224924325942993,2.9879636764526367,-1.1444091796875,3.0517578125,0.30517578125
19.749999900000002,-9.509769439697266,-0.12449848651885986,2.892195701599121,0.2288818359375,4.3182373046875,0.42724609375
19.769999900000002,-9.406818389892578,-0.15562310814857483,2.7940332889556885,0.3204345703125,6.0577392578125,0.3509521484375
19.7899999,-9.35654067993164,-0.14365209639072418,2.734178304672241,-0.2593994140625,7.4920654296875,0.5035400390625
19.8099999,-9.368511199951172,-0.09816227108240128,2.7054479122161865,-1.617431640625,8.7890625,0.518798828125
19.8299999,-9.430760383605957,-0.0454898327589035,2.695871114730835,-3.72314453125,10.4827880859375,0.274658203125
19.8499999,-9.514557838439941,-0.0071826050989329815,2.669534921646118,-5.4931640625,12.0391845703125,0.1983642578125
19.8699999,-9.59835433959961,0.0071826050989329815,2.6192567348480225,-5.92041015625,12.4664306640625,0.42724609375
19.8899999,-9.667786598205566,-0.002394201699644327,2.537853717803955,-5.5084228515625,12.054443359375,0.6256103515625
19.909999900000003,-9.72285270690918,-0.023942016065120697,2.4420857429504395,-4.852294921875,11.7034912109375,0.6256103515625
19.929999900000002,-9.75637149810791,-0.031124621629714966,2.3319525718688965,-3.84521484375,11.0931396484375,0.3509521484375
19.9499999,-9.799467086791992,-0.021547814831137657,2.229001760482788,-1.5106201171875,9.765625,-0.274658203125
19.9699999,-9.854534149169922,-0.004788403399288654,2.1380221843719482,1.3580322265625,7.904052734375,-1.3885498046875
19.9899999,-9.923966407775879,-0.002394201699644327,2.0805611610412598,3.326416015625,6.4697265625,-2.25830078125
20.0099999,-9.976638793945312,-0.009576806798577309,2.054224967956543,5.0048828125,5.7373046875,-2.197265625
20.0299999,-9.988609313964844,-0.047884032130241394,2.0877439975738525,7.87353515625,4.94384765625,-1.6937255859375
20.0499999,-9.945513725280762,-0.08858546614646912,2.1571757793426514,9.6893310546875,4.913330078125,-1.495361328125
20.0699999,-9.847352027893066,-0.12449848651885986,2.2409727573394775,9.3231201171875,6.561279296875,-1.190185546875
20.089999900000002,-9.730035781860352,-0.13407529890537262,2.315192937850952,8.30078125,8.5906982421875,-0.946044921875
20.109999900000002,-9.617507934570312,-0.13407529890537262,2.360682964324951,7.62939453125,8.97216796875,0.030517578125
20.1299999,-9.548076629638672,-0.11013327538967133,2.3558945655822754,6.2255859375,10.3759765625,-0.396728515625
20.1499999,-9.569623947143555,-0.05746084079146385,2.346317768096924,3.997802734375,13.24462890625,-0.91552734375
20.1699999,-9.6989107131958,-0.002394201699644327,2.3535003662109375,1.4190673828125,14.892578125,-0.457763671875
20.1899999,-10.08437728881836,0.026336219161748886,2.319981336593628,-1.2359619140625,20.32470703125,-2.0294189453125
20.2099999,-10.594342231750488,0.016759412363171577,2.2864625453948975,-2.0599365234375,18.3258056640625,-11.71875
20.2299999,-11.109095573425293,-0.08858546614646912,2.169146776199341,-0.946044921875,8.6517333984375,-24.5513916015625
