# Time (seconds),Accel_X,Accel_Y,Accel_Z,Gyro_X,Gyro_Y,Gyro_Z
0.0099999,0.47884035110473633,-9.828198432922363,1.2306196689605713,-0.0457763671875,0.7171630859375,-1.6326904296875
0.029999900000000003,0.5171475410461426,-9.84495735168457,1.2042834758758545,-0.518798828125,0.213623046875,0.4425048828125
0.0499999,0.5626373887062073,-9.84495735168457,1.2090718746185303,0.1373291015625,0.5645751953125,0.732421875
0.0699999,0.5793967843055725,-9.847352027893066,1.2114660739898682,0.030517578125,0.8697509765625,-0.1068115234375
0.08999990000000001,0.5554547905921936,-9.847352027893066,1.216254472732544,-0.6561279296875,0.8087158203125,-0.1983642578125
0.10999990000000001,0.5219359993934631,-9.84256362915039,1.2258312702178955,-0.18310546875,0.885009765625,-0.762939453125
0.1299999,0.5147533416748047,-9.84495735168457,1.2114660739898682,-0.18310546875,0.701904296875,-1.40380859375
0.14999990000000002,0.5339069962501526,-9.852140426635742,1.194706678390503,-0.2288818359375,0.67138671875,-0.2899169921875
0.1699999,0.5578489899635315,-9.847352027893066,1.2018892765045166,0.1678466796875,0.518798828125,0.946044921875
0.1899999,0.5626373887062073,-9.84495735168457,1.2090718746185303,-0.3509521484375,0.335693359375,0.42724609375
0.20999990000000002,0.5410895943641663,-9.837775230407715,1.2258312702178955,-0.48828125,0.7476806640625,-1.129150390625
0.2299999,0.5219359993934631,-9.832986831665039,1.237802267074585,0.0762939453125,1.03759765625,-1.2359619140625
0.2499999,0.5195417404174805,-9.84256362915039,1.2186486721038818,-0.4119873046875,0.67138671875,-0.152587890625
0.2699999,0.5434837937355042,-9.847352027893066,1.2090718746185303,-0.1220703125,0.732421875,0.0152587890625
0.28999990000000003,0.5650315880775452,-9.849745750427246,1.2114660739898682,0.244140625,0.732421875,-0.1373291015625
0.3099999,0.5650315880775452,-9.849745750427246,1.2090718746185303,-0.518798828125,0.213623046875,0.3662109375
0.3299999,0.545877993106842,-9.840168952941895,1.2234370708465576,-0.3814697265625,0.5035400390625,-0.2288818359375
0.34999990000000003,0.5267243981361389,-9.837775230407715,1.2258312702178955,-0.1373291015625,0.885009765625,-1.2359619140625
0.3699999,0.524330198764801,-9.840168952941895,1.2066776752471924,-0.4119873046875,0.7476806640625,-0.8087158203125
0.3899999,0.5363011956214905,-9.84256362915039,1.2042834758758545,0.1068115234375,0.9002685546875,0.3662109375
0.40999990000000003,0.5530605912208557,-9.84495735168457,1.2018892765045166,-0.06103515625,0.6103515625,0.213623046875
0.4299999,0.5602431893348694,-9.84495735168457,1.2090718746185303,-0.5340576171875,0.4425048828125,-0.5340576171875
0.4499999,0.545877993106842,-9.835380554199219,1.2306196689605713,-0.1373291015625,0.8392333984375,-0.3509521484375
0.4699999,0.5291185975074768,-9.840168952941895,1.2234370708465576,-0.3662109375,0.54931640625,-0.48828125
0.4899999,0.5267243981361389,-9.84256362915039,1.2114660739898682,-0.244140625,0.6866455078125,-1.068115234375
0.5099999,0.5386953949928284,-9.847352027893066,1.2066776752471924,0.244140625,1.0833740234375,-0.5035400390625
0.5299999,0.5506663918495178,-9.852140426635742,1.1994950771331787,-0.213623046875,0.5340576171875,0.6866455078125
0.5499999,0.5530605912208557,-9.849745750427246,1.213860273361206,-0.335693359375,0.4730224609375,0.152587890625
0.5699999,0.5363011956214905,-9.84256362915039,1.2258312702178955,-0.0762939453125,0.823974609375,-1.03759765625
0.5899998999999999,0.5195417404174805,-9.84256362915039,1.2210428714752197,-0.396728515625,0.54931640625,-0.79345703125
0.6099998999999999,0.5171475410461426,-9.84256362915039,1.213860273361206,-0.2288818359375,0.48828125,-0.2593994140625
0.6299999,0.5339069962501526,-9.84495735168457,1.2066776752471924,0.06103515625,0.8087158203125,-0.2899169921875
0.6499999,0.545877993106842,-9.847352027893066,1.2066776752471924,-0.1678466796875,0.7171630859375,0.030517578125
0.6699999,0.545877993106842,-9.84495735168457,1.2210428714752197,-0.274658203125,0.48828125,0.1220703125
0.6899999,0.5339069962501526,-9.840168952941895,1.2258312702178955,-0.396728515625,0.7476806640625,-0.457763671875
0.7099999,0.5267243981361389,-9.84256362915039,1.2186486721038818,-0.3662109375,0.7781982421875,-0.9765625
0.7299998999999999,0.5291185975074768,-9.84256362915039,1.2066776752471924,-0.1068115234375,0.7171630859375,-0.42724609375
0.7499998999999999,0.5386953949928284,-9.847352027893066,1.1994950771331787,-0.091552734375,0.579833984375,0.2593994140625
0.7699999,0.5482721924781799,-9.847352027893066,1.2018892765045166,-0.2593994140625,0.54931640625,-0.1373291015625
0.7899999,0.5482721924781799,-9.84495735168457,1.2186486721038818,-0.1220703125,0.67138671875,-0.579833984375
0.8099999,0.5386953949928284,-9.84495735168457,1.2210428714752197,-0.3204345703125,0.5950927734375,-0.30517578125
0.8299999,0.5315127968788147,-9.84495735168457,1.2186486721038818,-0.2593994140625,0.6561279296875,-0.274658203125
0.8499998999999999,0.5339069962501526,-9.847352027893066,1.213860273361206,0.0152587890625,0.7781982421875,-0.6561279296875
0.8699998999999999,0.5410895943641663,-9.849745750427246,1.2042834758758545,-0.1373291015625,0.6561279296875,-0.3204345703125
0.8899999,0.5482721924781799,-9.847352027893066,1.216254472732544,-0.2288818359375,0.5950927734375,0.1678466796875
0.9099999,0.5506663918495178,-9.84495735168457,1.2282254695892334,-0.3204345703125,0.5340576171875,-0.30517578125
0.9299999,0.5434837937355042,-9.84495735168457,1.2330138683319092,-0.3814697265625,0.579833984375,-0.7781982421875
0.9499999,0.5339069962501526,-9.84495735168457,1.2306196689605713,-0.18310546875,0.79345703125,-0.3509521484375
0.9699998999999999,0.5506663918495178,-9.84495735168457,1.2330138683319092,-0.1220703125,0.701904296875,-0.091552734375
0.9899998999999999,0.586579442024231,-9.854534149169922,1.213860273361206,-0.732421875,0.823974609375,0.213623046875
1.0099999,0.6224924325942993,-9.859322547912598,1.2114660739898682,-0.1068115234375,0.9918212890625,1.7852783203125
1.0299999,0.6153098344802856,-9.852140426635742,1.2186486721038818,0.67138671875,0.9613037109375,2.5482177734375
1.0499999,0.5147533416748047,-9.852140426635742,1.1971008777618408,-0.4730224609375,0.8544921875,1.03759765625
1.0699999,0.37828385829925537,-9.830592155456543,1.2186486721038818,0.06103515625,0.9918212890625,-2.9754638671875
1.0899999,0.2825157940387726,-9.821015357971191,1.2330138683319092,-0.18310546875,0.0152587890625,-5.1116943359375
1.1099999,0.33279404044151306,-9.828198432922363,1.2210428714752197,-1.495361328125,-0.3814697265625,-4.0435791015625
1.1299999,0.507570743560791,-9.84495735168457,1.2210428714752197,-0.3662109375,0.2288818359375,-0.091552734375
1.1499999,0.689530074596405,-9.861717224121094,1.213860273361206,0.9765625,0.9918212890625,4.08935546875
1.1699998999999999,0.7445967197418213,-9.86650562286377,1.194706678390503,0.1220703125,1.3275146484375,4.3182373046875
1.1899998999999999,0.6224924325942993,-9.832986831665039,1.1851298809051514,-0.4119873046875,1.77001953125,0.6561279296875
1.2099999,0.37828385829925537,-9.806650161743164,1.2090718746185303,-0.6103515625,0.18310546875,-3.509521484375
1.2299999,0.4620809257030487,-9.821015357971191,1.2042834758758545,-1.0833740234375,-0.2593994140625,-1.0223388671875
1.2499999,0.6320692300796509,-9.873687744140625,1.213860273361206,0.8544921875,0.54931640625,4.4708251953125
1.2699999,0.5817909836769104,-9.84495735168457,1.1348515748977661,1.3275146484375,0.5035400390625,7.01904296875
1.2899999,0.4668693244457245,-9.873687744140625,1.1252747774124146,0.5950927734375,-6.011962890625,-1.28173828125
1.3099999,0.23942017555236816,-9.847352027893066,1.1540051698684692,0.274658203125,-9.7808837890625,-7.4005126953125
1.3299999,0.13168109953403473,-9.825803756713867,1.1875240802764893,-0.8544921875,-8.3160400390625,-3.509521484375
1.3499999,0.21547815203666687,-9.864110946655273,1.2258312702178955,-0.640869140625,-10.4217529296875,0.6561279296875
1.3699999,0.3423708379268646,-9.871294021606445,1.2042834758758545,1.28173828125,-16.11328125,2.8076171875
1.3899999,0.3758896589279175,-9.892841339111328,1.1420341730117798,1.678466796875,-22.1099853515625,4.5928955078125
1.4099999,0.26815059781074524,-9.904812812805176,1.0821791887283325,1.1444091796875,-26.153564453125,2.62451171875
1.4299998999999999,0.07422025501728058,-9.895236015319824,1.0271124839782715,0.946044921875,-28.6712646484375,-1.1444091796875
1.4499999,-0.12210428714752197,-9.923966407775879,0.9289502501487732,0.0152587890625,-33.6456298828125,0.5035400390625
1.4699999,-0.22505496442317963,-9.931148529052734,0.8834604024887085,2.3956298828125,-37.4603271484375,4.547119140625
1.4899999,-0.181959331035614,-9.940725326538086,0.8906430602073669,2.8533935546875,-36.6668701171875,4.69970703125
1.5099999,0.016759412363171577,-9.916783332824707,0.9959878921508789,1.5106201171875,-32.4859619140625,1.7547607421875
1.5299999,0.3423708379268646,-9.86889934539795,1.1755530834197998,1.1444091796875,-29.205322265625,1.1749267578125
1.5499999,0.6631938815116882,-9.80904483795166,1.3862427473068237,2.044677734375,-25.2838134765625,4.39453125
1.5699999,0.9792284965515137,-9.775525093078613,1.50355863571167,0.8392333984375,-20.81298828125,1.4190673828125
1.5899999,1.1085153818130493,-9.770736694335938,1.50355863571167,0.5645751953125,-16.7083740234375,-0.18310546875
1.6099999,1.015141487121582,-9.794678688049316,1.3910311460494995,2.593994140625,-20.7366943359375,3.692626953125
1.6299999,0.849941611289978,-9.86650562286377,1.2186486721038818,3.509521484375,-33.905029296875,2.1514892578125
1.6499999,0.569819986820221,-9.998186111450195,1.0438719987869263,6.103515625,-39.24560546875,-2.0599365234375
1.6699999,0.30885201692581177,-10.103530883789062,0.9241618514060974,12.481689453125,-35.5987548828125,-8.30078125
1.6899998999999999,0.15083470940589905,-10.26394271850586,0.8906430602073669,17.5323486328125,-34.3780517578125,-15.7470703125
1.7099999,0.021547814831137657,-10.395624160766602,0.8212111592292786,24.7802734375,-32.4554443359375,-25.6195068359375
1.7299999,0.033518824726343155,-10.541669845581055,0.8403648138046265,34.6832275390625,-33.63037109375,-36.865234375
1.7499999,0.2082955539226532,-10.69489860534668,0.950498104095459,41.8548583984375,-33.447265625,-45.318603515625
1.7699999,0.5554547905921936,-10.886435508728027,1.2306196689605713,39.7796630859375,-30.5938720703125,-46.234130859375
1.7899999,1.0462661981582642,-11.070788383483887,1.6639702320098877,29.8919677734375,-25.4669189453125,-40.4052734375
1.8099999,1.4987702369689941,-11.231200218200684,2.1332337856292725,18.4326171875,-18.890380859375,-36.68212890625
1.8299999,1.7812861204147339,-11.305420875549316,2.5115175247192383,8.72802734375,-14.8468017578125,-37.933349609375
1.8499999,1.8052281141281128,-11.259930610656738,2.671929121017456,1.03759765625,-16.357421875,-42.4957275390625
1.8699999,1.6089035272598267,-11.111490249633789,2.6168625354766846,-3.41796875,-21.42333984375,-50.84228515625
1.8899999,1.3287819623947144,-10.896012306213379,2.4013843536376953,-4.94384765625,-22.674560546875,-61.8438720703125
1.9099999,1.1300631761550903,-10.668562889099121,2.1284453868865967,-6.5460205078125,-20.5078125,-71.3043212890625
1.9299998999999999,1.1037269830703735,-10.462661743164062,1.8698714971542358,-8.7738037109375,-22.3236083984375,-76.5838623046875
1.9499999,1.2976573705673218,-10.271124839782715,1.6855180263519287,-10.8489990234375,-26.885986328125,-78.3843994140625
1.9699999,1.6687586307525635,-10.089165687561035,1.580173134803772,-13.336181640625,-26.611328125,-79.4830322265625
1.9899999,2.145204782485962,-9.897629737854004,1.534683346748352,-15.9759521484375,-20.751953125,-79.132080078125
2.0099999,2.626439332962036,-9.701305389404297,1.5059528350830078,-17.8375244140625,-15.19775390625,-77.6519775390625
2.0299999,3.021482467651367,-9.497797966003418,1.434126853942871,-17.7001953125,-13.1378173828125,-77.1484375
2.0499999,3.3016040325164795,-9.284713745117188,1.2952631711959839,-14.8468017578125,-15.5792236328125,-79.2694091796875
2.0699999,3.533841609954834,-9.081207275390625,1.1276689767837524,-10.2691650390625,-19.59228515625,-82.0465087890625
2.0899999,3.751713991165161,-8.880094528198242,0.9481038451194763,-6.5765380859375,-18.798828125,-82.366943359375
2.1099999,4.019864559173584,-8.688557624816895,0.8236053586006165,-4.2266845703125,-13.1378173828125,-80.8563232421875
2.1299999,4.347870349884033,-8.516175270080566,0.7589619159698486,-2.410888671875,-5.5694580078125,-81.0546875
2.1499999,4.687847137451172,-8.329427719116211,0.7493851184844971,-1.64794921875,2.2430419921875,-81.2835693359375
2.1699999,5.0014872550964355,-8.152256965637207,0.7661445140838623,-1.3885498046875,8.3770751953125,-79.315185546875
2.1899999,5.228936672210693,-7.970297336578369,0.7852981686592102,-0.701904296875,10.7879638671875,-76.5380859375
2.2099999,5.3582234382629395,-7.766790390014648,0.7948749661445618,0.79345703125,10.92529296875,-76.446533203125
2.2299999,5.4228668212890625,-7.5417351722717285,0.7972691655158997,2.01416015625,12.4359130859375,-80.4290771484375
2.2499999,5.497087001800537,-7.319074630737305,0.828393816947937,2.2125244140625,15.3045654296875,-82.70263671875
2.2699999,5.609614372253418,-7.086836814880371,0.8906430602073669,0.0762939453125,16.7083740234375,-79.16259765625
2.2899999,5.78678560256958,-6.84981107711792,0.9983820915222168,-3.143310546875,16.9219970703125,-75.7904052734375
2.3099999,5.9735331535339355,-6.610390663146973,1.115697979927063,-4.4403076171875,20.6146240234375,-77.7130126953125
2.3299999,6.143521785736084,-6.347028732299805,1.235408067703247,-4.486083984375,23.3001708984375,-80.74951171875
2.3499999,6.320692539215088,-6.076483726501465,1.3551181554794312,-5.1727294921875,20.751953125,-81.0699462890625
2.3699999,6.497863292694092,-5.817910194396973,1.4748282432556152,-6.89697265625,17.9443359375,-80.4443359375
2.3899999,6.691793918609619,-5.583278179168701,1.6065093278884888,-10.7269287109375,16.5863037109375,-79.89501953125
2.4099999,6.919242858886719,-5.336675643920898,1.7621324062347412,-17.3492431640625,15.0299072265625,-79.16259765625
2.4299999,7.146692276000977,-5.070919036865234,1.9081788063049316,-24.6124267578125,17.578125,-79.5135498046875
2.4499999,7.352593421936035,-4.7836151123046875,2.008735179901123,-29.815673828125,24.6429443359375,-81.8939208984375
2.4699999,7.560888767242432,-4.474762916564941,2.0614075660705566,-33.477783203125,27.9693603515625,-83.160400390625
2.4899999,7.7643961906433105,-4.185064792633057,2.0590133666992188,-37.078857421875,26.336669921875,-81.298828125
2.5099999,7.975085735321045,-3.9217023849487305,2.0207061767578125,-40.7867431640625,21.6064453125,-76.6448974609375
2.5299999,8.180987358093262,-3.7014358043670654,1.9776105880737305,-43.6859130859375,16.082763671875,-70.159912109375
2.5499999,8.35097599029541,-3.509899616241455,1.9177556037902832,-46.0968017578125,11.0015869140625,-63.4307861328125
2.5699999,8.482656478881836,-3.3279404640197754,1.8555063009262085,-48.03466796875,5.9356689453125,-58.349609375
2.5899999,8.588001251220703,-3.1675288677215576,1.7860745191574097,-48.4161376953125,5.523681640625,-56.09130859375
2.6099999,8.676587104797363,-3.023876667022705,1.7046716213226318,-47.54638671875,8.9263916015625,-54.5196533203125
2.6299999,8.767566680908203,-2.9065608978271484,1.6089035272598267,-46.38671875,9.9029541015625,-51.605224609375
2.6499999,8.868123054504395,-2.8155810832977295,1.5083470344543457,-43.853759765625,7.6446533203125,-47.1649169921875
2.6699999,8.980650901794434,-2.7700912952423096,1.381454348564148,-39.3829345703125,6.2255859375,-41.50390625
2.6899999,9.0859956741333,-2.741360902786255,1.2449848651885986,-34.5611572265625,4.5166015625,-34.393310546875
2.7099999,9.208099365234375,-2.7317841053009033,1.1228805780410767,-29.6478271484375,1.8310546875,-27.099609375
2.7299999,9.32541561126709,-2.7533318996429443,1.0079588890075684,-23.74267578125,2.777099609375,-20.8740234375
2.7499999,9.411606788635254,-2.7916390895843506,0.8978256583213806,-17.5628662109375,4.8065185546875,-14.5111083984375
2.7699999,9.478644371032715,-2.851494312286377,0.8068459630012512,-11.9781494140625,2.685546875,-6.9580078125
2.7899999,9.488221168518066,-2.9328970909118652,0.7110779285430908,-6.2255859375,0.213623046875,-0.54931640625
2.8099999,9.44752025604248,-2.9927520751953125,0.6344634294509888,-0.6103515625,0.274658203125,2.4261474609375
2.8299999,9.370905876159668,-3.023876667022705,0.5889736413955688,4.7149658203125,3.662109375,2.1209716796875
2.8499999,9.301473617553711,-3.026270866394043,0.5937620401382446,9.1400146484375,9.5977783203125,1.434326171875
2.8699999,9.244012832641602,-3.0190882682800293,0.6440402865409851,11.7950439453125,13.671875,1.8768310546875
2.8899999,9.217676162719727,-3.0142998695373535,0.7422025203704834,12.6953125,13.6260986328125,4.39453125
2.9099999,9.217676162719727,-3.023876667022705,0.871489405632019,11.810302734375,11.322021484375,8.026123046875
2.9299999,9.208099365234375,-3.047818660736084,1.0055646896362305,9.6893310546875,9.9334716796875,11.3525390625
2.9499999,9.181763648986816,-3.0621838569641113,1.1348515748977661,7.781982421875,11.199951171875,12.6190185546875
2.9699999,9.126696586608887,-3.0813376903533936,1.2497732639312744,6.8511962890625,15.5181884765625,10.7421875
2.9899999,9.047688484191895,-3.1004912853240967,1.3455413579940796,6.317138671875,20.6756591796875,7.171630859375
3.0099999,8.966285705566406,-3.138798475265503,1.4197616577148438,4.852294921875,23.3306884765625,4.5166015625
3.0299999,8.887276649475098,-3.201047658920288,1.482010841369629,2.62451171875,23.62060546875,3.3416748046875
3.0499999,8.825027465820312,-3.2848446369171143,1.53707754611969,0.579833984375,23.3001708984375,2.44140625
3.0699999,8.765172004699707,-3.3854012489318848,1.5682021379470825,-0.6103515625,23.345947265625,0.8544921875
3.0899999,8.729259490966797,-3.485957622528076,1.5969325304031372,-0.9918212890625,22.0184326171875,-0.2593994140625
3.1099999,8.719682693481445,-3.584120035171509,1.6424223184585571,-1.068115234375,21.2249755859375,-1.3275146484375
3.1299999,8.736441612243652,-3.665522813796997,1.7118542194366455,-2.0599365234375,24.6734619140625,-2.50244140625
3.1499999,8.78193187713623,-3.732560396194458,1.821987509727478,-3.9520263671875,27.34375,-2.960205078125
3.1699999,8.834604263305664,-3.778050184249878,1.9560627937316895,-5.67626953125,25.5126953125,-1.4495849609375
3.1899999,8.865729331970215,-3.8091750144958496,2.0877439975738525,-6.927490234375,21.9573974609375,1.068115234375
3.2099999,8.868123054504395,-3.8283286094665527,2.212242364883423,-8.1329345703125,18.4783935546875,3.72314453125
3.2299999,8.829815864562988,-3.8307228088378906,2.319981336593628,-8.9874267578125,16.54052734375,5.4168701171875
3.2499999,8.755595207214355,-3.8307228088378906,2.408566951751709,-8.6517333984375,16.754150390625,5.767822265625
3.2699999,8.652645111083984,-3.825934410095215,2.4684219360351562,-7.476806640625,17.0440673828125,5.7525634765625
3.2899999,8.547300338745117,-3.8283286094665527,2.5019407272338867,-5.4168701171875,16.3421630859375,5.3253173828125
3.3099999,8.453926086425781,-3.840299606323242,2.518700122833252,-2.9449462890625,15.0146484375,4.425048828125
3.3299999000000002,8.401253700256348,-3.8546648025512695,2.5330653190612793,-0.396728515625,13.48876953125,4.150390625
3.3499999,8.38449478149414,-3.866635799407959,2.559401512145996,1.5411376953125,11.3525390625,5.3558349609375
3.3699999,8.398859977722168,-3.8714241981506348,2.604891538619995,2.4261474609375,8.697509765625,7.0648193359375
3.3899999,8.427590370178223,-3.8594532012939453,2.6671407222747803,2.74658203125,7.171630859375,7.7667236328125
3.4099999,8.44434928894043,-3.8307228088378906,2.7293899059295654,3.5247802734375,7.4920654296875,7.0343017578125
3.4299999,8.446743965148926,-3.797203779220581,2.784456491470337,4.6844482421875,6.988525390625,6.2713623046875
3.4499999,8.432378768920898,-3.7684733867645264,2.82515811920166,5.2337646484375,5.2642822265625,6.1187744140625
3.4699999,8.401253700256348,-3.754108190536499,2.846705913543701,5.2490234375,3.4637451171875,6.500244140625
3.4899999,8.379706382751465,-3.754108190536499,2.8610711097717285,4.69970703125,2.5177001953125,6.7291259765625
3.5099999,8.355764389038086,-3.77565598487854,2.8562827110290527,4.3182373046875,3.4332275390625,6.1492919921875
3.5299999,8.339004516601562,-3.8067808151245117,2.8395233154296875,4.119873046875,3.7384033203125,5.401611328125
3.5499999,8.329427719116211,-3.845088005065918,2.82515811920166,3.0364990234375,2.3345947265625,4.5623779296875
3.5699999,8.322244644165039,-3.885789394378662,2.808398485183716,1.6937255859375,2.2735595703125,3.082275390625
3.5899999,8.327033042907715,-3.9217023849487305,2.80361008644104,0.5645751953125,2.105712890625,2.01416015625
3.6099999,8.341399192810059,-3.9408559799194336,2.7988216876983643,-0.4425048828125,0.8087158203125,1.953125
3.6299999,8.362946510314941,-3.9456443786621094,2.7940332889556885,-0.9613037109375,0,2.166748046875
3.6499999,8.377311706542969,-3.93367338180542,2.784456491470337,-0.823974609375,0.091552734375,1.5716552734375
3.6699999,8.382100105285645,-3.914519786834717,2.7724854946136475,-0.2899169921875,0.3814697265625,0.79345703125
3.6899999,8.374917984008789,-3.8977603912353516,2.75812029838562,0.244140625,-0.5340576171875,0.701904296875
3.7099999,8.367734909057617,-3.892971992492676,2.7437551021575928,1.190185546875,-1.7852783203125,0.91552734375
3.7299999,8.365341186523438,-3.9025487899780273,2.7293899059295654,2.1209716796875,-2.6092529296875,0.9307861328125
3.7499999,8.379706382751465,-3.914519786834717,2.7246015071868896,2.7313232421875,-2.8839111328125,1.434326171875
3.7699999,8.403648376464844,-3.9264907836914062,2.7246015071868896,3.41796875,-3.448486328125,2.5787353515625
3.7899999,8.427590370178223,-3.936067581176758,2.7269957065582275,3.7689208984375,-4.302978515625,3.692626953125
3.8099999,8.446743965148926,-3.9432501792907715,2.7293899059295654,3.9520263671875,-4.33349609375,3.936767578125
3.8299999000000002,8.453926086425781,-3.9456443786621094,2.7269957065582275,4.241943359375,-3.2501220703125,3.082275390625
3.8499999,8.451532363891602,-3.950432777404785,2.719813108444214,4.7607421875,-2.3956298828125,1.77001953125
3.8699999,8.429984092712402,-3.955221176147461,2.695871114730835,5.4931640625,-2.2125244140625,0.518798828125
3.8899999,8.403648376464844,-3.957615375518799,2.6623523235321045,6.561279296875,-2.1514892578125,-0.5645751953125
3.9099999,8.379706382751465,-3.9600095748901367,2.626439332962036,7.7362060546875,-2.5634765625,-1.46484375
3.9299999,8.38449478149414,-3.9624037742614746,2.6001031398773193,8.6212158203125,-3.4027099609375,-1.9073486328125
3.9499999,8.413225173950195,-3.9624037742614746,2.5953147411346436,8.5906982421875,-4.364013671875,-1.1444091796875
3.9699999,8.458714485168457,-3.9624037742614746,2.609679937362671,7.5836181640625,-5.035400390625,0.7476806640625
3.9899999,8.504204750061035,-3.952826976776123,2.6408045291900635,6.134033203125,-5.1727294921875,2.4566650390625
4.0099999,8.537723541259766,-3.9384617805480957,2.6671407222747803,5.096435546875,-4.791259765625,3.2196044921875
4.029999900000001,8.53532886505127,-3.914519786834717,2.676717519760132,4.791259765625,-4.852294921875,3.814697265625
4.0499999,8.518569946289062,-3.890577793121338,2.6671407222747803,4.5928955078125,-6.4849853515625,4.2877197265625
4.069999900000001,8.487444877624512,-3.866635799407959,2.647987127304077,4.2266845703125,-8.026123046875,3.9520263671875
4.0899999000000005,8.451532363891602,-3.8522706031799316,2.6168625354766846,3.8299560546875,-8.148193359375,3.082275390625
4.1099999,8.427590370178223,-3.840299606323242,2.58813214302063,3.631591796875,-8.0108642578125,2.3345947265625
4.1299999000000005,8.42040729522705,-3.845088005065918,2.561795711517334,3.4332275390625,-7.568359375,1.4801025390625
4.1499999,8.42040729522705,-3.8570590019226074,2.5330653190612793,3.173828125,-6.3934326171875,0.640869140625
4.1699999000000005,8.44195556640625,-3.8786067962646484,2.513911724090576,2.62451171875,-5.950927734375,0.1983642578125
4.1899999,8.465897560119629,-3.9025487899780273,2.4899697303771973,1.9989013671875,-6.0272216796875,-0.1220703125
4.209999900000001,8.489839553833008,-3.9264907836914062,2.4612393379211426,1.40380859375,-6.4239501953125,-0.0457763671875
4.2299999,8.51138687133789,-3.9408559799194336,2.427720546722412,1.03759765625,-6.9732666015625,0.152587890625
4.249999900000001,8.530540466308594,-3.9408559799194336,2.3942017555236816,0.79345703125,-7.080078125,0.0457763671875
4.2699999,8.547300338745117,-3.931279182434082,2.365471363067627,0.885009765625,-6.3934326171875,-0.274658203125
4.289999900000001,8.552088737487793,-3.914519786834717,2.3367409706115723,1.03759765625,-5.706787109375,-0.2593994140625
4.3099999,8.559270858764648,-3.8977603912353516,2.3127987384796143,1.1444091796875,-5.7373046875,-0.1983642578125
4.329999900000001,8.564059257507324,-3.88818359375,2.2888567447662354,1.52587890625,-5.7220458984375,-0.518798828125
4.3499999,8.578424453735352,-3.8810009956359863,2.27209734916687,1.8463134765625,-5.67626953125,-0.5950927734375
4.369999900000001,8.597578048706055,-3.8786067962646484,2.255337953567505,1.8157958984375,-5.706787109375,-0.06103515625
4.3899999,8.619126319885254,-3.8714241981506348,2.2457611560821533,1.6021728515625,-5.340576171875,0.5645751953125
4.409999900000001,8.635885238647461,-3.869029998779297,2.233790159225464,1.4495849609375,-4.0435791015625,0.6103515625
4.4299999,8.635885238647461,-3.861847400665283,2.2170307636260986,1.6632080078125,-3.0670166015625,0.4730224609375
4.449999900000001,8.631096839904785,-3.8522706031799316,2.1978771686553955,2.0751953125,-3.143310546875,0.48828125
4.4699999,8.62391471862793,-3.84269380569458,2.183511972427368,2.227783203125,-3.7078857421875,0.79345703125
4.489999900000001,8.62391471862793,-3.8331170082092285,2.1787235736846924,1.922607421875,-3.7689208984375,1.3275146484375
4.5099999,8.62630844116211,-3.8283286094665527,2.1811177730560303,1.3580322265625,-3.6468505859375,1.983642578125
4.529999900000001,8.631096839904785,-3.8283286094665527,2.185906171798706,0.9613037109375,-3.84521484375,2.4871826171875
4.5499999,8.633491516113281,-3.8379054069519043,2.188300371170044,0.579833984375,-3.60107421875,2.4871826171875
4.569999900000001,8.62630844116211,-3.8546648025512695,2.1787235736846924,0.2899169921875,-2.7618408203125,2.5177001953125
4.5899999000000005,8.621520042419434,-3.8762125968933105,2.166752576828003,0.1068115234375,-2.5177001953125,2.7923583984375
4.609999900000001,8.621520042419434,-3.9049429893493652,2.1475989818573,0.274658203125,-2.2125244140625,2.960205078125
4.6299999000000005,8.611943244934082,-3.9384617805480957,2.118868589401245,0.732421875,-1.617431640625,3.0364990234375
4.6499999,8.597578048706055,-3.9815573692321777,2.0805611610412598,1.46484375,-1.8157958984375,3.2958984375
4.6699999000000005,8.578424453735352,-4.036623954772949,2.032677173614502,3.6163330078125,-2.3956298828125,3.1585693359375
4.6899999,8.559270858764648,-4.098873138427734,1.9823989868164062,7.3394775390625,-1.9378662109375,1.861572265625
4.709999900000001,8.549694061279297,-4.158728122711182,1.9393033981323242,11.1846923828125,-0.2288818359375,0.579833984375
4.7299999,8.56645393371582,-4.213795185089111,1.9273324012756348,13.702392578125,1.190185546875,0.579833984375
4.749999900000001,8.592789649963379,-4.256890773773193,1.941697597503662,15.167236328125,3.631591796875,1.6632080078125
4.7699999,8.616731643676758,-4.285621166229248,1.9800047874450684,16.4794921875,7.26318359375,2.8533935546875
4.789999900000001,8.628703117370605,-4.2975921630859375,2.0422539710998535,17.2882080078125,8.5906982421875,3.8299560546875
4.8099999,8.595184326171875,-4.288015365600586,2.10210919380188,17.8375244140625,8.819580078125,3.47900390625
4.829999900000001,8.374917984008789,-4.235342979431152,2.212242364883423,20.782470703125,14.34326171875,-6.3018798828125
4.8499999,8.20732307434082,-4.194641590118408,2.2409727573394775,23.6053466796875,8.7738037109375,-13.48876953125
4.869999900000001,8.058882713317871,-4.122815132141113,2.2816741466522217,25.20751953125,-6.8817138671875,-18.2037353515625
4.8899999,7.999027729034424,-4.02465295791626,2.3582887649536133,23.284912109375,-23.8494873046875,-19.47021484375
4.909999900000001,8.061277389526367,-3.890577793121338,2.4851813316345215,18.1884765625,-33.111572265625,-17.39501953125
4.9299999,8.259995460510254,-3.7421371936798096,2.6455929279327393,12.5579833984375,-32.1807861328125,-13.4429931640625
4.949999900000001,8.525752067565918,-3.5865142345428467,2.786850690841675,7.0037841796875,-27.7862548828125,-8.9569091796875
4.9699999,8.803479194641113,-3.4524388313293457,2.8634653091430664,2.3345947265625,-23.0255126953125,-4.4097900390625
4.989999900000001,9.040505409240723,-3.361459255218506,2.8634653091430664,-0.7781982421875,-19.073486328125,0.18310546875
5.0099999,9.21288776397705,-3.3303346633911133,2.7916390895843506,-2.410888671875,-14.251708984375,4.6844482421875
5.029999900000001,9.282320022583008,-3.380612850189209,2.6144683361053467,-3.387451171875,-13.6871337890625,11.04736328125
5.0499999,9.30386734008789,-3.471592426300049,2.432508945465088,-5.096435546875,-28.167724609375,22.491455078125
5.069999900000001,9.265560150146484,-3.581725835800171,2.209848165512085,-5.523681640625,-42.4652099609375,34.3017578125
5.0899999000000005,9.20091724395752,-3.670311212539673,2.0183119773864746,-5.06591796875,-53.6041259765625,43.7469482421875
5.109999900000001,9.083600997924805,-3.7038300037384033,1.8483237028121948,-3.814697265625,-61.95068359375,51.20849609375
5.1299999000000005,8.904036521911621,-3.6798880100250244,1.6831238269805908,-2.0904541015625,-68.0694580078125,55.633544921875
5.1499999,8.678980827331543,-3.6128504276275635,1.53707754611969,-0.79345703125,-69.366455078125,54.7637939453125
5.1699999000000005,8.44434928894043,-3.5410242080688477,1.3934253454208374,-1.6021728515625,-63.8885498046875,49.1180419921875
5.1899999,8.315062522888184,-3.529053211212158,1.3024457693099976,-4.6234130859375,-51.1016845703125,42.816162109375
5.209999900000001,8.274360656738281,-3.598485231399536,1.1827356815338135,-9.7198486328125,-39.5965576171875,38.0706787109375
5.2299999,8.288725852966309,-3.758896589279175,1.0342950820922852,-12.75634765625,-32.8826904296875,31.768798828125
5.249999900000001,8.317456245422363,-4.003105163574219,0.8044517636299133,-13.3056640625,-29.6630859375,24.90234375
5.2699999,8.322244644165039,-4.266467571258545,0.5363011956214905,-14.22119140625,-29.937744140625,22.27783203125
5.289999900000001,8.29830265045166,-4.565742492675781,0.2298433631658554,-14.9993896484375,-26.91650390625,22.9644775390625
5.3099999,8.315062522888184,-4.865017890930176,-0.035913024097681046,-14.617919921875,-22.2320556640625,23.98681640625
5.329999900000001,8.360552787780762,-5.142745018005371,-0.272938996553421,-12.2528076171875,-15.380859375,23.98681640625
5.3499999,8.398859977722168,-5.389348030090332,-0.47165772318840027,-8.209228515625,-5.3558349609375,22.0184326171875
5.369999900000001,8.413225173950195,-5.571307182312012,-0.6248866319656372,-3.96728515625,3.41796875,20.3704833984375
5.3899999,8.370129585266113,-5.70777702331543,-0.7469909191131592,1.0223388671875,8.453369140625,19.8211669921875
5.409999900000001,8.312667846679688,-5.827486991882324,-0.8379706144332886,7.0037841796875,9.4146728515625,20.477294921875
5.4299999,8.286332130432129,-5.920860767364502,-0.9002198576927185,12.5885009765625,4.425048828125,23.345947265625
5.449999900000001,8.26478385925293,-5.9735331535339355,-0.8595184087753296,16.5557861328125,-4.5013427734375,28.411865234375
5.4699999,8.267178535461426,-5.96874475479126,-0.7493851184844971,18.1121826171875,-5.8441162109375,33.26416015625
5.489999900000001,8.238448143005371,-5.882553577423096,-0.5482721924781799,17.3187255859375,-1.46484375,35.09521484375
5.5099999,8.164227485656738,-5.758055210113525,-0.2801215946674347,15.777587890625,6.9580078125,32.4554443359375
5.529999900000001,8.061277389526367,-5.664681434631348,-0.047884032130241394,14.22119140625,16.693115234375,28.411865234375
5.5499999,7.903259754180908,-5.616796970367432,0.14365209639072418,12.0697021484375,18.341064453125,25.20751953125
5.569999900000001,7.714118003845215,-5.640739440917969,0.26575639843940735,9.7503662109375,13.5498046875,22.6898193359375
5.5899999000000005,7.510610580444336,-5.719748020172119,0.33039984107017517,8.2244873046875,10.6048583984375,20.2484130859375
5.609999900000001,7.352593421936035,-5.805939197540283,0.3734954595565796,6.6070556640625,8.2855224609375,18.585205078125
5.6299999000000005,7.2783732414245605,-5.894524574279785,0.4213795065879822,3.8909912109375,4.7760009765625,17.6849365234375
5.6499999,7.2568254470825195,-5.947196960449219,0.48602294921875,-0.213623046875,3.7994384765625,17.7154541015625
5.6699999000000005,7.230489253997803,-5.9735331535339355,0.5530605912208557,-5.950927734375,5.4473876953125,17.791748046875
5.6899999,7.189787864685059,-5.980715751647949,0.6272808313369751,-11.8560791015625,8.3770751953125,16.693115234375
5.709999900000001,7.161057472229004,-6.0621185302734375,0.6727706789970398,-16.082763671875,12.2222900390625,14.8468017578125
5.7299999,7.218518257141113,-6.22731876373291,0.6703764796257019,-20.172119140625,8.72802734375,16.1895751953125
5.749999900000001,7.338228225708008,-6.44279670715332,0.586579442024231,-24.6429443359375,-3.387451171875,21.0418701171875
5.7699999,7.50582218170166,-6.689399719238281,0.4692635238170624,-25.787353515625,-10.8184814453125,26.30615234375
5.789999900000001,7.6782050132751465,-6.847416877746582,0.3208230137825012,-23.62060546875,-3.3416748046875,30.7769775390625
5.8099999,7.747636795043945,-6.9240312576293945,0.17477671802043915,-18.9056396484375,12.8936767578125,35.491943359375
5.829999900000001,7.781155586242676,-6.97430944442749,0.08379705995321274,-12.847900390625,28.289794921875,44.525146484375
5.8499999,7.747636795043945,-7.000645637512207,-0.002394201699644327,-7.110595703125,43.7774658203125,56.9305419921875
5.869999900000001,7.527369976043701,-7.067683219909668,-0.11252748221158981,-1.89208984375,49.102783203125,61.5081787109375
5.8899999,7.117961883544922,-7.141903877258301,-0.2346317619085312,4.791259765625,31.9366455078125,57.4951171875
5.909999900000001,6.560112476348877,-7.220912456512451,-0.3471592366695404,13.7176513671875,11.71875,48.3245849609375
5.9299999,5.949591159820557,-7.280767440795898,-0.3711012601852417,22.88818359375,1.1444091796875,33.8287353515625
5.949999900000001,5.485116004943848,-7.333439826965332,-0.2561795711517334,26.3214111328125,-4.0130615234375,19.195556640625
5.9699999,5.240907669067383,-7.3669586181640625,0.002394201699644327,22.5982666015625,-11.016845703125,10.4827880859375
5.989999900000001,5.22175407409668,-7.419631004333496,0.3471592366695404,16.7388916015625,-11.7645263671875,5.9967041015625
6.0099999,5.339069843292236,-7.436390399932861,0.7086837291717529,10.0250244140625,-6.103515625,0.6561279296875
6.029999900000001,5.525817394256592,-7.4555439949035645,1.0295066833496094,2.0751953125,-2.166748046875,-5.2947998046875
6.0499999,5.719748020172119,-7.457938194274902,1.259350061416626,-6.5765380859375,-2.410888671875,-7.1563720703125
6.069999900000001,5.884947776794434,-7.433996200561523,1.3838485479354858,-13.7786865234375,-4.5318603515625,-6.9122314453125
6.0899999000000005,6.057330131530762,-7.422025203704834,1.4197616577148438,-18.585205078125,-0.8392333984375,-8.8348388671875
6.109999900000001,6.224924564361572,-7.407660007476807,1.3742717504501343,-22.2320556640625,9.70458984375,-11.3372802734375
6.1299999000000005,6.390124320983887,-7.419631004333496,1.2832920551300049,-23.895263671875,23.162841796875,-11.1083984375
6.149999900000001,6.485892295837402,-7.450755596160889,1.1276689767837524,-24.7802734375,26.8402099609375,-5.2642822265625
6.1699999000000005,6.517016887664795,-7.513004779815674,0.9241618514060974,-24.3377685546875,20.050048828125,1.800537109375
6.1899999,6.490680694580078,-7.580042362213135,0.7158663272857666,-21.209716796875,8.11767578125,4.45556640625
6.209999900000001,6.414066314697266,-7.637503623962402,0.5027823448181152,-14.801025390625,3.8604736328125,4.241943359375
6.2299999,6.342240333557129,-7.673416614532471,0.3471592366695404,-7.7056884765625,3.4027099609375,5.2947998046875
6.249999900000001,6.265625953674316,-7.68538761138916,0.2298433631658554,-0.5950927734375,0.762939453125,6.195068359375
6.2699999,6.208165168762207,-7.694964408874512,0.17238251864910126,5.4168701171875,-3.7689208984375,7.6751708984375
6.289999900000001,6.165069580078125,-7.6997528076171875,0.1604115068912506,7.9345703125,-13.458251953125,12.054443359375
6.3099999,6.150704383850098,-7.692570209503174,0.21547815203666687,8.4686279296875,-21.270751953125,16.876220703125
6.329999900000001,6.162675380706787,-7.687781810760498,0.31603461503982544,10.25390625,-16.8914794921875,15.655517578125
6.3499999,6.1530985832214355,-7.668628215789795,0.4405331015586853,11.7340087890625,-4.364013671875,9.307861328125
6.369999900000001,6.145915985107422,-7.671022415161133,0.5626373887062073,11.90185546875,6.9580078125,4.7760009765625
6.3899999,6.124367713928223,-7.692570209503174,0.6536170840263367,11.41357421875,11.04736328125,3.6773681640625
6.409999900000001,6.095637321472168,-7.745242595672607,0.7134721279144287,9.9639892578125,12.26806640625,2.13623046875
6.4299999,6.057330131530762,-7.800309181213379,0.7350199222564697,7.7362060546875,13.2598876953125,1.1138916015625
6.449999900000001,6.026205539703369,-7.848193168640137,0.7541735172271729,5.9814453125,13.1378173828125,2.532958984375
6.4699999,5.971138954162598,-7.876923561096191,0.7469909191131592,5.5694580078125,11.6119384765625,4.5166015625
6.489999900000001,5.882553577423096,-7.876923561096191,0.7326257228851318,6.7596435546875,7.4462890625,3.7994384765625
6.5099999,5.815515995025635,-7.862558364868164,0.7350199222564697,7.8582763671875,2.13623046875,0.91552734375
6.529999900000001,5.796362400054932,-7.824251174926758,0.7781155705451965,6.34765625,-1.2054443359375,-1.6632080078125
6.5499999,5.837063789367676,-7.778761386871338,0.8810662031173706,1.5106201171875,-1.953125,-0.91552734375
6.569999900000001,5.906495571136475,-7.716512203216553,1.0127472877502441,-4.8370361328125,-3.9215087890625,3.7384033203125
6.5899999000000005,5.947196960449219,-7.644686222076416,1.113303780555725,-9.429931640625,-5.889892578125,6.3323974609375
6.609999900000001,5.937620162963867,-7.5968017578125,1.1300631761550903,-9.6893310546875,-4.150390625,1.9073486328125
6.6299999000000005,5.901707172393799,-7.5848307609558105,1.0582371950149536,-6.744384765625,-2.593994140625,-2.960205078125
6.649999900000001,5.875370979309082,-7.627926826477051,0.9217676520347595,-2.899169921875,-1.9683837890625,-2.86865234375
6.6699999000000005,5.868188381195068,-7.704541206359863,0.7661445140838623,0.67138671875,-1.983642578125,-0.6866455078125
6.6899999,5.868188381195068,-7.778761386871338,0.6440402865409851,3.8299560546875,-0.6256103515625,0.5035400390625
6.709999900000001,5.856217384338379,-7.819462776184082,0.569819986820221,5.859375,-1.8157958984375,1.007080078125
6.7299999,5.810727596282959,-7.802703380584717,0.5339069962501526,7.4920654296875,-3.5858154296875,-0.7781982421875
6.749999900000001,5.729324817657471,-7.759607791900635,0.49559974670410156,11.7340087890625,-0.946044921875,-7.4310302734375
6.7699999,5.564124584197998,-7.718906402587891,0.42856210470199585,21.209716796875,6.8206787109375,-17.1356201171875
6.789999900000001,5.382165431976318,-7.750030994415283,0.2585737705230713,35.0189208984375,6.1187744140625,-24.59716796875
6.8099999,5.238513469696045,-7.86734676361084,0.07900865375995636,50.84228515625,-12.6190185546875,-30.853271484375
6.829999900000001,5.20978307723999,-8.006210327148438,-0.035913024097681046,65.1092529296875,-29.0069580078125,-36.285400390625
6.8499999,5.398924827575684,-8.149862289428711,-0.019153613597154617,70.9381103515625,-35.2020263671875,-38.5284423828125
6.869999900000001,5.781997203826904,-8.164227485656738,0.2585737705230713,67.5048828125,-45.9747314453125,-34.7747802734375
6.8899999,6.423643112182617,-8.085219383239746,0.7469909191131592,58.89892578125,-42.7703857421875,-27.8472900390625
6.909999900000001,7.113173484802246,-7.850587368011475,1.3455413579940796,47.2869873046875,-19.8211669921875,-20.111083984375
6.9299999,7.69735860824585,-7.532158374786377,1.8962076902389526,32.7301025390625,4.3792724609375,-7.904052734375
6.949999900000001,7.951143741607666,-7.105990409851074,2.296039342880249,17.0135498046875,8.9569091796875,4.180908203125
6.9699999,7.785943984985352,-6.672640323638916,2.43011474609375,4.608154296875,7.26318359375,5.31005859375
6.989999900000001,7.405265808105469,-6.320692539215088,2.3965959548950195,-4.69970703125,4.1046142578125,1.007080078125
7.0099999,6.9695210456848145,-6.0836663246154785,2.2697031497955322,-14.6026611328125,2.3956298828125,-2.2735595703125
7.029999900000001,6.672640323638916,-6.00226354598999,2.1308395862579346,-23.284912109375,8.331298828125,-7.32421875
7.0499999,6.521805286407471,-6.045359134674072,1.9800047874450684,-24.993896484375,15.80810546875,-10.92529296875
7.069999900000001,6.449979305267334,-6.162675380706787,1.8076223134994507,-27.6031494140625,20.3704833984375,-15.68603515625
7.0899999000000005,6.421248912811279,-6.344634532928467,1.6041151285171509,-27.7252197265625,10.3302001953125,-14.8468017578125
7.109999900000001,6.430825710296631,-6.536170482635498,1.3910311460494995,-26.30615234375,-2.0294189453125,-12.481689453125
7.1299999000000005,6.502651691436768,-6.730101108551025,1.213860273361206,-23.681640625,-10.1776123046875,-13.18359375
7.149999900000001,6.665457725524902,-6.878541469573975,1.1085153818130493,-18.9208984375,-11.0015869140625,-12.9547119140625
7.1699999000000005,6.89530086517334,-6.993463039398193,1.0606313943862915,-13.671875,-5.096435546875,-10.3759765625
7.1899999,7.122750282287598,-7.050923824310303,1.0414776802062988,-10.650634765625,-0.48828125,-3.72314453125
7.209999900000001,7.275979042053223,-7.070077419281006,1.0223240852355957,-7.171630859375,3.5247802734375,1.7852783203125
7.2299999,7.297526836395264,-7.043741226196289,0.9840168952941895,-2.0294189453125,4.791259765625,3.3721923828125
7.249999900000001,7.225700855255127,-6.983886241912842,0.9600749015808105,1.6326904296875,1.4801025390625,4.57763671875
7.2699999,7.0772600173950195,-6.88332986831665,0.9672574996948242,1.8310546875,-2.44140625,5.2032470703125
7.289999900000001,6.94079065322876,-6.785167694091797,1.01753568649292,-0.3814697265625,-1.9378662109375,3.753662109375
7.3099999,6.842628479003906,-6.703764915466309,1.0845733880996704,-2.7923583984375,-0.5645751953125,1.9989013671875
7.329999900000001,6.797138690948486,-6.675034523010254,1.1420341730117798,-4.3792724609375,-2.166748046875,2.8839111328125
7.3499999,6.780379295349121,-6.72531270980835,1.1444283723831177,-5.6610107421875,-3.143310546875,5.950927734375
7.369999900000001,6.806715488433838,-6.828263282775879,1.1109095811843872,-6.561279296875,-7.2174072265625,10.1776123046875
7.3899999,6.818686485290527,-6.936002254486084,1.0606313943862915,-6.6375732421875,-12.7716064453125,12.2833251953125
7.409999900000001,6.8378400802612305,-7.0126166343688965,1.015141487121582,-6.195068359375,-8.3160400390625,10.1165771484375
7.4299999,6.813898086547852,-7.062894821166992,0.9528923034667969,-5.889892578125,1.708984375,6.3629150390625
7.449999900000001,6.768408298492432,-7.101202011108398,0.8738836050033569,-4.1046142578125,1.8310546875,6.683349609375
7.4699999,6.689399719238281,-7.132327079772949,0.7733271718025208,-0.244140625,-10.3912353515625,11.0321044921875
7.489999900000001,6.588842868804932,-7.146692276000977,0.689530074596405,4.058837890625,-14.9993896484375,10.8642578125
7.5099999,6.485892295837402,-7.122750282287598,0.6272808313369751,7.9803466796875,-3.11279296875,0.7171630859375
7.529999900000001,6.426037311553955,-7.074865818023682,0.6200982332229614,10.7421875,2.166748046875,-8.9569091796875
7.5499999,6.1770405769348145,-7.005434036254883,0.4884171485900879,11.0015869140625,-8.97216796875,-6.622314453125
7.569999900000001,6.296750545501709,-6.983886241912842,0.6177040338516235,9.8724365234375,-33.0963134765625,-4.1656494140625
7.5899999000000005,6.313509941101074,-6.998251438140869,0.646434485912323,12.5732421875,-23.8494873046875,-11.7340087890625
7.609999900000001,6.610390663146973,-7.038952827453613,0.8810662031173706,7.8582763671875,-6.561279296875,-8.4075927734375
7.6299999000000005,6.878541469573975,-7.074865818023682,1.0845733880996704,2.7008056640625,-2.5482177734375,-3.5552978515625
7.649999900000001,7.050923824310303,-7.084442615509033,1.2018892765045166,-0.946044921875,-2.62451171875,-3.6468505859375
7.6699999000000005,7.06528902053833,-7.046135425567627,1.2401964664459229,-4.2266845703125,1.0986328125,-4.2877197265625
7.6899999,6.964732646942139,-6.9695210456848145,1.2018892765045166,-6.9580078125,6.04248046875,-5.7525634765625
7.709999900000001,6.835445880889893,-6.890512466430664,1.1444283723831177,-8.026123046875,3.936767578125,-9.5062255859375
7.7299999,6.742072105407715,-6.842628479003906,1.05105459690094,-8.6822509765625,-1.4190673828125,-10.162353515625
7.749999900000001,6.7492547035217285,-6.828263282775879,0.9744400978088379,-10.9405517578125,-7.6141357421875,-3.5400390625
7.7699999,6.84981107711792,-6.845022678375244,0.912190854549408,-14.2974853515625,-10.9405517578125,5.5999755859375
7.789999900000001,6.98628044128418,-6.8593878746032715,0.8786720037460327,-16.387939453125,-8.636474609375,9.2315673828125
7.8099999,7.06528902053833,-6.864176273345947,0.8379706144332886,-16.17431640625,-0.396728515625,6.9122314453125
7.829999900000001,7.067683219909668,-6.878541469573975,0.7709329724311829,-14.5111083984375,8.4991455078125,4.9591064453125
7.8499999,6.993463039398193,-6.9240312576293945,0.6631938815116882,-12.1612548828125,9.490966796875,5.889892578125
7.869999900000001,6.8809356689453125,-7.0126166343688965,0.5339069962501526,-9.4757080078125,3.96728515625,7.8887939453125
7.8899999,6.763619899749756,-7.113173484802246,0.40462008118629456,-5.9967041015625,-0.732421875,8.3160400390625
7.909999900000001,6.665457725524902,-7.208941459655762,0.2992752194404602,-2.5787353515625,-2.8076171875,6.622314453125
7.9299999,6.600813865661621,-7.271190643310547,0.23942017555236816,0.6866455078125,-4.8065185546875,5.67626953125
7.949999900000001,6.567295074462891,-7.299921035766602,0.2298433631658554,3.4637451171875,-7.2784423828125,6.3629150390625
7.9699999,6.572083473205566,-7.304709434509277,0.2585737705230713,5.1116943359375,-7.049560546875,6.072998046875
7.989999900000001,6.600813865661621,-7.297526836395264,0.31364041566848755,5.7220458984375,-4.5013427734375,4.2877197265625
8.0099999,6.63433313369751,-7.285555839538574,0.3734954595565796,5.7525634765625,-3.4942626953125,3.47900390625
8.0299999,6.658275127410889,-7.271190643310547,0.42856210470199585,5.7373046875,-3.8299560546875,3.7689208984375
8.049999900000001,6.670246124267578,-7.259219646453857,0.4620809257030487,5.7525634765625,-3.4942626953125,3.0059814453125
8.069999900000001,6.658275127410889,-7.2352776527404785,0.49320554733276367,5.218505859375,-2.1820068359375,1.3427734375
8.0899999,6.6391215324401855,-7.208941459655762,0.507570743560791,4.0740966796875,0.5035400390625,-0.1373291015625
8.1099999,6.605602264404297,-7.180211067199707,0.5099649429321289,2.838134765625,1.220703125,-0.9307861328125
8.129999900000001,6.574477672576904,-7.168240070343018,0.49559974670410156,2.2430419921875,-0.91552734375,-1.2969970703125
8.149999900000001,6.557718276977539,-7.156269073486328,0.47165772318840027,1.617431640625,-3.47900390625,-1.373291015625
8.1699999,6.560112476348877,-7.156269073486328,0.45010992884635925,0.6561279296875,-4.5166015625,-1.4495849609375
8.1899999,6.588842868804932,-7.151480674743652,0.4405331015586853,-0.0457763671875,-2.86865234375,-1.7242431640625
8.2099999,6.624756336212158,-7.1490864753723145,0.43095630407333374,0.1220703125,0.48828125,-2.25830078125
8.229999900000001,6.6630635261535645,-7.15387487411499,0.4165911078453064,0.701904296875,2.777099609375,-2.3345947265625
8.2499999,6.677428722381592,-7.168240070343018,0.3926490843296051,0.9002685546875,2.44140625,-1.52587890625
8.2699999,6.677428722381592,-7.180211067199707,0.3711012601852417,1.1749267578125,0.274658203125,-0.79345703125
8.2899999,6.665457725524902,-7.187393665313721,0.36152446269989014,1.8463134765625,-1.373291015625,-1.373291015625
8.309999900000001,6.655880928039551,-7.184999465942383,0.3711012601852417,2.410888671875,-1.739501953125,-2.593994140625
8.3299999,6.66785192489624,-7.175422668457031,0.40222588181495667,2.3345947265625,-1.9989013671875,-2.105712890625
8.3499999,6.682217121124268,-7.161057472229004,0.4381389021873474,1.89208984375,-1.46484375,0
8.3699999,6.696582317352295,-7.139509677886963,0.47405192255973816,1.922607421875,-0.8544921875,1.007080078125
8.389999900000001,6.730101108551025,-7.115567684173584,0.5339069962501526,1.6326904296875,0.0457763671875,-0.4425048828125
8.4099999,6.754043102264404,-7.094019412994385,0.569819986820221,-0.1068115234375,1.8463134765625,0.91552734375
8.4299999,6.768408298492432,-7.089231014251709,0.6009446382522583,-2.01416015625,3.4027099609375,2.105712890625
8.4499999,6.768408298492432,-7.070077419281006,0.6200982332229614,-3.173828125,3.4637451171875,1.6937255859375
8.469999900000001,6.746860504150391,-7.060500621795654,0.6177040338516235,-3.47900390625,2.960205078125,0.9002685546875
8.4899999,6.718130111694336,-7.060500621795654,0.5889736413955688,-2.9144287109375,2.8076171875,1.3580322265625
8.5099999,6.696582317352295,-7.074865818023682,0.5530605912208557,-2.13623046875,2.62451171875,2.3651123046875
8.5299999,6.677428722381592,-7.101202011108398,0.5051765441894531,-1.3580322265625,0.2288818359375,2.9449462890625
8.549999900000001,6.6846113204956055,-7.129932880401611,0.47165772318840027,-1.129150390625,-3.936767578125,3.1585693359375
8.569999900000001,6.708553314208984,-7.15387487411499,0.45489832758903503,-1.2359619140625,-5.6915283203125,4.5928955078125
8.5899999,6.722918510437012,-7.177816867828369,0.4405331015586853,-1.129150390625,-4.791259765625,7.415771484375
8.6099999,6.691793918609619,-7.182605266571045,0.43095630407333374,-1.190185546875,-8.0413818359375,9.5672607421875
8.629999900000001,6.5912370681762695,-7.173028469085693,0.4141969084739685,-0.6256103515625,-10.55908203125,7.8582763671875
8.649999900000001,6.473921298980713,-7.163451671600342,0.3878606855869293,1.4190673828125,-5.3863525390625,1.4801025390625
8.6699999,6.3949127197265625,-7.182605266571045,0.36152446269989014,3.2196044921875,-2.6092529296875,-4.8980712890625
8.6899999,6.382941722869873,-7.225700855255127,0.3495534360408783,3.11279296875,-9.5367431640625,-4.9896240234375
8.709999900000001,6.461950302124023,-7.285555839538574,0.3423708379268646,2.8839111328125,-12.6495361328125,-1.495361328125
8.729999900000001,6.557718276977539,-7.33583402633667,0.33997663855552673,4.1351318359375,-3.7078857421875,-1.0528564453125
8.7499999,6.754043102264404,-7.41484260559082,0.3902548849582672,6.317138671875,4.8980712890625,-2.0751953125
8.7699999,6.732495307922363,-7.422025203704834,0.30885201692581177,8.2244873046875,8.7127685546875,1.4190673828125
8.7899999,6.780379295349121,-7.424419403076172,0.3232172429561615,8.7890625,-1.983642578125,4.1046142578125
8.809999900000001,6.641515731811523,-7.3454108238220215,0.29209262132644653,9.1400146484375,-5.889892578125,0.5035400390625
8.8299999,6.502651691436768,-7.225700855255127,0.3447650372982025,7.568359375,5.8441162109375,-5.37109375
8.8499999,6.433219909667969,-7.141903877258301,0.4429273009300232,4.8828125,18.5699462890625,-8.453369140625
8.8699999,6.426037311553955,-7.115567684173584,0.5410895943641663,0.762939453125,15.6097412109375,-4.6844482421875
8.889999900000001,6.481103897094727,-7.127538681030273,0.6177040338516235,-4.5318603515625,0.8697509765625,4.180908203125
8.9099999,6.5696892738342285,-7.139509677886963,0.6799532771110535,-9.3994140625,-4.5013427734375,10.498046875
8.9299999,6.636727333068848,-7.0988078117370605,0.7230489253997803,-12.1917724609375,4.3792724609375,10.6658935546875
8.9499999,6.670246124267578,-7.0317702293396,0.730231523513794,-12.0086669921875,15.9759521484375,6.4697265625
8.969999900000001,6.636727333068848,-6.97430944442749,0.6703764796257019,-9.765625,19.744873046875,2.1209716796875
8.9899999,6.572083473205566,-6.97430944442749,0.5602431893348694,-6.7138671875,16.4947509765625,-0.3662109375
9.0099999,6.497863292694092,-7.041347026824951,0.4357447028160095,-2.7313232421875,12.8173828125,-1.2969970703125
9.0299999,6.440402507781982,-7.144298076629639,0.35434186458587646,0.823974609375,9.09423828125,-1.007080078125
9.049999900000001,6.428431510925293,-7.2568254470825195,0.33997663855552673,2.8839111328125,6.2408447265625,-0.1983642578125
9.069999900000001,6.457161903381348,-7.347805023193359,0.38546648621559143,3.4027099609375,4.8370361328125,0.274658203125
9.0899999,6.485892295837402,-7.400477409362793,0.47644615173339844,3.387451171875,4.3487548828125,-0.396728515625
9.1099999,6.502651691436768,-7.417236804962158,0.5722141861915588,3.326416015625,4.608154296875,-2.166748046875
9.129999900000001,6.50025749206543,-7.402871608734131,0.6799532771110535,2.6092529296875,4.852294921875,-3.5400390625
9.149999900000001,6.473921298980713,-7.376535415649414,0.7637503147125244,1.3427734375,7.080078125,-3.692626953125
9.1699999,6.445190906524658,-7.3454108238220215,0.8259995579719543,0.0152587890625,7.87353515625,-3.3416748046875
9.1899999,6.435614109039307,-7.331045627593994,0.8451532125473022,-0.79345703125,3.753662109375,-2.8839111328125
9.209999900000001,6.457161903381348,-7.331045627593994,0.8451532125473022,-0.9765625,-1.8768310546875,-1.953125
9.229999900000001,6.495469093322754,-7.338228225708008,0.828393816947937,-0.7781982421875,-3.570556640625,-0.4425048828125
9.2499999,6.543353080749512,-7.343016624450684,0.811634361743927,-0.5035400390625,-2.9754638671875,1.190185546875
9.2699999,6.572083473205566,-7.331045627593994,0.7996633648872375,0.0762939453125,-2.3040771484375,1.5869140625
9.2899999,6.567295074462891,-7.304709434509277,0.7852981686592102,0.4119873046875,-2.2125244140625,1.1138916015625
9.309999900000001,6.552929878234863,-7.271190643310547,0.7829039692878723,0.4425048828125,-2.7008056640625,0.579833984375
9.3299999,6.54574728012085,-7.242460250854492,0.7781155705451965,0.1220703125,-2.5787353515625,0.1678466796875
9.3499999,6.557718276977539,-7.225700855255127,0.7781155705451965,0.030517578125,-0.7781982421875,-0.701904296875
9.3699999,6.564900875091553,-7.223306655883789,0.7589619159698486,0.42724609375,1.1138916015625,-1.2664794921875
9.389999900000001,6.572083473205566,-7.232883453369141,0.730231523513794,1.1444091796875,0.640869140625,-0.2593994140625
9.4099999,6.557718276977539,-7.252037048339844,0.6847416758537292,2.0599365234375,-1.6632080078125,1.007080078125
9.4299999,6.550535678863525,-7.273584842681885,0.6560112833976746,2.8839111328125,-3.9215087890625,1.556396484375
9.4499999,6.555324077606201,-7.287950038909912,0.6416460275650024,2.7008056640625,-3.570556640625,1.2664794921875
9.469999900000001,6.574477672576904,-7.304709434509277,0.646434485912323,1.6937255859375,-2.960205078125,1.4190673828125
9.4899999,6.584054470062256,-7.309497833251953,0.667982280254364,-0.1373291015625,-4.4708251953125,2.8228759765625
9.5099999,6.605602264404297,-7.314286231994629,0.689530074596405,-2.5482177734375,-5.0506591796875,4.791259765625
9.5299999,6.615179061889648,-7.311892032623291,0.7110779285430908,-4.5013427734375,-2.3040771484375,4.45556640625
9.549999900000001,6.619967937469482,-7.304709434509277,0.6991068720817566,-5.8135986328125,2.7923583984375,2.1209716796875
9.569999900000001,6.641515731811523,-7.311892032623291,0.6799532771110535,-6.8511962890625,3.7078857421875,1.4190673828125
9.5899999,6.629544734954834,-7.304709434509277,0.6320692300796509,-7.171630859375,3.1890869140625,3.11279296875
9.6099999,6.593631267547607,-7.297526836395264,0.5650315880775452,-6.5765380859375,2.227783203125,5.18798828125
9.629999900000001,6.521805286407471,-7.285555839538574,0.49320554733276367,-4.5623779296875,0.42724609375,6.1187744140625
9.649999900000001,6.40927791595459,-7.249642848968506,0.4141969084739685,-1.0833740234375,-0.7781982421875,4.6539306640625
9.6699999,6.291962146759033,-7.242460250854492,0.33039984107017517,3.11279296875,-3.2958984375,1.2054443359375
9.6899999,6.18182897567749,-7.261613845825195,0.2513911724090576,7.9345703125,-9.8876953125,-2.1820068359375
9.709999900000001,6.100425720214844,-7.343016624450684,0.13407529890537262,14.7705078125,-18.7530517578125,-5.2337646484375
9.729999900000001,5.978321552276611,-7.443572998046875,0.0071826050989329815,24.444580078125,-33.14208984375,-9.5062255859375
9.7499999,5.963956356048584,-7.5848307609558105,-0.07900865375995636,34.515380859375,-43.8232421875,-17.3797607421875
9.7699999,6.009446144104004,-7.642292022705078,-0.043095629662275314,40.740966796875,-44.3115234375,-23.9105224609375
9.7899999,6.215347766876221,-7.663839817047119,0.1604115068912506,42.510986328125,-30.8837890625,-22.003173828125
9.809999900000001,6.543353080749512,-7.599195957183838,0.5099649429321289,38.8031005859375,-10.9100341796875,-16.05224609375
9.8299999,6.890512466430664,-7.4770917892456055,0.9097966551780701,28.839111328125,3.0517578125,-6.561279296875
9.8499999,7.175422668457031,-7.299921035766602,1.2856862545013428,14.7247314453125,8.026123046875,6.4239501953125
9.8699999,7.309497833251953,-7.079654216766357,1.5634137392044067,0.79345703125,15.7012939453125,15.6402587890625
9.889999900000001,7.264008045196533,-6.8162922859191895,1.6974890232086182,-9.2926025390625,28.3050537109375,16.2506103515625
9.9099999,7.079654216766357,-6.562506675720215,1.680729627609253,-15.2435302734375,36.43798828125,7.8582763671875
9.9299999,6.780379295349121,-6.3733649253845215,1.5298948287963867,-16.4947509765625,35.6903076171875,-3.5247802734375
9.9499999,6.476315498352051,-6.311115741729736,1.290474772453308,-15.3961181640625,28.228759765625,-10.4217529296875
9.969999900000001,6.265625953674316,-6.378153324127197,1.0534487962722778,-16.1285400390625,19.744873046875,-13.9312744140625
9.9899999,6.19379997253418,-6.540958881378174,0.8786720037460327,-18.6767578125,13.519287109375,-15.68603515625
10.0099999,6.265625953674316,-6.754043102264404,0.7805097699165344,-20.4925537109375,9.5367431640625,-14.678955078125
10.0299999,6.428431510925293,-6.962338447570801,0.7374141216278076,-21.54541015625,5.6915283203125,-10.986328125
10.049999900000001,6.607996463775635,-7.139509677886963,0.730231523513794,-21.8963623046875,-0.4425048828125,-6.16455078125
10.069999900000001,6.751648902893066,-7.266402244567871,0.7182605266571045,-21.2554931640625,-5.5389404296875,-2.593994140625
10.0899999,6.823474884033203,-7.333439826965332,0.6943184733390808,-20.1568603515625,-6.2103271484375,-0.7171630859375
10.1099999,6.8378400802612305,-7.357381820678711,0.6416460275650024,-17.5018310546875,-4.4097900390625,-0.030517578125
10.129999900000001,6.797138690948486,-7.347805023193359,0.5674257874488831,-12.1002197265625,-6.2103271484375,-0.9765625
10.149999900000001,6.746860504150391,-7.333439826965332,0.48602294921875,-6.8817138671875,-11.23046875,-2.2125244140625
10.1699999,6.72531270980835,-7.319074630737305,0.40940847992897034,-3.1585693359375,-11.962890625,-1.89208984375
10.1899999,6.732495307922363,-7.297526836395264,0.36152446269989014,-0.3204345703125,-7.99560546875,-0.79345703125
10.209999900000001,6.756437301635742,-7.2783732414245605,0.3280056416988373,2.74658203125,-5.401611328125,-0.8544921875
10.229999900000001,6.777985095977783,-7.259219646453857,0.31603461503982544,5.43212890625,-5.7525634765625,-1.6632080078125
10.2499999,6.787561893463135,-7.2352776527404785,0.31364041566848755,6.53076171875,-5.889892578125,-1.5869140625
10.2699999,6.7923502922058105,-7.201758861541748,0.3280056416988373,6.4849853515625,-4.5013427734375,-0.7781982421875
10.2899999,6.797138690948486,-7.158663272857666,0.35434186458587646,6.2103271484375,-3.6163330078125,-0.1220703125
10.309999900000001,6.7923502922058105,-7.101202011108398,0.38307225704193115,5.67626953125,-3.5552978515625,0.2593994140625
10.3299999,6.789956092834473,-7.043741226196289,0.4118026793003082,4.4403076171875,-2.3345947265625,0
10.3499999,6.7923502922058105,-6.993463039398193,0.4381389021873474,2.3651123046875,0.5950927734375,-0.7781982421875
10.3699999,6.8043212890625,-6.957550048828125,0.4620809257030487,0.48828125,2.044677734375,-1.190185546875
10.389999900000001,6.825869083404541,-6.9455790519714355,0.47884035110473633,-0.5645751953125,1.9073486328125,-0.8392333984375
10.4099999,6.847416877746582,-6.952761650085449,0.4812345504760742,-1.068115234375,1.953125,0.42724609375
10.4299999,6.864176273345947,-6.9695210456848145,0.47405192255973816,-1.40380859375,1.922607421875,1.77001953125
10.4499999,6.864176273345947,-6.988674640655518,0.4620809257030487,-1.190185546875,1.5106201171875,3.0975341796875
10.469999900000001,6.8378400802612305,-7.003039836883545,0.45010992884635925,-0.1068115234375,0.42724609375,3.7384033203125
10.4899999,6.797138690948486,-7.017405033111572,0.44532153010368347,1.46484375,0.42724609375,3.0670166015625
10.5099999,6.761225700378418,-7.026981830596924,0.45010992884635925,2.4566650390625,1.4190673828125,2.4871826171875
10.5299999,6.744466304779053,-7.043741226196289,0.47405192255973816,2.532958984375,2.3345947265625,2.8076171875
10.549999900000001,6.739677906036377,-7.0557122230529785,0.5051765441894531,2.349853515625,3.0059814453125,3.0517578125
10.569999900000001,6.734889507293701,-7.072471618652344,0.5386953949928284,2.4261474609375,3.3111572265625,2.4566650390625
10.5899999,6.718130111694336,-7.089231014251709,0.5602431893348694,2.38037109375,3.2958984375,1.7547607421875
10.6099999,6.682217121124268,-7.113173484802246,0.5650315880775452,2.3345947265625,2.5634765625,1.2969970703125
10.629999900000001,6.646304130554199,-7.146692276000977,0.5602431893348694,2.62451171875,0.9002685546875,0.9765625
10.649999900000001,6.624756336212158,-7.194576263427734,0.5482721924781799,3.021240234375,0.1678466796875,0.1373291015625
10.6699999,6.600813865661621,-7.247248649597168,0.5315127968788147,3.2958984375,0.5340576171875,-0.762939453125
10.6899999,6.588842868804932,-7.292738437652588,0.5267243981361389,3.3111572265625,-0.4425048828125,-0.79345703125
10.709999900000001,6.555324077606201,-7.311892032623291,0.524330198764801,3.11279296875,-1.190185546875,-1.556396484375
10.729999900000001,6.497863292694092,-7.304709434509277,0.5123591423034668,4.1351318359375,0.2288818359375,-5.8135986328125
10.7499999,6.435614109039307,-7.283161640167236,0.4812345504760742,6.988525390625,1.2054443359375,-12.5732421875
10.7699999,6.404489517211914,-7.266402244567871,0.42377370595932007,10.894775390625,-1.4801025390625,-16.7083740234375
10.7899999,6.423643112182617,-7.261613845825195,0.3495534360408783,15.7928466796875,-7.8277587890625,-15.7470703125
10.809999900000001,6.507440090179443,-7.247248649597168,0.28969839215278625,20.9197998046875,-13.3056640625,-12.6953125
10.8299999,6.643909931182861,-7.225700855255127,0.272938996553421,25.93994140625,-10.7421875,-11.65771484375
10.8499999,6.799532890319824,-7.204153060913086,0.2825157940387726,29.8309326171875,-4.8828125,-10.2081298828125
10.8699999,6.950367450714111,-7.184999465942383,0.33758243918418884,32.28759765625,-7.0648193359375,-5.401611328125
10.889999900000001,7.089231014251709,-7.194576263427734,0.40701428055763245,33.7371826171875,-11.932373046875,-0.518798828125
10.9099999,7.175422668457031,-7.220912456512451,0.47405192255973816,35.8734130859375,-11.53564453125,1.8768310546875
10.9299999,7.208941459655762,-7.218518257141113,0.5650315880775452,38.6810302734375,-6.805419921875,2.1820068359375
10.9499999,7.1706342697143555,-7.2113356590271,0.6009446382522583,43.731689453125,-3.2958984375,2.0294189453125
10.969999900000001,7.046135425567627,-7.163451671600342,0.6248866319656372,48.52294921875,-7.8125,2.1820068359375
10.9899999,6.88332986831665,-7.079654216766357,0.6320692300796509,53.8787841796875,-19.2718505859375,2.4871826171875
11.0099999,6.732495307922363,-6.981492042541504,0.6655880808830261,61.3250732421875,-25.421142578125,0.3814697265625
11.0299999,6.619967937469482,-6.868964672088623,0.7445967197418213,65.948486328125,-19.134521484375,-5.8441162109375
11.049999900000001,6.586448669433594,-6.777985095977783,0.8523358106613159,70.2667236328125,-14.7857666015625,-11.41357421875
11.069999900000001,6.658275127410889,-6.715735912322998,0.9959878921508789,73.73046875,-17.7459716796875,-13.9617919921875
11.0899999,6.806715488433838,-6.67982292175293,1.1324573755264282,74.8138427734375,-20.81298828125,-13.5650634765625
11.1099999,7.0126166343688965,-6.631938934326172,1.3287819623947144,74.6002197265625,-18.00537109375,-12.26806640625
11.129999900000001,7.177816867828369,-6.540958881378174,1.5155296325683594,74.0203857421875,-9.6435546875,-13.0615234375
11.149999900000001,7.247248649597168,-6.385335922241211,1.721431016921997,74.066162109375,-4.2877197265625,-16.387939453125
11.1699999,7.19936466217041,-6.179434776306152,1.8938134908676147,73.577880859375,-5.6610107421875,-19.95849609375
11.1899999,7.108384609222412,-5.95677375793457,2.054224967956543,72.2503662109375,-7.049560546875,-22.9644775390625
11.209999900000001,7.024587631225586,-5.750872611999512,2.2026655673980713,70.9381103515625,-7.1868896484375,-25.4364013671875
11.229999900000001,7.003039836883545,-5.5760955810546875,2.3582887649536133,69.7479248046875,-5.157470703125,-27.0233154296875
11.2499999,7.06528902053833,-5.439626216888428,2.513911724090576,68.603515625,-1.0833740234375,-27.099609375
11.2699999,7.208941459655762,-5.327098846435547,2.676717519760132,66.375732421875,3.1585693359375,-25.9552001953125
11.2899999,7.38132381439209,-5.22175407409668,2.846705913543701,62.8814697265625,6.072998046875,-24.4140625
11.309999900000001,7.577648162841797,-5.118803024291992,3.0358476638793945,58.65478515625,7.7667236328125,-21.6064453125
11.3299999,7.728483200073242,-4.999093055725098,3.227383852005005,53.131103515625,8.819580078125,-17.547607421875
11.3499999,7.795520782470703,-4.862623691558838,3.421314239501953,46.2493896484375,7.32421875,-13.397216796875
11.3699999,7.817068576812744,-4.714183330535889,3.6176388263702393,38.8641357421875,2.838134765625,-9.1705322265625
11.389999900000001,7.785943984985352,-4.570530891418457,3.7900211811065674,31.8145751953125,1.2054443359375,-6.7138671875
11.4099999,7.733271598815918,-4.4508209228515625,3.9456443786621094,25.543212890625,3.0975341796875,-6.622314453125
11.4299999,7.661445617675781,-4.3622355461120605,4.077325344085693,19.10400390625,6.1187744140625,-7.904052734375
11.4499999,7.5848307609558105,-4.307168960571289,4.165910720825195,12.1917724609375,8.36181640625,-9.94873046875
11.469999900000001,7.508216381072998,-4.285621166229248,4.220977783203125,5.767822265625,10.3759765625,-13.1683349609375
11.4899999,7.450755596160889,-4.290409564971924,4.2544965744018555,0.5950927734375,13.24462890625,-16.66259765625
11.5099999,7.445967197418213,-4.326322555541992,4.261679172515869,-3.753662109375,16.4947509765625,-19.6685791015625
11.5299999,7.4770917892456055,-4.3861775398254395,4.264073371887207,-7.080078125,17.8680419921875,-21.881103515625
11.549999900000001,7.548917770385742,-4.467580318450928,4.256890773773193,-8.6517333984375,16.7236328125,-22.125244140625
11.569999900000001,7.615955829620361,-4.54419469833374,4.242525577545166,-9.2926025390625,14.7247314453125,-20.050048828125
11.5899999,7.642292022705078,-4.606443881988525,4.194641590118408,-9.246826171875,11.3677978515625,-16.998291015625
11.6099999,7.642292022705078,-4.637568473815918,4.1395745277404785,-7.4615478515625,3.60107421875,-14.6942138671875
11.629999900000001,7.637503623962402,-4.627991676330566,4.084507942199707,-4.82177734375,-4.5013427734375,-13.36669921875
11.649999900000001,7.6782050132751465,-4.5825018882751465,4.060565948486328,-2.9754638671875,-5.8441162109375,-11.749267578125
11.6699999,7.769184589385986,-4.503493309020996,4.07014274597168,-2.3193359375,-2.1514892578125,-9.5062255859375
11.6899999,7.886500358581543,-4.410119533538818,4.089296340942383,-2.13623046875,2.7313232421875,-7.3089599609375
11.709999900000001,7.972691535949707,-4.316745758056641,4.082113742828369,-1.5106201171875,7.7972412109375,-5.950927734375
11.729999900000001,8.003816604614258,-4.235342979431152,4.0294413566589355,-0.030517578125,11.444091796875,-5.279541015625
11.7499999,7.955932140350342,-4.170699596405029,3.9480385780334473,2.349853515625,11.6119384765625,-4.8065185546875
11.7699999,7.862558364868164,-4.127603530883789,3.847482204437256,5.67626953125,8.2550048828125,-4.486083984375
11.7899999,7.747636795043945,-4.098873138427734,3.7684733867645264,9.8114013671875,2.471923828125,-4.9591064453125
11.809999900000001,7.6566572189331055,-4.084507942199707,3.73016619682312,13.5498046875,-1.861572265625,-5.6915283203125
11.8299999,7.625532627105713,-4.0749311447143555,3.7421371936798096,15.68603515625,-2.197265625,-6.195068359375
11.8499999,7.659051418304443,-4.072536945343018,3.8067808151245117,16.0064697265625,0.762939453125,-6.134033203125
11.8699999,7.738059997558594,-4.067748546600342,3.9025487899780273,15.8233642578125,3.021240234375,-5.2032470703125
11.889999900000001,7.82185697555542,-4.05817174911499,4.003105163574219,14.923095703125,4.241943359375,-3.9520263671875
11.9099999,7.886500358581543,-4.036623954772949,4.0964789390563965,12.908935546875,5.767822265625,-2.166748046875
11.9299999,7.910442352294922,-4.003105163574219,4.170699596405029,11.2762451171875,5.0506591796875,-0.6561279296875
11.9499999,7.903259754180908,-3.9480385780334473,4.24970817565918,9.9945068359375,3.387451171875,-0.2288818359375
11.969999900000001,7.857769966125488,-3.823540210723877,4.402936935424805,5.8135986328125,4.3487548828125,0.5340576171875
11.9899999,7.82185697555542,-3.773261785507202,4.460397720336914,2.4261474609375,6.2103271484375,0.457763671875
12.0099999,7.771578788757324,-3.7493197917938232,4.486733913421631,0.579833984375,5.4473876953125,-0.1220703125
12.0299999,7.7213006019592285,-3.754108190536499,4.479551315307617,-0.3509521484375,3.204345703125,-1.373291015625
12.049999900000001,7.68538761138916,-3.7828385829925537,4.462791919708252,-0.7476806640625,2.2430419921875,-2.4261474609375
12.069999900000001,7.682993412017822,-3.8283286094665527,4.443638324737549,-1.2359619140625,3.2806396484375,-1.800537109375
12.0899999,7.702147006988525,-3.8786067962646484,4.426878929138184,-1.5869140625,4.974365234375,-0.091552734375
12.1099999,7.7213006019592285,-3.93367338180542,4.412513732910156,-1.373291015625,6.04248046875,1.3580322265625
12.129999900000001,7.7213006019592285,-3.9863457679748535,4.398148536682129,-0.54931640625,5.340576171875,1.7242431640625
12.149999900000001,7.6997528076171875,-4.022258758544922,4.3861775398254395,0.18310546875,3.41796875,0.8544921875
12.1699999,7.666234016418457,-4.039018154144287,4.3861775398254395,0.5645751953125,0.640869140625,-0.2593994140625
12.1899999,7.63989782333374,-4.034229755401611,4.405331134796143,0.7476806640625,-1.6632080078125,-0.9002685546875
12.209999900000001,7.623138427734375,-4.010287761688232,4.446032524108887,0.1678466796875,-1.8310546875,-1.6021728515625
12.229999900000001,7.613561630249023,-3.9624037742614746,4.520252704620361,-1.617431640625,-0.1678466796875,-3.1585693359375
12.2499999,7.613561630249023,-3.9001545906066895,4.620809078216553,-5.7220458984375,1.7242431640625,-5.8135986328125
12.2699999,7.608773231506348,-3.823540210723877,4.738125324249268,-11.5509033203125,3.2806396484375,-7.965087890625
12.289999900000002,7.6111674308776855,-3.7493197917938232,4.881777286529541,-17.8375244140625,4.3792724609375,-8.23974609375
12.309999900000001,7.618350028991699,-3.6727054119110107,5.039794445037842,-25.8941650390625,7.8277587890625,-8.4686279296875
12.3299999,7.637503623962402,-3.5936968326568604,5.2265424728393555,-35.8734130859375,14.2669677734375,-10.3759765625
12.3499999,7.6566572189331055,-3.509899616241455,5.386953830718994,-46.7987060546875,20.69091796875,-13.397216796875
12.3699999,7.666234016418457,-3.426102638244629,5.521028995513916,-58.807373046875,24.4293212890625,-16.815185546875
12.389999900000001,7.642292022705078,-3.3423056602478027,5.564124584197998,-70.1141357421875,24.5819091796875,-20.6756591796875
12.4099999,7.589619159698486,-3.287238836288452,5.544970989227295,-79.193115234375,23.92578125,-25.8636474609375
12.4299999,7.522581577301025,-3.2585084438323975,5.475539207458496,-88.348388671875,27.618408203125,-32.9437255859375
12.4499999,7.429207801818848,-3.2800562381744385,5.319916248321533,-97.9461669921875,35.430908203125,-42.5262451171875
12.469999900000001,7.333439826965332,-3.378218650817871,5.097255229949951,-103.302001953125,35.58349609375,-52.398681640625
12.4899999,7.242460250854492,-3.56017804145813,4.766855716705322,-106.0791015625,28.2440185546875,-59.5245361328125
12.5099999,7.187393665313721,-3.7852327823638916,4.367023944854736,-110.626220703125,16.9525146484375,-63.1866455078125
12.5299999,7.230489253997803,-4.048594951629639,3.950432777404785,-107.1319580078125,3.4027099609375,-61.6912841796875
12.549999900000001,7.407660007476807,-4.273650169372559,3.5625722408294678,-102.1881103515625,-11.0931396484375,-54.50439453125
12.569999900000001,7.702147006988525,-4.443638324737549,3.2345664501190186,-96.2371826171875,-23.3001708984375,-43.39599609375
12.5899999,8.061277389526367,-4.529829502105713,2.956839084625244,-89.202880859375,-31.18896484375,-30.1361083984375
12.6099999,8.413225173950195,-4.532223701477051,2.715024709701538,-81.1767578125,-36.163330078125,-16.571044921875
12.629999900000001,8.69095230102539,-4.4723687171936035,2.497152328491211,-72.2503662109375,-38.1622314453125,-5.55419921875
12.649999900000001,8.834604263305664,-4.378994941711426,2.276885747909546,-62.2406005859375,-36.2701416015625,0.9765625
12.6699999,8.820239067077637,-4.2951979637146,2.0638017654418945,-51.7425537109375,-33.6151123046875,3.72314453125
12.6899999,8.667010307312012,-4.2329487800598145,1.8387469053268433,-41.8853759765625,-34.2254638671875,3.5400390625
12.709999900000001,8.422801971435547,-4.2090067863464355,1.623268723487854,-32.3333740234375,-36.285400390625,0.7171630859375
12.729999900000001,8.17380428314209,-4.201824188232422,1.4891934394836426,-24.47509765625,-34.24072265625,-4.4403076171875
12.7499999,8.02536392211914,-4.2090067863464355,1.436521053314209,-20.4010009765625,-20.1568603515625,-11.71875
12.7699999,8.01339340209961,-4.223371982574463,1.4532804489135742,-19.1650390625,-2.0904541015625,-20.01953125
12.789999900000002,8.058882713317871,-4.256890773773193,1.4987702369689941,-19.1192626953125,3.0975341796875,-26.763916015625
12.809999900000001,8.154650688171387,-4.280832767486572,1.53707754611969,-21.1944580078125,-4.0740966796875,-28.62548828125
12.8299999,8.267178535461426,-4.24970817565918,1.556231141090393,-26.4892578125,-10.040283203125,-27.923583984375
12.8499999,8.418013572692871,-4.173093795776367,1.580173134803772,-34.2559814453125,-11.8408203125,-29.6783447265625
12.8699999,8.571242332458496,-4.010287761688232,1.558625340461731,-41.717529296875,-13.214111328125,-32.1807861328125
12.889999900000001,8.719682693481445,-3.8570590019226074,1.4652514457702637,-46.6766357421875,-19.4854736328125,-32.04345703125
12.9099999,8.801085472106934,-3.737348794937134,1.2665326595306396,-49.5452880859375,-27.3895263671875,-28.6407470703125
12.9299999,8.827422142028809,-3.6798880100250244,0.9911994934082031,-50.0640869140625,-30.670166015625,-25.299072265625
12.9499999,8.877699851989746,-3.6750996112823486,0.6919242739677429,-47.9736328125,-27.618408203125,-23.98681640625
12.969999900000001,8.992621421813965,-3.706224203109741,0.42616790533065796,-44.097900390625,-18.798828125,-23.468017578125
12.9899999,9.148244857788086,-3.7636849880218506,0.17956513166427612,-38.6199951171875,-7.4615478515625,-21.4385986328125
13.0099999,9.311050415039062,-3.84269380569458,-0.033518824726343155,-30.3192138671875,0.4425048828125,-18.280029296875
13.0299999,9.44752025604248,-3.9193081855773926,-0.22744916379451752,-19.2108154296875,4.6844482421875,-16.3421630859375
13.049999900000001,9.526528358459473,-3.9887399673461914,-0.395043283700943,-6.8359375,7.843017578125,-15.045166015625
13.069999900000001,9.555258750915527,-4.02465295791626,-0.507570743560791,5.06591796875,10.467529296875,-14.1143798828125
13.0899999,9.548076629638672,-4.019864559173584,-0.5339069962501526,15.411376953125,12.420654296875,-12.4359130859375
13.1099999,9.521739959716797,-3.9671921730041504,-0.4596867263317108,23.6053466796875,16.326904296875,-11.5814208984375
13.129999900000001,9.44991397857666,-3.8714241981506348,-0.31364041566848755,29.3731689453125,23.8037109375,-11.962890625
13.149999900000001,9.38048267364502,-3.732560396194458,-0.08619125932455063,32.562255859375,28.045654296875,-13.5650634765625
13.1699999,9.301473617553711,-3.5434184074401855,0.18914192914962769,32.7911376953125,27.6031494140625,-17.2271728515625
13.1899999,9.172186851501465,-3.337517261505127,0.47165772318840027,30.303955078125,26.5350341796875,-23.773193359375
13.209999900000001,9.014169692993164,-3.1459810733795166,0.7445967197418213,27.191162109375,23.01025390625,-29.47998046875
13.229999900000001,8.875306129455566,-2.9544448852539062,0.9481038451194763,24.5513916015625,13.5040283203125,-33.172607421875
13.2499999,8.813055992126465,-2.7509377002716064,1.137245774269104,22.9949951171875,-1.28173828125,-37.7197265625
13.2699999,8.904036521911621,-2.5450363159179688,1.3072341680526733,20.56884765625,-8.392333984375,-43.609619140625
13.289999900000002,9.093177795410156,-2.341529369354248,1.4724340438842773,17.3187255859375,0.2593994140625,-47.119140625
13.309999900000001,9.301473617553711,-2.183511972427368,1.6519991159439087,13.702392578125,12.14599609375,-46.1883544921875
13.3299999,9.430760383605957,-2.123656988143921,1.8076223134994507,10.6964111328125,25.360107421875,-41.2445068359375
13.3499999,9.461885452270508,-2.1739351749420166,1.8722656965255737,8.331298828125,37.933349609375,-31.4788818359375
13.3699999,9.44752025604248,-2.2457611560821533,1.9177556037902832,5.126953125,37.322998046875,-15.106201171875
13.389999900000001,9.437943458557129,-2.3295583724975586,1.9393033981323242,0.9613037109375,27.9388427734375,4.69970703125
13.4099999,9.428366661071777,-2.3750481605529785,1.9728221893310547,-3.8604736328125,23.529052734375,22.8729248046875
13.4299999,9.368511199951172,-2.363077163696289,2.054224967956543,-11.53564453125,26.0772705078125,36.1785888671875
13.4499999,9.260771751403809,-2.3104045391082764,2.164358377456665,-21.3623046875,30.1971435546875,44.6929931640625
13.469999900000001,9.157821655273438,-2.2194249629974365,2.2888567447662354,-29.327392578125,31.5399169921875,49.3316650390625
13.4899999,9.074024200439453,-2.1092917919158936,2.382230758666992,-32.04345703125,31.280517578125,45.71533203125
13.5099999,8.995016098022461,-2.0207061767578125,2.3918075561523438,-28.3660888671875,27.923583984375,29.84619140625
13.5299999,8.825027465820312,-2.0207061767578125,2.296039342880249,-20.660400390625,14.984130859375,8.48388671875
13.549999900000001,8.487444877624512,-2.1739351749420166,2.075772762298584,-12.5885009765625,-1.9683837890625,-6.8206787109375
13.569999900000001,8.08282470703125,-2.425326347351074,1.8291701078414917,-6.5765380859375,-16.8609619140625,-14.190673828125
13.5899999,7.793126583099365,-2.719813108444214,1.6663644313812256,-2.86865234375,-25.665283203125,-20.0958251953125
13.6099999,7.757213592529297,-2.9281086921691895,1.6424223184585571,-2.2735595703125,-27.7099609375,-26.2298583984375
13.629999900000001,8.001421928405762,-3.0310592651367188,1.721431016921997,-4.69970703125,-28.6712646484375,-31.06689453125
13.649999900000001,8.42040729522705,-3.028665065765381,1.8555063009262085,-8.2855224609375,-35.003662109375,-31.494140625
13.6699999,8.887276649475098,-2.9688100814819336,1.944091796875,-11.627197265625,-40.3594970703125,-27.6641845703125
13.6899999,9.339780807495117,-2.8778305053710938,1.9847931861877441,-13.7481689453125,-37.7655029296875,-23.101806640625
13.709999900000001,9.758766174316406,-2.7557260990142822,1.9919757843017578,-16.0675048828125,-28.3203125,-19.2413330078125
13.729999900000001,10.070012092590332,-2.631227731704712,1.9560627937316895,-18.585205078125,-14.3280029296875,-14.9688720703125
13.7499999,10.247182846069336,-2.5067291259765625,1.886630892753601,-20.7061767578125,-3.7841796875,-9.0179443359375
13.7699999,10.247182846069336,-2.3965959548950195,1.7741034030914307,-22.7813720703125,-0.4119873046875,-3.0670166015625
13.789999900000002,10.120290756225586,-2.296039342880249,1.6543933153152466,-25.238037109375,-0.4730224609375,0.8697509765625
13.809999900000001,9.959878921508789,-2.1571757793426514,1.5873557329177856,-30.059814453125,-0.3509521484375,2.349853515625
13.8299999,9.854534149169922,-1.9632453918457031,1.6208745241165161,-40.2984619140625,2.899169921875,1.2054443359375
13.8499999,9.84495735168457,-1.7190368175506592,1.745373010635376,-56.884765625,12.1002197265625,-1.1749267578125
13.8699999,9.873687744140625,-1.4628572463989258,1.8914192914962769,-78.7811279296875,25.32958984375,-3.72314453125
13.889999900000001,9.871294021606445,-1.2713210582733154,1.965639591217041,-101.07421875,32.5775146484375,-5.0048828125
13.9099999,9.732429504394531,-1.1755530834197998,1.8842366933822632,-119.8883056640625,28.0609130859375,-3.7689208984375
13.9299999,9.41639518737793,-1.2186486721038818,1.6041151285171509,-134.5977783203125,14.068603515625,-2.716064453125
13.9499999,8.99740982055664,-1.3670891523361206,1.1827356815338135,-143.402099609375,-5.06591796875,-2.3193359375
13.969999900000001,8.640673637390137,-1.601720929145813,0.6991068720817566,-146.0113525390625,-20.7672119140625,-2.8839111328125
13.9899999,8.434772491455078,-1.867477297782898,0.22266076505184174,-144.561767578125,-27.862548828125,-5.67626953125
14.0099999,8.429984092712402,-2.1284453868865967,-0.2106897532939911,-139.7705078125,-30.21240234375,-9.796142578125
14.0299999,8.576030731201172,-2.3535003662109375,-0.6129156351089478,-131.8359375,-30.7464599609375,-13.9312744140625
14.049999900000001,8.791508674621582,-2.494758129119873,-1.0127472877502441,-121.612548828125,-28.8238525390625,-17.974853515625
14.069999900000001,9.069235801696777,-2.5713725090026855,-1.3718775510787964,-109.893798828125,-22.979736328125,-22.735595703125
14.0899999,9.44991397857666,-2.612074136734009,-1.656787633895874,-96.160888671875,-10.2386474609375,-26.7791748046875
14.1099999,9.854534149169922,-2.6647465229034424,-1.8555063009262085,-80.2764892578125,9.1552734375,-27.40478515625
14.129999900000001,10.187328338623047,-2.779668092727661,-1.9967641830444336,-62.2711181640625,27.1453857421875,-23.8189697265625
14.149999900000001,10.342951774597168,-2.9448680877685547,-2.097320795059204,-42.8466796875,34.5611572265625,-17.181396484375
14.1699999,10.290278434753418,-3.1196448802948,-2.142810583114624,-23.3917236328125,33.99658203125,-9.307861328125
14.1899999,10.086771965026855,-3.2585084438323975,-2.10210919380188,-4.8980712890625,35.797119140625,-1.28173828125
14.209999900000001,9.847352027893066,-3.3303346633911133,-1.9249382019042969,11.8408203125,41.32080078125,6.103515625
14.229999900000001,9.66299819946289,-3.332728862762451,-1.599326729774475,25.5279541015625,47.1343994140625,11.7950439453125
14.2499999,9.545681953430176,-3.2776620388031006,-1.1659762859344482,35.8123779296875,53.802490234375,15.411376953125
14.2699999,9.500192642211914,-3.1866824626922607,-0.6536170840263367,42.96875,60.302734375,17.9290771484375
14.289999900000002,9.500192642211914,-3.0765492916107178,-0.09576806426048279,46.8597412109375,65.185546875,20.050048828125
14.309999900000001,9.469067573547363,-2.9472622871398926,0.47644615173339844,47.54638671875,68.634033203125,20.538330078125
14.3299999,9.370905876159668,-2.8179752826690674,1.0127472877502441,45.623779296875,72.4945068359375,18.341064453125
14.3499999,9.174580574035645,-2.676717519760132,1.5059528350830078,41.8243408203125,77.1026611328125,14.2364501953125
14.3699999,8.89445972442627,-2.540247917175293,1.9273324012756348,38.3758544921875,75.9735107421875,8.758544921875
14.389999900000001,8.595184326171875,-2.4157495498657227,2.2912509441375732,34.9578857421875,71.7315673828125,2.410888671875
14.4099999,8.336610794067383,-2.3080103397369385,2.6216509342193604,31.1279296875,65.3076171875,-3.936767578125
14.4299999,8.161833763122559,-2.2146365642547607,2.935291290283203,26.824951171875,58.0291748046875,-9.429931640625
14.4499999,8.08282470703125,-2.1356279850006104,3.24414324760437,22.15576171875,49.62158203125,-13.1378173828125
14.469999900000001,8.085219383239746,-2.0638017654418945,3.533841609954834,16.7236328125,41.9921875,-15.289306640625
14.4899999,8.135497093200684,-1.9967641830444336,3.7876269817352295,11.4593505859375,35.9649658203125,-16.5252685546875
14.5099999,8.209717750549316,-1.9273324012756348,3.995922565460205,7.3394775390625,28.900146484375,-17.15087890625
14.5299999,8.281543731689453,-1.8602946996688843,4.151545524597168,4.2572021484375,22.1405029296875,-17.51708984375
14.549999900000001,8.334216117858887,-1.7932571172714233,4.261679172515869,2.044677734375,17.059326171875,-17.303466796875
14.569999900000001,8.374917984008789,-1.7334020137786865,4.326322555541992,0.640869140625,12.908935546875,-15.960693359375
14.5899999,8.391676902770996,-1.680729627609253,4.355052947998047,0.6561279296875,9.063720703125,-13.8092041015625
14.6099999,8.401253700256348,-1.6400281190872192,4.347870349884033,2.0599365234375,4.9896240234375,-11.4593505859375
14.629999900000001,8.422801971435547,-1.6136919260025024,4.314351558685303,4.0740966796875,0.2899169921875,-8.8043212890625
14.649999900000001,8.463502883911133,-1.6041151285171509,4.252102375030518,6.195068359375,-5.2337646484375,-5.6915283203125
14.6699999,8.518569946289062,-1.5945383310317993,4.170699596405029,8.48388671875,-12.02392578125,-1.8463134765625
14.6899999,8.580819129943848,-1.5729905366897583,4.072536945343018,10.3607177734375,-17.8680419921875,1.4801025390625
14.709999900000001,8.62391471862793,-1.522712230682373,3.976768970489502,11.688232421875,-20.2789306640625,3.5858154296875
14.729999900000001,8.647856712341309,-1.4508862495422363,3.885789394378662,12.6800537109375,-19.9127197265625,4.425048828125
14.7499999,8.65743350982666,-1.3766659498214722,3.797203779220581,13.73291015625,-18.8751220703125,4.69970703125
14.7699999,8.669404029846191,-1.314416766166687,3.7158010005950928,15.1214599609375,-19.2413330078125,5.2337646484375
14.789999900000002,8.69095230102539,-1.2737152576446533,3.6391866207122803,16.4642333984375,-19.4091796875,5.5999755859375
14.809999900000001,8.731653213500977,-1.2617442607879639,3.5625722408294678,17.7001953125,-17.76123046875,5.6304931640625
14.8299999,8.767566680908203,-1.2617442607879639,3.4835634231567383,18.6614990234375,-18.1732177734375,6.6070556640625
14.8499999,8.78193187713623,-1.2737152576446533,3.397372245788574,18.9666748046875,-22.6287841796875,8.97216796875
14.8699999,8.75080680847168,-1.280897855758667,3.2968156337738037,18.3563232421875,-26.763916015625,11.16943359375
14.889999900000001,8.705317497253418,-1.2545616626739502,3.2297780513763428,16.66259765625,-27.1148681640625,11.138916015625
14.9099999,8.662221908569336,-1.1875240802764893,3.1962592601776123,13.5345458984375,-20.6146240234375,7.9345703125
14.9299999,8.647856712341309,-1.0965443849563599,3.1890766620635986,10.3912353515625,-9.429931640625,2.471923828125
14.9499999,8.638279914855957,-1.0031704902648926,3.1699230670928955,7.537841796875,-2.0904541015625,-2.3651123046875
14.969999900000001,8.643068313598633,-0.9552865028381348,3.095702886581421,4.5928955078125,-2.8228759765625,-4.9896240234375
14.9899999,8.681375503540039,-0.9624691009521484,2.980781078338623,1.2664794921875,-9.21630859375,-5.5084228515625
15.0099999,8.774748802185059,-1.0319008827209473,2.829946517944336,-3.3721923828125,-15.6402587890625,-4.5166015625
15.0299999,8.937555313110352,-1.161187767982483,2.674323320388794,-8.636474609375,-23.468017578125,0
15.049999900000001,9.136273384094238,-1.338358759880066,2.518700122833252,-14.6331787109375,-34.2254638671875,7.720947265625
15.069999900000001,9.349357604980469,-1.558625340461731,2.3582887649536133,-20.355224609375,-41.656494140625,16.2811279296875
15.0899999,9.526528358459473,-1.7812861204147339,2.185906171798706,-25.238037109375,-42.510986328125,24.017333984375
15.1099999,9.648633003234863,-1.9823989868164062,2.008735179901123,-28.8238525390625,-40.008544921875,29.0985107421875
15.129999900000001,9.708487510681152,-2.1547815799713135,1.8195933103561401,-30.6396484375,-35.64453125,30.7769775390625
15.149999900000001,9.682151794433594,-2.300827741622925,1.6065093278884888,-30.548095703125,-29.754638671875,29.937744140625
15.1699999,9.586383819580078,-2.449268341064453,1.3670891523361206,-28.7017822265625,-24.47509765625,27.2674560546875
15.1899999,9.457097053527832,-2.5977089405059814,1.115697979927063,-25.054931640625,-21.6827392578125,23.5137939453125
15.209999900000001,9.320627212524414,-2.765302896499634,0.8595184087753296,-19.9737548828125,-21.881103515625,19.989013671875
15.229999900000001,9.205705642700195,-2.940079689025879,0.6200982332229614,-14.2974853515625,-24.200439453125,17.9595947265625
15.2499999,9.155426979064941,-3.1100680828094482,0.43335050344467163,-9.1552734375,-27.0538330078125,17.425537109375
15.2699999,9.17936897277832,-3.2632968425750732,0.31603461503982544,-5.0048828125,-25.3448486328125,16.7236328125
15.289999900000002,9.27034854888916,-3.3854012489318848,0.26575639843940735,-1.3580322265625,-19.5159912109375,16.0369873046875
15.309999900000001,9.394847869873047,-3.469198226928711,0.2825157940387726,1.251220703125,-15.7470703125,16.3421630859375
15.3299999,9.514557838439941,-3.514688014984131,0.33758243918418884,2.8533935546875,-13.916015625,16.8304443359375
15.3499999,9.581595420837402,-3.5386300086975098,0.40701428055763245,3.3721923828125,-9.2926025390625,15.9454345703125
15.3699999,9.591172218322754,-3.5458126068115234,0.47165772318840027,3.692626953125,-3.2196044921875,14.068603515625
15.389999900000001,9.5408935546875,-3.5649664402008057,0.5147533416748047,4.2877197265625,0.1068115234375,12.420654296875
15.4099999,9.44752025604248,-3.5889084339141846,0.5386953949928284,5.06591796875,0.457763671875,11.3983154296875
15.4299999,9.332598686218262,-3.620033025741577,0.5530605912208557,5.6610107421875,1.251220703125,9.9334716796875
15.4499999,9.217676162719727,-3.641580820083618,0.5746083855628967,6.2255859375,2.74658203125,8.36181640625
15.469999900000001,9.121908187866211,-3.646369218826294,0.6177040338516235,7.1563720703125,3.96728515625,7.3394775390625
15.4899999,9.047688484191895,-3.624821424484253,0.6799532771110535,8.1939697265625,4.8980712890625,6.2255859375
15.5099999,9.002198219299316,-3.509899616241455,0.8571242094039917,9.4757080078125,5.0048828125,2.0904541015625
15.5299999,9.014169692993164,-3.428496837615967,0.9576807022094727,9.5977783203125,4.6234130859375,0.8392333984375
15.549999900000001,9.01895809173584,-3.3494882583618164,1.0534487962722778,9.21630859375,3.753662109375,0.518798828125
15.569999900000001,9.004592895507812,-3.2848446369171143,1.1228805780410767,8.5601806640625,2.3651123046875,0.4119873046875
15.5899999,8.971074104309082,-3.2345664501190186,1.1659762859344482,8.148193359375,1.2054443359375,0.2288818359375
15.6099999,8.939949035644531,-3.1962592601776123,1.1875240802764893,8.1329345703125,1.4495849609375,-0.1068115234375
15.629999900000001,8.925583839416504,-3.162740468978882,1.1971008777618408,8.209228515625,3.204345703125,-0.5950927734375
15.649999900000001,8.927978515625,-3.136404275894165,1.2042834758758545,8.2550048828125,3.96728515625,-0.885009765625
15.6699999,8.939949035644531,-3.1076738834381104,1.2090718746185303,8.0413818359375,1.9683837890625,-0.5645751953125
15.6899999,8.96149730682373,-3.0789434909820557,1.2234370708465576,7.6751708984375,-0.8697509765625,0.06103515625
15.709999900000001,8.999804496765137,-3.0550012588500977,1.2497732639312744,7.415771484375,-1.7852783203125,0.30517578125
15.729999900000001,9.05487060546875,-3.0334534645080566,1.290474772453308,6.9580078125,-0.8392333984375,0.1068115234375
15.7499999,9.105149269104004,-3.0142998695373535,1.338358759880066,6.011962890625,-0.091552734375,-0.1220703125
15.7699999,9.131484985351562,-3.004723072052002,1.3694833517074585,4.852294921875,-0.6256103515625,0.3204345703125
15.789999900000002,9.121908187866211,-3.0119056701660156,1.37906014919281,3.7078857421875,-1.5106201171875,1.129150390625
15.809999900000001,9.074024200439453,-3.0382418632507324,1.3551181554794312,2.8228759765625,-1.6021728515625,2.0294189453125
15.8299999,9.02135181427002,-3.0813376903533936,1.314416766166687,2.1514892578125,-1.28173828125,2.8076171875
15.8499999,8.990227699279785,-3.134010076522827,1.2641384601593018,2.2125244140625,-2.4261474609375,3.84521484375
15.869999900000002,8.983044624328613,-3.1890766620635986,1.216254472732544,2.7313232421875,-5.1422119140625,5.218505859375
15.889999900000001,9.004592895507812,-3.2321722507476807,1.1827356815338135,3.2806396484375,-7.26318359375,6.195068359375
15.9099999,9.040505409240723,-3.2609026432037354,1.1683704853057861,3.72314453125,-7.4920654296875,6.561279296875
15.9299999,9.078812599182129,-3.2632968425750732,1.1683704853057861,4.4097900390625,-6.7291259765625,6.40869140625
15.9499999,9.105149269104004,-3.2537200450897217,1.1779472827911377,5.5084228515625,-6.04248046875,6.28662109375
15.969999900000001,9.114726066589355,-3.2417490482330322,1.1779472827911377,6.9732666015625,-6.744384765625,7.0648193359375
15.9899999,9.10993766784668,-3.24414324760437,1.1683704853057861,8.2244873046875,-9.6588134765625,8.8348388671875
16.0099999,9.074024200439453,-3.2776620388031006,1.1420341730117798,9.0179443359375,-13.0157470703125,11.4898681640625
16.0299999,9.023746490478516,-3.337517261505127,1.0989385843276978,9.6588134765625,-15.045166015625,14.6942138671875
16.0499999,8.968679428100586,-3.426102638244629,1.048660397529602,10.07080078125,-16.357421875,17.7001953125
16.0699999,8.916007041931152,-3.5266590118408203,0.9983820915222168,10.498046875,-16.1895751953125,19.59228515625
16.089999900000002,8.87051773071289,-3.6391866207122803,0.9289502501487732,11.7340087890625,-13.824462890625,20.233154296875
16.109999900000002,8.813055992126465,-3.758896589279175,0.8331822156906128,13.916015625,-12.603759765625,20.20263671875
16.1299999,8.700529098510742,-3.8738183975219727,0.6943184733390808,16.7236328125,-15.44189453125,19.4091796875
16.1499999,8.520963668823242,-3.974374771118164,0.5626373887062073,19.4091796875,-18.524169921875,17.486572265625
16.1699999,8.317456245422363,-4.067748546600342,0.49799394607543945,21.6217041015625,-14.1448974609375,15.4571533203125
16.1899999,8.1139497756958,-4.177882194519043,0.5123591423034668,23.3001708984375,-2.6702880859375,16.387939453125
16.2099999,7.9846625328063965,-4.326322555541992,0.5841852426528931,24.96337890625,3.41796875,21.5911865234375
16.2299999,7.939172744750977,-4.508281707763672,0.6560112833976746,27.2064208984375,-4.6234130859375,28.6407470703125
16.249999900000002,7.908048152923584,-4.69024133682251,0.6775590777397156,29.693603515625,-18.096923828125,33.5235595703125
16.269999900000002,7.793126583099365,-4.824316501617432,0.629675030708313,31.341552734375,-26.1077880859375,35.0189208984375
16.2899999,7.51779317855835,-4.8722004890441895,0.5386953949928284,31.768798828125,-29.9072265625,35.491943359375
16.3099999,7.12035608291626,-4.855441093444824,0.40940847992897034,31.5704345703125,-31.707763671875,37.109375
16.3299999,6.732495307922363,-4.802768707275391,0.26096799969673157,31.6162109375,-32.745361328125,40.0848388671875
16.3499999,6.531382083892822,-4.73573112487793,0.11971008777618408,31.73828125,-35.7666015625,43.7164306640625
16.3699999,6.555324077606201,-4.692635536193848,-0.009576806798577309,31.8603515625,-39.6881103515625,47.119140625
16.3899999,6.751648902893066,-4.67827033996582,-0.12928688526153564,31.494140625,-43.548583984375,51.788330078125
16.4099999,7.043741226196289,-4.716577529907227,-0.26336219906806946,29.571533203125,-48.3245849609375,58.0596923828125
16.429999900000002,7.371747016906738,-4.8602294921875,-0.45250412821769714,24.383544921875,-52.4444580078125,62.7899169921875
16.4499999,7.6782050132751465,-4.934449672698975,-0.5386953949928284,10.7269287109375,-48.980712890625,62.5152587890625
16.4699999,7.975085735321045,-5.1331682205200195,-0.6823474764823914,12.115478515625,-46.3714599609375,67.779541015625
16.4899999,8.17141056060791,-5.243301868438721,-0.751779317855835,5.2032470703125,-41.6259765625,70.6939697265625
16.5099999,8.29830265045166,-5.453991413116455,-0.849941611289978,-4.1656494140625,-41.534423828125,73.0743408203125
16.5299999,8.327033042907715,-5.793968200683594,-1.0319008827209473,-13.671875,-37.2161865234375,76.416015625
16.5499999,8.343792915344238,-6.22731876373291,-1.2066776752471924,-22.705078125,-28.7628173828125,81.695556640625
16.5699999,8.348581314086914,-6.689399719238281,-1.3527239561080933,-25.9857177734375,-15.93017578125,83.8165283203125
16.589999900000002,8.283937454223633,-7.074865818023682,-1.50355863571167,-28.3355712890625,2.3956298828125,79.437255859375
16.609999900000002,8.135497093200684,-7.295132637023926,-1.6400281190872192,-33.4930419921875,13.2598876953125,69.244384765625
16.6299999,7.910442352294922,-7.359776020050049,-1.7884687185287476,-36.712646484375,13.9312744140625,57.2509765625
16.6499999,7.637503623962402,-7.347805023193359,-1.944091796875,-36.590576171875,14.5111083984375,47.3480224609375
16.6699999,7.395689010620117,-7.328651428222656,-2.073378562927246,-35.4461669921875,15.68603515625,42.8619384765625
16.6899999,7.266402244567871,-7.316680431365967,-2.121262788772583,-36.651611328125,14.2364501953125,42.816162109375
16.7099999,7.2568254470825195,-7.321468830108643,-2.0685901641845703,-38.7420654296875,20.2484130859375,43.2281494140625
16.7299999,7.328651428222656,-7.309497833251953,-1.9249382019042969,-41.0003662109375,35.9954833984375,43.3807373046875
16.749999900000002,7.429207801818848,-7.280767440795898,-1.7142484188079834,-43.609619140625,50.3387451171875,44.342041015625
16.769999900000002,7.481880187988281,-7.249642848968506,-1.4867992401123047,-43.2891845703125,57.8765869140625,46.9970703125
16.7899999,7.424419403076172,-7.2352776527404785,-1.2737152576446533,-40.252685546875,62.042236328125,49.346923828125
16.8099999,7.228095054626465,-7.237671852111816,-1.1180921792984009,-35.7513427734375,66.71142578125,50.3692626953125
16.8299999,6.955155849456787,-7.264008045196533,-0.9864110946655273,-30.426025390625,65.6280517578125,51.5289306640625
16.8499999,6.658275127410889,-7.319074630737305,-0.849941611289978,-25.4669189453125,57.2967529296875,54.1534423828125
16.8699999,6.402095317840576,-7.393294811248779,-0.6847416758537292,-21.697998046875,49.86572265625,59.234619140625
16.8899999,6.174646377563477,-7.5201873779296875,-0.47165772318840027,-19.2718505859375,47.637939453125,66.0858154296875
16.9099999,5.990292549133301,-7.6566572189331055,-0.20350714027881622,-17.2882080078125,51.3916015625,72.3876953125
16.929999900000002,5.8203043937683105,-7.797914981842041,0.07661445438861847,-13.1683349609375,62.98828125,73.54736328125
16.9499999,5.60722017288208,-7.9415669441223145,0.3208230137825012,-6.561279296875,76.7974853515625,69.9310302734375
16.9699999,5.3797712326049805,-8.092401504516602,0.5003881454467773,0.9765625,82.58056640625,65.2008056640625
16.9899999,5.1331682205200195,-8.293514251708984,0.608127236366272,9.552001953125,77.81982421875,61.981201171875
17.0099999,4.829104900360107,-8.578424453735352,0.6631938815116882,19.3939208984375,67.7947998046875,61.9354248046875
17.0299999,4.522646903991699,-8.884882926940918,0.7374141216278076,27.1759033203125,56.4727783203125,63.201904296875
17.0499999,4.220977783203125,-9.193734169006348,0.8571242094039917,29.9072265625,48.7823486328125,61.7828369140625
17.0699999,3.931279182434082,-9.442731857299805,1.0342950820922852,30.303955078125,45.7305908203125,57.0068359375
17.089999900000002,3.7158010005950928,-9.610325813293457,1.2521674633026123,31.1126708984375,44.891357421875,50.78125
17.109999900000002,3.5889084339141846,-9.6989107131958,1.4748282432556152,31.005859375,47.5006103515625,44.73876953125
17.1299999,3.49314022064209,-9.75637149810791,1.6496049165725708,29.8309326171875,52.8564453125,41.6717529296875
17.1499999,3.378218650817871,-9.773131370544434,1.7812861204147339,28.717041015625,54.656982421875,41.9769287109375
17.1699999,3.203441858291626,-9.739612579345703,1.8411411046981812,27.3590087890625,52.42919921875,42.022705078125
17.1899999,2.985569477081299,-9.653421401977539,1.8770540952682495,24.0478515625,50.048828125,39.12353515625
17.2099999,2.719813108444214,-9.557653427124023,1.9057846069335938,18.3563232421875,51.116943359375,36.0260009765625
17.2299999,2.449268341064453,-9.430760383605957,1.946485996246338,13.1988525390625,54.6417236328125,35.1715087890625
17.249999900000002,2.1954829692840576,-9.320627212524414,2.0039467811584473,7.904052734375,56.09130859375,34.48486328125
17.269999900000002,1.9584569931030273,-9.263166427612305,2.0614075660705566,1.9378662109375,57.5408935546875,34.3017578125
17.2899999,1.7046716213226318,-9.23682975769043,2.0422539710998535,-2.9754638671875,61.2030029296875,36.7584228515625
17.3099999,1.4700398445129395,-9.263166427612305,1.9800047874450684,-3.5247802734375,59.50927734375,39.48974609375
17.3299999,1.192312479019165,-9.327810287475586,1.8531121015548706,-0.5645751953125,52.825927734375,39.5965576171875
17.3499999,0.9002198576927185,-9.394847869873047,1.7070658206939697,2.2735595703125,49.3621826171875,36.8804931640625
17.3699999,0.629675030708313,-9.437943458557129,1.5897499322891235,6.0882568359375,47.576904296875,32.5164794921875
17.3899999,0.3974374830722809,-9.476250648498535,1.5275006294250488,11.3372802734375,44.586181640625,28.2135009765625
17.409999900000003,0.22026655077934265,-9.50737476348877,1.5179238319396973,16.29638671875,38.4063720703125,24.35302734375
17.429999900000002,0.33279404044151306,-9.955090522766113,1.8171991109848022,18.9208984375,32.28759765625,20.7672119140625
17.4499999,0.31364041566848755,-10.043676376342773,2.0590133666992188,0.2288818359375,27.130126953125,30.5938720703125
17.4699999,0.4165911078453064,-10.251971244812012,2.33913516998291,-28.7017822265625,36.956787109375,35.247802734375
17.4899999,0.5147533416748047,-10.395624160766602,2.564189910888672,-18.00537109375,42.9229736328125,20.843505859375
17.5099999,0.3064578175544739,-10.129867553710938,2.494758129119873,-23.590087890625,42.633056640625,16.1285400390625
17.5299999,0.16759411990642548,-10.070012092590332,2.4229321479797363,-31.5704345703125,32.318115234375,9.27734375
17.5499999,0.002394201699644327,-9.801861763000488,2.3702597618103027,-32.3944091796875,22.3388671875,-5.1116943359375
17.5699999,-0.06224924325942993,-9.452308654785156,2.367865562438965,-38.3453369140625,23.74267578125,-9.7808837890625
17.589999900000002,0.038307227194309235,-9.995792388916016,2.054224967956543,-46.32568359375,30.76171875,-3.2501220703125
17.609999900000002,0.019153613597154617,-9.940725326538086,1.6112977266311646,-31.7535400390625,24.444580078125,3.3721923828125
17.6299999,-0.009576806798577309,-10.56800651550293,0.8451532125473022,-4.3792724609375,4.9285888671875,-2.13623046875
17.6499999,-0.19632454216480255,-10.563218116760254,-0.014365210197865963,12.9547119140625,-2.0599365234375,-7.568359375
17.6699999,-0.20111294090747833,-10.24239444732666,-0.26096799969673157,30.120849609375,-10.5133056640625,0.213623046875
17.6899999,-0.12210428714752197,-9.93593692779541,-0.15322890877723694,5.950927734375,-22.7813720703125,12.7410888671875
17.7099999,0.18914192914962769,-9.75397777557373,0.3711012601852417,-8.331298828125,-24.139404296875,2.899169921875
17.7299999,0.5219359993934631,-9.610325813293457,1.0462661981582642,2.8228759765625,-6.6070556640625,-7.3089599609375
17.749999900000002,0.7876923680305481,-9.667786598205566,1.37906014919281,-0.4425048828125,-0.152587890625,0.8544921875
17.769999900000002,1.039083480834961,-9.72285270690918,1.5873557329177856,1.0223388671875,-0.4119873046875,3.1280517578125
17.7899999,1.113303780555725,-9.782708168029785,1.5969325304031372,1.8310546875,2.0904541015625,3.84521484375
17.8099999,0.9552865028381348,-9.854534149169922,1.5155296325683594,-0.3204345703125,1.40380859375,6.04248046875
17.8299999,0.6344634294509888,-9.813833236694336,1.525106430053711,1.46484375,1.3275146484375,1.617431640625
17.8499999,0.3280056416988373,-9.84256362915039,1.3742717504501343,0.396728515625,-1.800537109375,-3.6163330078125
17.8699999,0.13407529890537262,-9.80904483795166,1.3886369466781616,0.3814697265625,-10.1165771484375,0.06103515625
17.8899999,0.15562310814857483,-9.823410034179688,1.3479355573654175,0.1373291015625,-10.1470947265625,3.8299560546875
17.909999900000003,0.2298433631658554,-9.81143856048584,1.3670891523361206,-0.4730224609375,-0.4119873046875,0
17.929999900000002,0.3423708379268646,-9.804255485534668,1.4101848602294922,-0.9002685546875,1.03759765625,-3.5552978515625
17.9499999,0.37828385829925537,-9.804255485534668,1.414973258972168,-1.068115234375,-0.7171630859375,-3.3721923828125
17.9699999,0.44532153010368347,-9.799467086791992,1.436521053314209,0.5035400390625,0.6256103515625,-2.8228759765625
17.9899999,0.545877993106842,-9.830592155456543,1.37906014919281,-0.885009765625,0.091552734375,-0.8697509765625
18.0099999,0.646434485912323,-9.856928825378418,1.335964560508728,-0.640869140625,1.129150390625,1.861572265625
18.0299999,0.6919242739677429,-9.854534149169922,1.338358759880066,2.0751953125,1.89208984375,2.74658203125
18.0499999,0.629675030708313,-9.864110946655273,1.3072341680526733,0.1220703125,0.9307861328125,2.3040771484375
18.0699999,0.49320554733276367,-9.840168952941895,1.3311761617660522,-0.9765625,0.7781982421875,0.030517578125
18.089999900000002,0.3495534360408783,-9.813833236694336,1.3886369466781616,0.274658203125,0.3204345703125,-2.105712890625
18.109999900000002,0.2585737705230713,-9.813833236694336,1.4053963422775269,-0.579833984375,0.152587890625,-2.8076171875
18.1299999,0.2801215946674347,-9.806650161743164,1.4077905416488647,-1.15966796875,-0.1068115234375,-2.7618408203125
18.1499999,0.3878606855869293,-9.823410034179688,1.3862427473068237,-0.42724609375,0.274658203125,-1.1749267578125
18.1699999,0.5267243981361389,-9.84256362915039,1.3527239561080933,0.5340576171875,1.2054443359375,1.1444091796875
18.1899999,0.6224924325942993,-9.849745750427246,1.3407529592514038,0.79345703125,1.2664794921875,2.166748046875
18.2099999,0.6224924325942993,-9.849745750427246,1.338358759880066,-0.18310546875,1.28173828125,1.9378662109375
18.2299999,0.5339069962501526,-9.837775230407715,1.357512354850769,-0.2899169921875,0.9918212890625,0.7476806640625
18.249999900000002,0.40701428055763245,-9.818621635437012,1.3934253454208374,0.3662109375,0.579833984375,-1.251220703125
18.269999900000002,0.31364041566848755,-9.80904483795166,1.403002142906189,-0.67138671875,-0.06103515625,-3.0517578125
18.2899999,0.3064578175544739,-9.81143856048584,1.3910311460494995,-1.52587890625,-0.335693359375,-2.960205078125
18.3099999,0.3926490843296051,-9.821015357971191,1.3886369466781616,0.18310546875,0.48828125,-1.1749267578125
18.3299999,0.5147533416748047,-9.832986831665039,1.3694833517074585,0.701904296875,0.91552734375,0.762939453125
18.3499999,0.6009446382522583,-9.852140426635742,1.3407529592514038,-0.3204345703125,0.9613037109375,2.0599365234375
18.3699999,0.6057330369949341,-9.84495735168457,1.3503297567367554,0.2288818359375,1.434326171875,1.953125
18.3899999,0.5291185975074768,-9.837775230407715,1.3670891523361206,0.6256103515625,1.0986328125,0.7476806640625
18.409999900000003,0.4141969084739685,-9.823410034179688,1.3862427473068237,-0.3814697265625,0.3509521484375,-1.373291015625
18.429999900000002,0.33039984107017517,-9.80904483795166,1.403002142906189,-1.1444091796875,-0.1983642578125,-2.8839111328125
18.4499999,0.3232172429561615,-9.80904483795166,1.403002142906189,-0.5950927734375,0.06103515625,-2.197265625
18.4699999,0.395043283700943,-9.816226959228516,1.3982137441635132,0.274658203125,0.54931640625,-0.9765625
18.4899999,0.49559974670410156,-9.828198432922363,1.3670891523361206,-0.2593994140625,0.6561279296875,0.244140625
18.5099999,0.5746083855628967,-9.84256362915039,1.3407529592514038,-0.3204345703125,1.03759765625,1.495361328125
18.5299999,0.5889736413955688,-9.840168952941895,1.3503297567367554,0.9613037109375,1.40380859375,1.8768310546875
18.5499999,0.5315127968788147,-9.835380554199219,1.359906554222107,0.3509521484375,0.9613037109375,0.9002685546875
18.5699999,0.4381389021873474,-9.821015357971191,1.381454348564148,-0.946044921875,0.3509521484375,-1.068115234375
18.589999900000002,0.35673606395721436,-9.813833236694336,1.403002142906189,-0.701904296875,0.091552734375,-2.2430419921875
18.609999900000002,0.33758243918418884,-9.81143856048584,1.4077905416488647,-0.1068115234375,0.2593994140625,-2.0751953125
18.6299999,0.38546648621559143,-9.816226959228516,1.3910311460494995,-0.30517578125,0.30517578125,-1.434326171875
18.6499999,0.47405192255973816,-9.830592155456543,1.3623007535934448,-0.5340576171875,0.6103515625,-0.0457763671875
18.6699999,0.5530605912208557,-9.840168952941895,1.357512354850769,0.457763671875,1.2054443359375,1.3885498046875
18.6899999,0.5817909836769104,-9.837775230407715,1.357512354850769,0.640869140625,1.2054443359375,1.64794921875
18.7099999,0.5410895943641663,-9.832986831665039,1.3623007535934448,-0.3662109375,0.8697509765625,0.762939453125
18.7299999,0.4620809257030487,-9.821015357971191,1.381454348564148,-0.3662109375,0.457763671875,-0.762939453125
18.749999900000002,0.38546648621559143,-9.813833236694336,1.400607943534851,-0.091552734375,0.274658203125,-1.7547607421875
18.769999900000002,0.35673606395721436,-9.816226959228516,1.4053963422775269,-0.396728515625,0.18310546875,-2.13623046875
18.7899999,0.3902548849582672,-9.821015357971191,1.3934253454208374,-0.7781982421875,0.1373291015625,-1.617431640625
18.8099999,0.4668693244457245,-9.832986831665039,1.37906014919281,-0.1220703125,0.7171630859375,-0.030517578125
18.8299999,0.5434837937355042,-9.840168952941895,1.3718775510787964,0.732421875,1.0986328125,1.0223388671875
18.8499999,0.5770025849342346,-9.847352027893066,1.3551181554794312,0.0762939453125,0.91552734375,1.2969970703125
18.8699999,0.5482721924781799,-9.84256362915039,1.359906554222107,-0.396728515625,0.885009765625,0.823974609375
18.8899999,0.5003881454467773,-9.835380554199219,1.37906014919281,0.152587890625,0.7476806640625,-0.244140625
18.909999900000003,0.4692635238170624,-9.825803756713867,1.3886369466781616,-0.1373291015625,0.7476806640625,-0.701904296875
18.929999900000002,0.5770025849342346,-9.821015357971191,1.4389152526855469,-0.6866455078125,1.15966796875,0.5340576171875
18.9499999,0.7398083209991455,-9.797073364257812,1.4844050407409668,-0.9307861328125,8.11767578125,2.2735595703125
18.9699999,0.768538773059845,-9.794678688049316,1.4221558570861816,-0.732421875,18.035888671875,0.1678466796875
18.9899999,0.6560112833976746,-9.816226959228516,1.3646949529647827,-0.457763671875,9.5672607421875,-1.89208984375
19.0099999,0.304063618183136,-9.782708168029785,1.3431471586227417,1.4801025390625,-4.486083984375,0.1983642578125
19.0299999,-0.07182604819536209,-9.818621635437012,1.3311761617660522,-1.7547607421875,-1.7242431640625,-4.5166015625
19.0499999,-0.2059013396501541,-9.780313491821289,1.53707754611969,-2.777099609375,5.6915283203125,-9.6282958984375
19.0699999,-0.1173158809542656,-9.813833236694336,1.6352397203445435,-3.72314453125,25.238037109375,-7.7056884765625
19.089999900000002,0.19632454216480255,-9.947908401489258,1.778891921043396,-0.8392333984375,61.370849609375,3.6468505859375
19.109999900000002,0.011971008032560349,-10.029311180114746,1.7836803197860718,-3.7841796875,62.835693359375,3.8604736328125
19.1299999,-0.3687070608139038,-10.15141487121582,1.7118542194366455,-0.732421875,55.145263671875,3.4027099609375
19.1499999,-0.6703764796257019,-10.213664054870605,1.6424223184585571,6.0272216796875,37.689208984375,8.758544921875
19.1699999,-0.9097966551780701,-10.338163375854492,1.5394717454910278,11.3067626953125,25.2838134765625,10.8489990234375
19.1899999,-1.0342950820922852,-10.402806282043457,1.4293384552001953,17.15087890625,19.3939208984375,5.9356689453125
19.2099999,-1.170764684677124,-10.577583312988281,1.3958195447921753,27.0843505859375,9.58251953125,-4.33349609375
19.2299999,-1.414973258972168,-10.78587818145752,1.403002142906189,36.8499755859375,-0.1373291015625,-16.6473388671875
19.249999900000002,-1.656787633895874,-11.03248119354248,1.436521053314209,45.4559326171875,-3.173828125,-31.341552734375
19.269999900000002,-1.7094600200653076,-11.30063247680664,1.5658079385757446,54.0618896484375,-13.519287109375,-42.1295166015625
19.2899999,-1.5083470344543457,-11.48259162902832,1.7836803197860718,59.5245361328125,-25.390625,-48.3245849609375
19.3099999,-1.0295066833496094,-11.520898818969727,2.1116859912872314,59.9822998046875,-32.2418212890625,-51.177978515625
19.3299999,-0.3495534360408783,-11.398794174194336,2.540247917175293,55.0537109375,-34.6527099609375,-51.300048828125
19.3499999,0.4405331015586853,-11.075576782226562,3.0334534645080566,45.22705078125,-29.0374755859375,-49.2706298828125
19.3699999,1.1779472827911377,-10.623072624206543,3.5027170181274414,31.4788818359375,-15.1519775390625,-46.234130859375
19.3899999,1.7525556087493896,-10.11789608001709,3.847482204437256,17.63916015625,-0.1983642578125,-40.5731201171875
19.409999900000003,2.1308395862579346,-9.605537414550781,4.017470359802246,5.584716796875,2.4261474609375,-31.4483642578125
19.429999900000002,2.296039342880249,-9.138668060302734,3.998316764831543,-6.3323974609375,-2.1820068359375,-23.5443115234375
19.4499999,2.3271639347076416,-8.722076416015625,3.8498764038085938,-18.096923828125,-2.5634765625,-17.5628662109375
19.4699999,2.2888567447662354,-8.367734909057617,3.6152446269989014,-28.13720703125,-1.129150390625,-10.5133056640625
19.4899999,2.274491548538208,-8.087613105773926,3.3854012489318848,-34.7442626953125,-5.2642822265625,-2.288818359375
19.5099999,2.2912509441375732,-7.864952564239502,3.179499864578247,-41.4276123046875,-6.4239501953125,3.0670166015625
19.5299999,2.31758713722229,-7.750030994415283,2.9879636764526367,-48.9959716796875,3.0059814453125,2.3193359375
19.5499999,2.3271639347076416,-7.735665798187256,2.808398485183716,-54.168701171875,9.185791015625,1.8463134765625
19.5699999,2.274491548538208,-7.843404769897461,2.607285737991333,-56.4117431640625,4.8828125,4.5928955078125
19.589999900000002,2.1284453868865967,-8.068459510803223,2.360682964324951,-56.6864013671875,2.0751953125,3.11279296875
19.609999900000002,1.920149803161621,-8.360552787780762,2.078166961669922,-55.4046630859375,1.220703125,-1.3427734375
19.6299999,1.699883222579956,-8.669404029846191,1.7956513166427612,-52.55126953125,-3.6773681640625,-5.859375
19.6499999,1.479616641998291,-8.968679428100586,1.522712230682373,-50.0946044921875,-10.3759765625,-12.2222900390625
19.6699999,1.3239935636520386,-9.272743225097656,1.2449848651885986,-49.3621826171875,-15.625,-18.61572265625
19.6899999,1.259350061416626,-9.550470352172852,1.0007762908935547,-46.5087890625,-20.7366943359375,-22.735595703125
19.7099999,1.278503656387329,-9.780313491821289,0.7637503147125244,-40.496826171875,-25.7720947265625,-27.740478515625
19.7299999,1.3646949529647827,-9.952696800231934,0.5434837937355042,-33.935546875,-27.4200439453125,-35.8734130859375
19.749999900000002,1.525106430053711,-10.031704902648926,0.3663128614425659,-28.3966064453125,-29.327392578125,-42.724609375
19.769999900000002,1.7262194156646729,-10.017339706420898,0.22266076505184174,-23.5595703125,-35.1715087890625,-46.1273193359375
19.7899999,1.9584569931030273,-9.923966407775879,0.11252748221158981,-19.1802978515625,-40.6036376953125,-49.1943359375
19.8099999,2.2002713680267334,-9.775525093078613,0.026336219161748886,-16.510009765625,-45.95947265625,-51.8798828125
19.8299999,2.4588451385498047,-9.612719535827637,-0.038307227194309235,-16.1590576171875,-49.4537353515625,-52.7801513671875
19.8499999,2.7509377002716064,-9.464279174804688,-0.07422025501728058,-16.7236328125,-44.9066162109375,-51.57470703125
19.8699999,3.0550012588500977,-9.35654067993164,-0.08858546614646912,-16.937255859375,-28.900146484375,-50.35400390625
19.8899999,3.3279404640197754,-9.263166427612305,-0.13168109953403473,-17.3797607421875,-11.3983154296875,-50.018310546875
19.909999900000003,3.5386300086975098,-9.174580574035645,-0.22026655077934265,-19.012451171875,-3.5858154296875,-50.1251220703125
19.929999900000002,3.6583402156829834,-9.069235801696777,-0.38307225704193115,-19.3634033203125,-5.401611328125,-48.309326171875
19.9499999,3.73016619682312,-8.980650901794434,-0.5961562395095825,-17.2882080078125,-6.866455078125,-45.5169677734375
19.9699999,3.823540210723877,-8.908824920654297,-0.7948749661445618,-12.9852294921875,-6.34765625,-41.3970947265625
19.9899999,3.9432501792907715,-8.848969459533691,-0.9481038451194763,-8.11767578125,-5.584716796875,-37.4298095703125
20.0099999,4.091690540313721,-8.791508674621582,-1.01753568649292,-3.173828125,-6.4239501953125,-34.6527099609375
20.0299999,4.259284973144531,-8.724471092224121,-0.993593692779541,-0.2899169921875,-6.4239501953125,-33.02001953125
20.0499999,4.395754337310791,-8.645462036132812,-0.9097966551780701,-1.15966796875,-4.2877197265625,-31.8450927734375
20.0699999,4.486733913421631,-8.559270858764648,-0.7972691655158997,-3.6468505859375,-3.7078857421875,-31.341552734375
20.089999900000002,4.541800498962402,-8.463502883911133,-0.6584054827690125,-5.3558349609375,-7.8582763671875,-32.6995849609375
20.109999900000002,4.5609540939331055,-8.35336971282959,-0.5291185975074768,-9.21630859375,-7.720947265625,-37.7655029296875
20.1299999,4.565742492675781,-8.2312650680542,-0.4118026793003082,-15.899658203125,-1.77001953125,-43.88427734375
20.1499999,4.58968448638916,-8.101978302001953,-0.31124621629714966,-23.3306884765625,0.213623046875,-48.980712890625
20.1699999,4.644751071929932,-7.955932140350342,-0.2346317619085312,-29.84619140625,-2.8228759765625,-53.6956787109375
20.1899999,4.750096321105957,-7.785943984985352,-0.1604115068912506,-37.841796875,-5.096435546875,-57.861328125
20.2099999,4.891354084014893,-7.601590633392334,-0.1388636976480484,-50.78125,-2.9754638671875,-61.1114501953125
20.2299999,5.085284233093262,-7.407660007476807,-0.19153612852096558,-63.3087158203125,-4.6539306640625,-61.798095703125
20.249999900000002,5.310339450836182,-7.225700855255127,-0.35673606395721436,-70.0531005859375,-14.9993896484375,-60.1043701171875
