# Time (seconds),Accel_X,Accel_Y,Accel_Z,Gyro_X,Gyro_Y,Gyro_Z
0.0099999,-0.1843535304069519,-9.947908401489258,0.524330198764801,0.91552734375,0.9613037109375,1.1444091796875
0.029999900000000003,-0.1604115068912506,-9.955090522766113,0.5171475410461426,0.1068115234375,0.640869140625,1.3275146484375
0.0499999,-0.19393034279346466,-9.950302124023438,0.5123591423034668,-0.7171630859375,0.3814697265625,-1.4190673828125
0.0699999,-0.2346317619085312,-9.93354320526123,0.5410895943641663,0.5645751953125,0.6866455078125,-2.99072265625
0.08999990000000001,-0.2322375625371933,-9.940725326538086,0.5099649429321289,-0.42724609375,0.48828125,-1.0528564453125
0.10999990000000001,-0.12689268589019775,-9.971850395202637,0.4644751250743866,0.396728515625,0.732421875,1.5869140625
0.1299999,-0.004788403399288654,-9.971850395202637,0.4644751250743866,3.2196044921875,1.64794921875,4.150390625
0.14999990000000002,-0.05506663769483566,-9.988609313964844,0.4118026793003082,-0.3662109375,0.7781982421875,5.279541015625
0.1699999,-0.22505496442317963,-9.928754806518555,0.4884171485900879,0.2899169921875,-3.2501220703125,0.9002685546875
0.1899999,-0.47405192255973816,-9.890447616577148,0.5578489899635315,0.06103515625,-2.0294189453125,-5.7373046875
0.20999990000000002,-0.5339069962501526,-9.871294021606445,0.6200982332229614,-1.15966796875,0.6561279296875,-7.659912109375
0.2299999,-0.3495534360408783,-9.928754806518555,0.586579442024231,-1.0986328125,0.4119873046875,-0.4730224609375
0.2499999,-0.05267243832349777,-9.974244117736816,0.5937620401382446,2.86865234375,1.5106201171875,9.0789794921875
0.2699999,0.019153613597154617,-10.007762908935547,0.47405192255973816,1.129150390625,1.2664794921875,9.3841552734375
0.28999990000000003,-0.20350714027881622,-9.93354320526123,0.4596867263317108,-0.5340576171875,-5.6610107421875,0.1220703125
0.3099999,-0.6368576288223267,-9.880870819091797,0.4596867263317108,1.0223388671875,-9.46044921875,-9.307861328125
0.3299999,-0.9648633003234863,-9.840168952941895,0.4596867263317108,-1.220703125,-13.641357421875,-10.43701171875
0.34999990000000003,-1.048660397529602,-9.888052940368652,0.4836287498474121,-1.2054443359375,-20.660400390625,-1.8157958984375
0.3699999,-0.8667010068893433,-9.943120002746582,0.5746083855628967,1.7852783203125,-22.247314453125,4.2266845703125
0.3899999,-0.5913678407669067,-9.99100399017334,0.6416460275650024,-0.152587890625,-17.0745849609375,0.3662109375
0.40999990000000003,-0.3974374830722809,-10.017339706420898,0.6991068720817566,-1.068115234375,-12.1002197265625,-2.8228759765625
0.4299999,-0.2825157940387726,-10.17296314239502,0.7015010714530945,3.0517578125,-15.0299072265625,2.899169921875
0.4499999,-0.4405331015586853,-10.47702693939209,0.5793967843055725,11.4898681640625,-15.0604248046875,9.0179443359375
0.4699999,-0.8188169598579407,-10.96304988861084,0.3687070608139038,21.881103515625,-19.0582275390625,10.6048583984375
0.4899999,-1.4221558570861816,-11.489773750305176,0.15562310814857483,31.3568115234375,-36.834716796875,5.2947998046875
0.5099999,-2.126051187515259,-11.906365394592285,-0.011971008032560349,35.6597900390625,-56.060791015625,-12.2222900390625
0.5299999,-2.7126305103302,-12.097901344299316,-0.05267243832349777,35.7513427734375,-62.80517578125,-40.6646728515625
0.5499999,-2.999934673309326,-12.021286964416504,0.035913024097681046,33.7677001953125,-58.5784912109375,-70.220947265625
0.5699999,-2.853888511657715,-11.760318756103516,0.22744916379451752,28.9459228515625,-58.7005615234375,-90.7135009765625
0.5899998999999999,-2.2649147510528564,-11.413159370422363,0.4908113479614258,20.9808349609375,-58.7615966796875,-97.5341796875
0.6099998999999999,-1.3982137441635132,-11.070788383483887,0.7110779285430908,11.444091796875,-45.5169677734375,-94.635009765625
0.6299999,-0.395043283700943,-10.730812072753906,0.8930372595787048,4.2724609375,-32.623291015625,-88.3941650390625
0.6499999,0.5386953949928284,-10.395624160766602,0.9720458984375,-1.0528564453125,-28.3050537109375,-84.075927734375
0.6699999,1.2952631711959839,-10.074800491333008,0.9600749015808105,-6.6375732421875,-29.4952392578125,-78.5369873046875
0.6899999,1.8171991109848022,-9.749189376831055,0.8810662031173706,-10.162353515625,-31.2957763671875,-69.1070556640625
0.7099999,2.145204782485962,-9.481039047241211,0.7781155705451965,-10.772705078125,-37.689208984375,-61.065673828125
0.7299998999999999,2.322375535964966,-9.265560150146484,0.6751648783683777,-9.9334716796875,-46.356201171875,-56.5032958984375
0.7499998999999999,2.3989901542663574,-9.081207275390625,0.5674257874488831,-8.9263916015625,-49.4537353515625,-54.1839599609375
0.7699999,2.4684219360351562,-8.87051773071289,0.47405192255973816,-7.7056884765625,-50.9490966796875,-54.0618896484375
0.7899999,2.585737943649292,-8.614337921142578,0.40222588181495667,-6.2103271484375,-53.253173828125,-59.1583251953125
0.8099999,2.8179752826690674,-8.305485725402832,0.35434186458587646,-5.92041015625,-53.2989501953125,-66.558837890625
0.8299999,3.177105665206909,-7.979874134063721,0.3471592366695404,-6.195068359375,-48.33984375,-69.8394775390625
0.8499998999999999,3.687070608139038,-7.714118003845215,0.3758896589279175,-5.645751953125,-41.473388671875,-67.535400390625
0.8699998999999999,4.23773717880249,-7.55131196975708,0.37828385829925537,-4.1046142578125,-36.102294921875,-60.6842041015625
0.8899999,4.795586109161377,-7.445967197418213,0.4405331015586853,-1.678466796875,-35.0189208984375,-50.0030517578125
0.9099999,5.262455463409424,-7.321468830108643,0.5889736413955688,-7.4615478515625,-33.905029296875,-39.36767578125
0.9299999,5.683835029602051,-7.115567684173584,0.9528923034667969,-27.5726318359375,-30.7464599609375,-30.0445556640625
0.9499999,5.9088897705078125,-6.947973251342773,1.139639973640442,-45.166015625,-37.29248046875,-19.59228515625
0.9699998999999999,6.028599739074707,-6.823474884033203,1.3287819623947144,-57.1746826171875,-44.49462890625,-10.1776123046875
0.9899998999999999,6.023811340332031,-6.878541469573975,1.1300631761550903,-57.891845703125,-43.1671142578125,-3.2958984375
1.0099999,5.904101371765137,-7.050923824310303,0.7038952708244324,-49.01123046875,-40.2679443359375,0.6866455078125
1.0299999,5.813121795654297,-7.328651428222656,0.24899697303771973,-36.9110107421875,-37.5213623046875,3.41796875
1.0499999,5.69580602645874,-7.5417351722717285,-0.272938996553421,-23.6053466796875,-28.6865234375,5.7373046875
1.0699999,5.604825973510742,-7.860164165496826,-0.7038952708244324,-10.3759765625,-21.636962890625,5.645751953125
1.0899999,5.468356609344482,-8.070854187011719,-1.113303780555725,2.5634765625,-22.3236083984375,5.4473876953125
1.1099999,5.341464042663574,-8.281543731689453,-1.359906554222107,15.1214599609375,-20.20263671875,7.904052734375
1.1299999,5.130774021148682,-8.422801971435547,-1.6089035272598267,26.9927978515625,-12.237548828125,11.4288330078125
1.1499999,4.8722004890441895,-8.47786808013916,-1.6903064250946045,37.3382568359375,-9.7198486328125,14.862060546875
1.1699998999999999,4.508281707763672,-8.508993148803711,-1.7597382068634033,45.1812744140625,-15.838623046875,15.7928466796875
1.1899998999999999,4.127603530883789,-8.573636054992676,-1.7190368175506592,49.713134765625,-21.514892578125,13.031005859375
1.2099999,3.799597978591919,-8.707711219787598,-1.5753847360610962,49.98779296875,-19.6075439453125,11.29150390625
1.2299999,3.603273630142212,-8.89685344696045,-1.3048399686813354,46.81396484375,-10.986328125,12.6190185546875
1.2499999,3.531447410583496,-9.100360870361328,-0.9385270476341248,41.0003662109375,0.30517578125,13.1378173828125
1.2699999,3.550601005554199,-9.263166427612305,-0.5386953949928284,32.89794921875,8.0108642578125,10.3302001953125
1.2899999,3.6104562282562256,-9.349357604980469,-0.14844051003456116,22.1099853515625,9.368896484375,5.6915283203125
1.3099999,3.6990416049957275,-9.397241592407227,0.17477671802043915,10.894775390625,9.979248046875,0.762939453125
1.3299999,3.823540210723877,-9.421183586120605,0.4213795065879822,2.3193359375,15.3045654296875,-2.44140625
1.3499999,3.9600095748901367,-9.440337181091309,0.5746083855628967,-3.753662109375,19.7906494140625,-4.486083984375
1.3699999,4.1156325340271,-9.47146224975586,0.608127236366272,-7.9345703125,17.2119140625,-5.9051513671875
1.3899999,4.230554580688477,-9.488221168518066,0.524330198764801,-9.8724365234375,13.73291015625,-6.744384765625
1.4099999,4.268861770629883,-9.481039047241211,0.3280056416988373,-9.0179443359375,15.3350830078125,-9.3536376953125
1.4299998999999999,4.264073371887207,-9.459490776062012,0.09576806426048279,-5.3863525390625,10.2996826171875,-14.3890380859375
1.4499999,4.230554580688477,-9.423578262329102,-0.11252748221158981,-0.701904296875,-0.518798828125,-17.39501953125
1.4699999,4.201824188232422,-9.418789863586426,-0.24420857429504395,2.7008056640625,-3.60107421875,-16.6015625
1.4899999,4.194641590118408,-9.409213066101074,-0.28730419278144836,4.2572021484375,1.068115234375,-14.5263671875
1.5099999,4.223371982574463,-9.39245319366455,-0.2585737705230713,3.60107421875,4.2572021484375,-16.143798828125
1.5299999,4.268861770629883,-9.344569206237793,-0.1843535304069519,1.52587890625,2.8076171875,-17.8680419921875
1.5499999,4.3622355461120605,-9.241618156433105,-0.08140286058187485,-1.2969970703125,4.7149658203125,-15.9759521484375
1.5699999,4.496310710906982,-9.107542991638184,-0.016759412363171577,-5.1422119140625,11.4288330078125,-13.031005859375
1.5899999,4.644751071929932,-8.949525833129883,0.028730420395731926,-9.21630859375,18.9971923828125,-9.27734375
1.6099999,4.78122091293335,-8.808267593383789,0.031124621629714966,-11.688232421875,29.0069580078125,-5.37109375
1.6299999,5.006275653839111,-8.71728801727295,0.035913024097681046,-12.5274658203125,40.6341552734375,-1.9073486328125
1.6499999,5.116408824920654,-8.664615631103516,0.009576806798577309,-11.566162109375,58.7310791015625,6.34765625
1.6699999,5.061342239379883,-8.729259490966797,-0.272938996553421,-5.55419921875,63.9495849609375,18.6920166015625
1.6899998999999999,4.788403511047363,-8.853757858276367,-0.6033388376235962,20.69091796875,27.374267578125,23.62060546875
1.7099999,4.299986362457275,-8.939949035644531,-0.9289502501487732,50.7965087890625,-4.7607421875,16.6778564453125
1.7299999,3.8115692138671875,-8.93037223815918,-0.9385270476341248,58.0902099609375,-1.64794921875,3.021240234375
1.7499999,3.4787750244140625,-8.779537200927734,-0.5315127968788147,49.1790771484375,10.223388671875,-13.12255859375
1.7699999,3.3949780464172363,-8.523358345031738,0.21547815203666687,34.3475341796875,11.8408203125,-26.458740234375
1.7899999,3.531447410583496,-8.305485725402832,1.0271124839782715,18.341064453125,13.0157470703125,-33.4625244140625
1.8099999,3.8355112075805664,-8.185775756835938,1.723825216293335,2.9449462890625,15.7470703125,-33.2794189453125
1.8299999,4.240131378173828,-8.161833763122559,2.231395959854126,-12.0849609375,13.7176513671875,-28.533935546875
1.8499999,4.618414878845215,-8.20492935180664,2.5019407272338867,-27.28271484375,9.8419189453125,-24.2462158203125
1.8699999,4.910507678985596,-8.255207061767578,2.5713725090026855,-41.1224365234375,7.781982421875,-21.6827392578125
1.8899999,5.078101634979248,-8.300697326660156,2.47560453414917,-51.3763427734375,9.1705322265625,-21.728515625
1.9099999,5.1595048904418945,-8.329427719116211,2.252943754196167,-57.7392578125,10.894775390625,-22.6898193359375
1.9299998999999999,5.200206279754639,-8.35336971282959,1.9321208000183105,-62.0269775390625,9.613037109375,-22.3541259765625
1.9499999,5.20978307723999,-8.389283180236816,1.5442601442337036,-64.4073486328125,7.9498291015625,-19.47021484375
1.9699999,5.216965675354004,-8.418013572692871,1.1324573755264282,-64.2852783203125,8.4228515625,-14.6484375
1.9899999,5.1810526847839355,-8.427590370178223,0.7158663272857666,-61.6455078125,9.94873046875,-12.9852294921875
2.0099999,5.0900726318359375,-8.40843677520752,0.2992752194404602,-56.5032958984375,8.4075927734375,-15.5029296875
2.0299999,4.972756862640381,-8.341399192810059,-0.10773907601833344,-48.1109619140625,4.2877197265625,-19.8211669921875
2.0499999,4.8602294921875,-8.26239013671875,-0.5027823448181152,-36.6058349609375,1.9989013671875,-25.543212890625
2.0699999,4.81473970413208,-8.178592681884766,-0.849941611289978,-23.2086181640625,0.946044921875,-31.3720703125
2.0899999,4.855441093444824,-8.1139497756958,-1.1204863786697388,-9.674072265625,-1.922607421875,-35.58349609375
2.1099999,5.003881454467773,-8.066065788269043,-1.2856862545013428,3.0517578125,-6.7291259765625,-36.1328125
2.1299999,5.216965675354004,-8.006210327148438,-1.3503297567367554,14.495849609375,-7.9803466796875,-34.3475341796875
2.1499999,5.4659624099731445,-7.953537940979004,-1.3263877630233765,24.35302734375,-6.5765380859375,-33.3099365234375
2.1699999,5.700594425201416,-7.876923561096191,-1.237802267074585,32.6690673828125,-7.476806640625,-31.402587890625
2.1899999,5.901707172393799,-7.785943984985352,-1.1037269830703735,38.8336181640625,-11.5814208984375,-27.5421142578125
2.2099999,6.057330131530762,-7.692570209503174,-0.9385270476341248,42.144775390625,-14.3280029296875,-23.5137939453125
2.2299999,6.179434776306152,-7.599195957183838,-0.7469909191131592,42.96875,-14.6484375,-19.8822021484375
2.2499999,6.287173748016357,-7.50582218170166,-0.524330198764801,41.1224365234375,-14.9688720703125,-16.05224609375
2.2699999,6.387730121612549,-7.419631004333496,-0.2777273952960968,36.07177734375,-13.031005859375,-12.115478515625
2.2899999,6.469132900238037,-7.33583402633667,-0.033518824726343155,27.9541015625,-5.5694580078125,-8.941650390625
2.3099999,6.517016887664795,-7.24485445022583,0.1843535304069519,18.646240234375,1.6937255859375,-6.9732666015625
2.3299999,6.517016887664795,-7.139509677886963,0.3423708379268646,9.246826171875,2.3345947265625,-7.0648193359375
2.3499999,6.50025749206543,-7.041347026824951,0.4405331015586853,-0.0762939453125,-0.67138671875,-8.36181640625
2.3699999,6.493074893951416,-6.988674640655518,0.4836287498474121,-8.4228515625,0.732421875,-8.056640625
2.3899999,6.512228488922119,-6.998251438140869,0.4884171485900879,-14.34326171875,5.9967041015625,-3.997802734375
2.4099999,6.54574728012085,-7.072471618652344,0.45250412821769714,-17.7764892578125,8.392333984375,0.701904296875
2.4299999,6.564900875091553,-7.1706342697143555,0.3878606855869293,-20.0347900390625,7.781982421875,3.448486328125
2.4499999,6.538564682006836,-7.273584842681885,0.2801215946674347,-21.7742919921875,9.5367431640625,4.0283203125
2.4699999,6.457161903381348,-7.3238630294799805,0.13168109953403473,-22.0184326171875,10.19287109375,3.8909912109375
2.4899999,6.3063273429870605,-7.354987621307373,-0.05506663769483566,-20.782470703125,6.011962890625,0.9613037109375
2.5099999,6.133944988250732,-7.395689010620117,-0.2537853717803955,-17.3492431640625,-0.67138671875,-4.7607421875
2.5299999,5.916072368621826,-7.393294811248779,-0.3711012601852417,-12.6190185546875,-6.3629150390625,-11.0626220703125
2.5499999,5.75326681137085,-7.343016624450684,-0.31603461503982544,-17.2882080078125,-14.2822265625,-14.6484375
2.5699999,5.6670756340026855,-7.321468830108643,-0.19632454216480255,-42.755126953125,-23.8800048828125,-16.3116455078125
2.5899999,5.760449409484863,-7.311892032623291,-0.035913024097681046,-56.45751953125,-24.810791015625,-17.08984375
2.6099999,5.949591159820557,-7.395689010620117,-0.09816227108240128,-51.422119140625,-4.302978515625,-13.275146484375
2.6299999,6.22731876373291,-7.608773231506348,-0.43335050344467163,-36.2396240234375,9.124755859375,-8.36181640625
2.6499999,6.45476770401001,-7.879317760467529,-0.9481038451194763,-16.815185546875,0.3204345703125,-5.2490234375
2.6699999,6.586448669433594,-8.027758598327637,-1.5107412338256836,3.5247802734375,-9.5672607421875,-2.4566650390625
2.6899999,6.550535678863525,-8.097189903259277,-1.968033790588379,23.223876953125,-8.85009765625,-2.685546875
2.7099999,6.478709697723389,-8.061277389526367,-2.2002713680267334,40.6036376953125,-11.627197265625,-5.706787109375
2.7299999,6.378153324127197,-7.929595947265625,-2.207453966140747,53.375244140625,-15.5181884765625,-8.1939697265625
2.7499999,6.289567947387695,-7.805097579956055,-2.0015525817871094,61.2335205078125,-10.7574462890625,-8.4228515625
2.7699999,6.251260757446289,-7.642292022705078,-1.6041151285171509,63.385009765625,-7.9193115234375,-8.148193359375
2.7899999,6.268020153045654,-7.443572998046875,-1.1085153818130493,58.41064453125,-10.498046875,-8.6669921875
2.8099999,6.335057735443115,-7.225700855255127,-0.5434837937355042,47.2869873046875,-3.570556640625,-8.0718994140625
2.8299999,6.4164605140686035,-7.053318023681641,-0.033518824726343155,33.5235595703125,9.94873046875,-4.730224609375
2.8499999,6.531382083892822,-6.936002254486084,0.3878606855869293,19.256591796875,10.7269287109375,-0.8544921875
2.8699999,6.6127848625183105,-6.919242858886719,0.6943184733390808,4.4403076171875,-0.823974609375,1.3580322265625
2.8899999,6.665457725524902,-6.957550048828125,0.8690952062606812,-9.521484375,1.9683837890625,2.0751953125
2.9099999,6.696582317352295,-7.067683219909668,0.9169792532920837,-19.1497802734375,15.4266357421875,1.739501953125
2.9299999,6.698976516723633,-7.189787864685059,0.811634361743927,-23.13232421875,16.29638671875,-0.2593994140625
2.9499999,6.660669326782227,-7.307103633880615,0.569819986820221,-22.308349609375,10.772705078125,-2.532958984375
2.9699999,6.586448669433594,-7.386112213134766,0.27054479718208313,-18.4173583984375,1.9073486328125,-2.685546875
2.9899999,6.555324077606201,-7.41484260559082,0.019153613597154617,-14.5111083984375,-6.2103271484375,-2.2430419921875
3.0099999,6.528987884521484,-7.402871608734131,-0.19153612852096558,-11.199951171875,-2.3651123046875,-2.7313232421875
3.0299999,6.5265936851501465,-7.376535415649414,-0.35913026332855225,-5.9051513671875,6.4697265625,-3.265380859375
3.0499999,6.469132900238037,-7.319074630737305,-0.5147533416748047,1.3427734375,1.373291015625,-3.6773681640625
3.0699999,6.414066314697266,-7.271190643310547,-0.646434485912323,6.9732666015625,-12.847900390625,-4.669189453125
3.0899999,6.382941722869873,-7.264008045196533,-0.6967126727104187,9.9945068359375,-11.474609375,-4.5928955078125
3.1099999,6.387730121612549,-7.297526836395264,-0.6847416758537292,12.0391845703125,5.0811767578125,-3.0059814453125
3.1299999,6.411672115325928,-7.364564418792725,-0.6224924325942993,13.702392578125,10.0250244140625,-1.739501953125
3.1499999,6.430825710296631,-7.443572998046875,-0.5363011956214905,14.7247314453125,-3.082275390625,-1.922607421875
3.1699999,6.481103897094727,-7.479485988616943,-0.37828385829925537,12.8936767578125,-11.871337890625,-2.0294189453125
3.1899999,6.531382083892822,-7.457938194274902,-0.19632454216480255,8.1024169921875,3.2958984375,-1.0223388671875
3.2099999,6.607996463775635,-7.3885064125061035,0.009576806798577309,3.2958984375,19.439697265625,-0.2593994140625
3.2299999,6.624756336212158,-7.287950038909912,0.12449848651885986,-0.091552734375,13.824462890625,-1.5716552734375
3.2499999,6.610390663146973,-7.173028469085693,0.17238251864910126,-2.716064453125,-0.54931640625,-4.058837890625
3.2699999,6.584054470062256,-7.094019412994385,0.15083470940589905,-4.5623779296875,0.7171630859375,-4.7607421875
3.2899999,6.588842868804932,-7.0557122230529785,0.11252748221158981,-3.7994384765625,12.4969482421875,-4.058837890625
3.3099999,6.584054470062256,-7.0772600173950195,0.023942016065120697,-0.8544921875,10.986328125,-4.9591064453125
3.3299999000000002,6.586448669433594,-7.144298076629639,-0.038307227194309235,1.617431640625,-5.0811767578125,-5.92041015625
3.3499999,6.607996463775635,-7.220912456512451,-0.07900865375995636,3.72314453125,-10.92529296875,-5.1116943359375
3.3699999,6.687005519866943,-7.314286231994629,-0.047884032130241394,4.8980712890625,2.685546875,-2.7313232421875
3.3899999,6.777985095977783,-7.398083209991455,-0.021547814831137657,0.4425048828125,16.3726806640625,-1.3885498046875
3.4099999,6.833051681518555,-7.450755596160889,-0.014365210197865963,1.1749267578125,13.48876953125,-0.823974609375
3.4299999,6.856993675231934,-7.453149795532227,-0.011971008032560349,1.5411376953125,3.2958984375,-0.7781982421875
3.4499999,6.933608055114746,-7.398083209991455,-0.004788403399288654,-1.007080078125,3.662109375,1.4190673828125
3.4699999,7.139509677886963,-7.287950038909912,0.10534487664699554,-5.5389404296875,20.4315185546875,8.85009765625
3.4899999,7.201758861541748,-7.343016624450684,0.016759412363171577,-9.185791015625,46.539306640625,22.8271484375
3.5099999,7.218518257141113,-7.362170219421387,-0.15801730751991272,3.4637451171875,40.0543212890625,38.0859375
3.5299999,6.8162922859191895,-7.467514991760254,-0.5027823448181152,32.989501953125,2.4261474609375,40.130615234375
3.5499999,6.347028732299805,-7.424419403076172,-0.6919242739677429,46.142578125,-19.5770263671875,30.9600830078125
3.5699999,5.858611583709717,-7.254431247711182,-0.5674257874488831,40.130615234375,-18.1121826171875,17.3492431640625
3.5899999,5.547365188598633,-6.979097843170166,-0.07422025501728058,27.4810791015625,-4.3182373046875,2.227783203125
3.6099999,5.458779811859131,-6.775590896606445,0.5626373887062073,12.603759765625,7.1868896484375,-11.04736328125
3.6299999,5.540182590484619,-6.689399719238281,1.137245774269104,-2.50244140625,9.27734375,-16.845703125
3.6499999,5.75326681137085,-6.742072105407715,1.5322890281677246,-15.5487060546875,7.7362060546875,-16.11328125
3.6699999,6.026205539703369,-6.9024834632873535,1.6903064250946045,-26.7791748046875,6.9427490234375,-14.0533447265625
3.6899999,6.3063273429870605,-7.094019412994385,1.6735470294952393,-36.4990234375,2.99072265625,-11.7950439453125
3.7099999,6.555324077606201,-7.273584842681885,1.5107412338256836,-43.8385009765625,-2.532958984375,-7.5225830078125
3.7299999,6.751648902893066,-7.41484260559082,1.2737152576446533,-47.9583740234375,-4.5013427734375,-0.7781982421875
3.7499999,6.868964672088623,-7.503427982330322,0.9983820915222168,-49.652099609375,0.2899169921875,4.1351318359375
3.7699999,6.900089263916016,-7.548917770385742,0.6943184733390808,-49.6063232421875,4.7760009765625,6.2408447265625
3.7899999,6.821080684661865,-7.560888767242432,0.36152446269989014,-47.454833984375,3.84521484375,6.500244140625
3.8099999,6.665457725524902,-7.539340972900391,0.019153613597154617,-42.816162109375,0.4119873046875,6.4239501953125
3.8299999000000002,6.471527099609375,-7.527369976043701,-0.31124621629714966,-36.19384765625,0.8392333984375,5.4779052734375
3.8499999,6.102819919586182,-7.51779317855835,-0.8379706144332886,-20.3399658203125,3.5552978515625,-0.7476806640625
3.8699999,5.9735331535339355,-7.548917770385742,-1.0199298858642578,-12.6800537109375,-1.2969970703125,-3.41796875
3.8899999,5.901707172393799,-7.599195957183838,-1.158793568611145,-4.8065185546875,-4.3792724609375,-4.7607421875
3.9099999,5.904101371765137,-7.647080421447754,-1.2401964664459229,3.448486328125,-3.2958984375,-6.53076171875
3.9299999,5.96874475479126,-7.680599212646484,-1.280897855758667,10.7421875,-1.708984375,-9.4451904296875
3.9499999,6.095637321472168,-7.690176010131836,-1.2713210582733154,16.7236328125,-4.1656494140625,-10.528564453125
3.9699999,6.2632317543029785,-7.671022415161133,-1.2042834758758545,21.42333984375,-4.9591064453125,-8.544921875
3.9899999,6.440402507781982,-7.630321025848389,-1.0965443849563599,24.5819091796875,2.13623046875,-6.40869140625
4.0099999,6.593631267547607,-7.558494567871094,-0.9409212470054626,25.9246826171875,9.1705322265625,-5.6915283203125
4.029999900000001,6.691793918609619,-7.450755596160889,-0.7541735172271729,25.299072265625,9.4451904296875,-5.0201416015625
4.0499999,6.7277069091796875,-7.321468830108643,-0.545877993106842,22.4609375,7.171630859375,-4.4403076171875
4.069999900000001,6.720524311065674,-7.194576263427734,-0.3232172429561615,17.76123046875,7.049560546875,-4.5166015625
4.0899999000000005,6.708553314208984,-7.086836814880371,-0.08858546614646912,11.962890625,8.9569091796875,-4.730224609375
4.1099999,6.7061591148376465,-7.015010833740234,0.13407529890537262,5.950927734375,11.1083984375,-4.6844482421875
4.1299999000000005,6.71334171295166,-6.981492042541504,0.3208230137825012,0.4425048828125,13.153076171875,-3.4637451171875
4.1499999,6.720524311065674,-6.983886241912842,0.44532153010368347,-4.425048828125,14.34326171875,-1.739501953125
4.1699999000000005,6.703764915466309,-7.007828235626221,0.49799394607543945,-8.1939697265625,12.420654296875,-0.3814697265625
4.1899999,6.67982292175293,-7.0341644287109375,0.4812345504760742,-10.467529296875,9.429931640625,-0.1373291015625
4.209999900000001,6.596025466918945,-7.046135425567627,0.40222588181495667,-11.3677978515625,8.7890625,-2.197265625
4.2299999,6.5265936851501465,-7.062894821166992,0.31603461503982544,-10.5438232421875,10.9100341796875,-6.2255859375
4.249999900000001,6.390124320983887,-7.048529624938965,0.23942017555236816,-9.002685546875,12.3443603515625,-11.474609375
4.2699999,6.248866558074951,-6.971915245056152,0.363918662071228,-18.0816650390625,-0.06103515625,-15.1214599609375
4.289999900000001,6.1267619132995605,-6.861782073974609,0.45010992884635925,-48.0499267578125,-18.12744140625,-16.754150390625
4.3099999,6.184223175048828,-6.813898086547852,0.6153098344802856,-62.5,-30.975341796875,-16.937255859375
4.329999900000001,6.313509941101074,-6.852205276489258,0.5219359993934631,-57.708740234375,-12.359619140625,-16.815185546875
4.3499999,6.636727333068848,-7.070077419281006,0.19632454216480255,-44.8760986328125,4.2724609375,-14.2669677734375
4.369999900000001,6.912060260772705,-7.429207801818848,-0.3902548849582672,-26.67236328125,6.16455078125,-9.002685546875
4.3899999,7.067683219909668,-7.642292022705078,-1.0606313943862915,-5.7525634765625,1.4495849609375,-4.9285888671875
4.409999900000001,7.141903877258301,-7.817068576812744,-1.6831238269805908,14.923095703125,-8.392333984375,-3.2196044921875
4.4299999,7.139509677886963,-7.824251174926758,-2.075772762298584,34.24072265625,-12.8021240234375,-1.2359619140625
4.449999900000001,7.072471618652344,-7.694964408874512,-2.252943754196167,51.0711669921875,-8.636474609375,2.2430419921875
4.4699999,6.962338447570801,-7.489062786102295,-2.0685901641845703,61.431884765625,-10.1165771484375,4.0435791015625
4.489999900000001,6.813898086547852,-7.228095054626465,-1.7262194156646729,63.9495849609375,-22.8424072265625,3.326416015625
4.5099999,6.6846113204956055,-6.907271862030029,-1.1180921792984009,59.02099609375,-28.13720703125,3.23486328125
4.529999900000001,6.629544734954834,-6.643909931182861,-0.44771572947502136,48.76708984375,-11.6729736328125,4.3182373046875
4.5499999,6.653486728668213,-6.48828649520874,0.1604115068912506,35.9649658203125,6.40869140625,5.615234375
4.569999900000001,6.694188117980957,-6.449979305267334,0.6655880808830261,21.484375,3.997802734375,5.2337646484375
4.5899999000000005,6.734889507293701,-6.524199485778809,0.9720458984375,5.5084228515625,-4.3792724609375,4.119873046875
4.609999900000001,6.761225700378418,-6.67982292175293,1.0797849893569946,-9.8724365234375,0.1373291015625,2.44140625
4.6299999000000005,6.777985095977783,-6.8378400802612305,1.0199298858642578,-21.0723876953125,11.16943359375,1.28173828125
4.6499999,6.789956092834473,-6.998251438140869,0.8619126081466675,-27.099609375,9.8114013671875,1.1138916015625
4.6699999000000005,6.775590896606445,-7.101202011108398,0.5650315880775452,-29.6783447265625,-0.1678466796875,1.495361328125
4.6899999,6.785167694091797,-7.163451671600342,0.26096799969673157,-29.0985107421875,0.9613037109375,2.5482177734375
4.709999900000001,6.806715488433838,-7.194576263427734,-0.026336219161748886,-25.5584716796875,12.115478515625,4.1046142578125
4.7299999,6.828263282775879,-7.216124057769775,-0.3256114423274994,-19.9127197265625,17.8375244140625,6.8511962890625
4.749999900000001,6.811503887176514,-7.259219646453857,-0.5889736413955688,-12.542724609375,11.7034912109375,8.3465576171875
4.7699999,6.737283706665039,-7.338228225708008,-0.7852981686592102,-4.486083984375,2.3193359375,7.3089599609375
4.789999900000001,6.6391215324401855,-7.438784599304199,-0.9002198576927185,3.662109375,-0.091552734375,6.195068359375
4.8099999,6.5696892738342285,-7.510610580444336,-0.9193734526634216,10.162353515625,2.349853515625,5.8746337890625
4.829999900000001,6.48828649520874,-7.513004779815674,-0.8092401623725891,14.6331787109375,5.615234375,5.7525634765625
4.8499999,6.426037311553955,-7.4316020011901855,-0.6751648783683777,17.08984375,3.4027099609375,5.218505859375
4.869999900000001,6.3302693367004395,-7.297526836395264,-0.5099649429321289,17.0745849609375,-3.2196044921875,2.8839111328125
4.8899999,6.277596950531006,-7.15387487411499,-0.304063618183136,15.3350830078125,-5.9814453125,0.1983642578125
4.909999900000001,6.279991149902344,-7.0772600173950195,-0.12449848651885986,12.2833251953125,-3.204345703125,-0.885009765625
4.9299999,6.342240333557129,-7.089231014251709,0.002394201699644327,8.514404296875,5.706787109375,-0.48828125
4.949999900000001,6.440402507781982,-7.163451671600342,0.1149216815829277,4.4708251953125,11.688232421875,0.30517578125
4.9699999,6.538564682006836,-7.2783732414245605,0.15801730751991272,0.091552734375,9.429931640625,0.7171630859375
4.989999900000001,6.576871871948242,-7.359776020050049,0.15801730751991272,-3.814697265625,5.279541015625,0.4425048828125
5.0099999,6.5912370681762695,-7.354987621307373,0.20111294090747833,-7.01904296875,1.3885498046875,-1.1138916015625
5.029999900000001,6.581660270690918,-7.24485445022583,0.18914192914962769,-9.3841552734375,-0.1373291015625,-2.7923583984375
5.0499999,6.646304130554199,-7.187393665313721,0.21547815203666687,-10.4217529296875,6.0882568359375,-2.3193359375
5.069999900000001,6.701370716094971,-7.096413612365723,0.20350714027881622,-10.284423828125,15.0299072265625,0.640869140625
5.0899999000000005,6.732495307922363,-7.105990409851074,0.12449848651885986,-10.009765625,14.678955078125,3.875732421875
5.109999900000001,6.72531270980835,-7.175422668457031,0.05746084079146385,-9.3841552734375,2.74658203125,5.1116943359375
5.1299999000000005,6.6391215324401855,-7.220912456512451,-0.05746084079146385,-7.7362060546875,-2.7008056640625,4.39453125
5.1499999,6.5265936851501465,-7.220912456512451,-0.15801730751991272,-4.638671875,6.1798095703125,2.349853515625
5.1699999000000005,6.476315498352051,-7.319074630737305,-0.21308395266532898,-0.579833984375,11.41357421875,1.4801025390625
5.1899999,6.4164605140686035,-7.340622425079346,-0.2944868206977844,3.11279296875,4.5928955078125,2.471923828125
5.209999900000001,6.385335922241211,-7.3693528175354,-0.28969839215278625,5.8746337890625,-1.129150390625,2.9449462890625
5.2299999,6.380547523498535,-7.3885064125061035,-0.2513911724090576,6.866455078125,-0.4119873046875,1.6326904296875
5.249999900000001,6.406883716583252,-7.371747016906738,-0.16519992053508759,6.8206787109375,3.7078857421875,0.2899169921875
5.2699999,6.4164605140686035,-7.371747016906738,-0.07182604819536209,7.4310302734375,6.8511962890625,-0.640869140625
5.289999900000001,6.452373504638672,-7.402871608734131,-0.0071826050989329815,7.568359375,0.9002685546875,-0.9918212890625
5.3099999,6.469132900238037,-7.41484260559082,0.05267243832349777,6.591796875,-3.3111572265625,-0.732421875
5.329999900000001,6.50025749206543,-7.371747016906738,0.08379705995321274,4.241943359375,-0.3662109375,-0.3204345703125
5.3499999,6.538564682006836,-7.3023152351379395,0.16759411990642548,1.7242431640625,3.692626953125,0.579833984375
5.369999900000001,6.581660270690918,-7.252037048339844,0.20350714027881622,0.3814697265625,5.1727294921875,1.9989013671875
5.3899999,6.588842868804932,-7.254431247711182,0.2346317619085312,-0.30517578125,3.265380859375,3.0670166015625
5.409999900000001,6.562506675720215,-7.287950038909912,0.23702596127986908,-1.1444091796875,0.091552734375,1.8310546875
5.4299999,6.517016887664795,-7.3454108238220215,0.24181437492370605,-2.01416015625,-0.54931640625,-0.6866455078125
5.449999900000001,6.495469093322754,-7.38132381439209,0.22744916379451752,-2.7618408203125,1.2969970703125,-2.3193359375
5.4699999,6.481103897094727,-7.422025203704834,0.18914192914962769,-2.7008056640625,4.4097900390625,-1.953125
5.489999900000001,6.485892295837402,-7.436390399932861,0.11013327538967133,-1.40380859375,4.486083984375,-0.1373291015625
5.5099999,6.493074893951416,-7.438784599304199,0.031124621629714966,-0.518798828125,0.4119873046875,1.3427734375
5.529999900000001,6.481103897094727,-7.405265808105469,-0.014365210197865963,-0.3509521484375,-0.0762939453125,1.28173828125
5.5499999,6.473921298980713,-7.3669586181640625,-0.028730420395731926,-0.0457763671875,4.33349609375,-0.54931640625
5.569999900000001,6.469132900238037,-7.304709434509277,-0.0071826050989329815,0.640869140625,5.645751953125,-2.38037109375
5.5899999000000005,6.497863292694092,-7.292738437652588,-0.002394201699644327,1.64794921875,4.669189453125,-1.9989013671875
5.609999900000001,6.509834289550781,-7.285555839538574,0.019153613597154617,2.74658203125,5.3558349609375,0.3204345703125
5.6299999000000005,6.524199485778809,-7.285555839538574,0.05746084079146385,3.1890869140625,5.401611328125,2.5787353515625
5.6499999,6.485892295837402,-7.292738437652588,0.10055647045373917,3.23486328125,2.960205078125,2.227783203125
5.6699999000000005,6.40927791595459,-7.259219646453857,0.16998831927776337,3.265380859375,0.0457763671875,-0.6866455078125
5.6899999,6.354211330413818,-7.268796443939209,0.2082955539226532,3.23486328125,0.4119873046875,-3.3111572265625
5.709999900000001,6.344634532928467,-7.3023152351379395,0.24420857429504395,2.685546875,3.509521484375,-3.90625
5.7299999,6.382941722869873,-7.319074630737305,0.3064578175544739,2.2125244140625,3.631591796875,-2.5787353515625
5.749999900000001,6.476315498352051,-7.333439826965332,0.3495534360408783,0.885009765625,-0.42724609375,-0.5950927734375
5.7699999,6.543353080749512,-7.398083209991455,0.38307225704193115,-0.5950927734375,0.762939453125,0.9918212890625
5.789999900000001,6.567295074462891,-7.347805023193359,0.40222588181495667,-1.800537109375,2.4261474609375,1.617431640625
5.8099999,6.54574728012085,-7.3454108238220215,0.35913026332855225,-2.2735595703125,0.946044921875,0.42724609375
5.829999900000001,6.514622688293457,-7.374141216278076,0.2944868206977844,-1.9683837890625,0.4425048828125,-1.6021728515625
5.8499999,6.466738700866699,-7.297526836395264,0.24899697303771973,-1.2664794921875,1.6326904296875,-2.13623046875
5.869999900000001,6.445190906524658,-7.3454108238220215,0.15562310814857483,-0.7171630859375,3.631591796875,-1.5106201171875
5.8899999,6.449979305267334,-7.350199222564697,0.13407529890537262,0.5035400390625,6.4544677734375,-1.861572265625
5.909999900000001,6.433219909667969,-7.331045627593994,0.07900865375995636,2.0751953125,4.1046142578125,-2.7008056640625
5.9299999,6.48828649520874,-7.362170219421387,0.07182604819536209,3.3111572265625,-0.091552734375,-2.44140625
5.949999900000001,6.502651691436768,-7.280767440795898,0.09576806426048279,3.72314453125,0.1373291015625,-1.2664794921875
5.9699999,6.576871871948242,-7.331045627593994,0.10773907601833344,3.6163330078125,3.72314453125,0.244140625
5.989999900000001,6.588842868804932,-7.242460250854492,0.19393034279346466,3.6468505859375,4.1656494140625,0.885009765625
6.0099999,6.5912370681762695,-7.304709434509277,0.22505496442317963,3.84521484375,3.0364990234375,0.3814697265625
6.029999900000001,6.562506675720215,-7.2568254470825195,0.31124621629714966,3.2958984375,0.1220703125,0.030517578125
6.0499999,6.531382083892822,-7.314286231994629,0.33997663855552673,2.197265625,1.3275146484375,-0.0457763671875
6.069999900000001,6.5050458908081055,-7.261613845825195,0.4118026793003082,1.7242431640625,6.16455078125,0.1068115234375
6.0899999000000005,6.473921298980713,-7.311892032623291,0.40462008118629456,1.861572265625,6.1187744140625,-0.244140625
6.109999900000001,6.440402507781982,-7.247248649597168,0.45010992884635925,1.2969970703125,-1.1138916015625,-0.5645751953125
6.1299999000000005,6.411672115325928,-7.266402244567871,0.45489832758903503,0.2593994140625,-2.8533935546875,-1.6021728515625
6.149999900000001,6.378153324127197,-7.208941459655762,0.47884035110473633,-2.899169921875,1.556396484375,-3.2501220703125
6.1699999000000005,6.380547523498535,-7.19936466217041,0.49320554733276367,-5.55419921875,3.509521484375,-4.852294921875
6.1899999,6.418854713439941,-7.194576263427734,0.44532153010368347,-3.7689208984375,5.0201416015625,-7.62939453125
6.209999900000001,6.433219909667969,-7.2783732414245605,0.33039984107017517,1.2969970703125,8.3770751953125,-11.077880859375
6.2299999,6.44279670715332,-7.33583402633667,0.1867477297782898,7.4005126953125,-0.3662109375,-12.6800537109375
6.249999900000001,6.464344501495361,-7.4100542068481445,0.05267243832349777,13.214111328125,-8.0108642578125,-12.237548828125
6.2699999,6.517016887664795,-7.443572998046875,-0.021547814831137657,18.402099609375,-3.021240234375,-11.0321044921875
6.289999900000001,6.655880928039551,-7.462726593017578,-0.031124621629714966,22.8271484375,2.86865234375,-6.77490234375
6.3099999,6.794744491577148,-7.474697589874268,0.043095629662275314,25.7110595703125,5.828857421875,-0.213623046875
6.329999900000001,6.89530086517334,-7.47230339050293,0.15083470940589905,25.2685546875,2.6397705078125,3.4027099609375
6.3499999,6.897695064544678,-7.376535415649414,0.33997663855552673,21.54541015625,-2.0904541015625,2.0904541015625
6.369999900000001,6.907271862030029,-7.232883453369141,0.6105214357376099,14.9993896484375,0.3509521484375,0.213623046875
6.3899999,6.993463039398193,-7.058106422424316,0.8643068075180054,8.0413818359375,14.5416259765625,2.5177001953125
6.409999900000001,7.1251444816589355,-6.919242858886719,1.1037269830703735,1.708984375,35.675048828125,11.505126953125
6.4299999,7.180211067199707,-6.806715488433838,1.194706678390503,-3.96728515625,45.654296875,23.5595703125
6.449999900000001,7.091625213623047,-6.809109687805176,1.1875240802764893,-7.50732421875,33.7677001953125,27.77099609375
6.4699999,6.71334171295166,-6.861782073974609,0.9241618514060974,-8.1634521484375,14.2669677734375,25.360107421875
6.489999900000001,6.339846134185791,-7.022193431854248,0.5530605912208557,7.781982421875,-4.1961669921875,20.5535888671875
6.5099999,5.96874475479126,-7.223306655883789,0.24181437492370605,42.0684814453125,-11.810302734375,12.3443603515625
6.529999900000001,5.815515995025635,-7.354987621307373,0.10295066982507706,56.7169189453125,-9.063720703125,6.134033203125
6.5499999,5.834669589996338,-7.395689010620117,0.3447650372982025,51.8341064453125,-4.39453125,2.899169921875
6.569999900000001,5.992686748504639,-7.328651428222656,0.8858546018600464,38.26904296875,-0.9765625,1.8157958984375
6.5899999000000005,6.18182897567749,-7.223306655883789,1.5394717454910278,21.3165283203125,4.8370361328125,3.2501220703125
6.609999900000001,6.325480937957764,-7.134721279144287,2.1380221843719482,3.692626953125,9.7198486328125,6.195068359375
6.6299999000000005,6.378153324127197,-7.101202011108398,2.5546131134033203,-12.3138427734375,9.368896484375,7.7056884765625
6.649999900000001,6.342240333557129,-7.113173484802246,2.7557260990142822,-26.0467529296875,6.6070556640625,5.828857421875
6.6699999000000005,6.258443355560303,-7.158663272857666,2.7461493015289307,-35.919189453125,9.246826171875,3.0517578125
6.6899999,6.172252178192139,-7.249642848968506,2.5737667083740234,-41.9158935546875,15.655517578125,0.6561279296875
6.709999900000001,6.102819919586182,-7.374141216278076,2.279279947280884,-44.158935546875,17.6849365234375,-1.3580322265625
6.7299999,6.0597243309021,-7.51779317855835,1.9177556037902832,-42.724609375,12.237548828125,-2.2735595703125
6.749999900000001,6.050147533416748,-7.654263019561768,1.5394717454910278,-38.9556884765625,6.34765625,-1.953125
6.7699999,6.0597243309021,-7.766790390014648,1.1899182796478271,-33.599853515625,4.852294921875,-1.5869140625
6.789999900000001,6.086060523986816,-7.833827972412109,0.9002198576927185,-27.2674560546875,3.509521484375,-1.495361328125
6.8099999,6.102819919586182,-7.8529815673828125,0.6847416758537292,-20.660400390625,-1.0528564453125,-1.678466796875
6.829999900000001,6.110002517700195,-7.833827972412109,0.5363011956214905,-13.7481689453125,-4.913330078125,-1.8768310546875
6.8499999,6.100425720214844,-7.785943984985352,0.44532153010368347,-6.805419921875,-4.669189453125,-2.7618408203125
6.869999900000001,6.086060523986816,-7.726089000701904,0.3998316824436188,-1.03759765625,-5.1116943359375,-4.39453125
6.8899999,6.098031520843506,-7.666234016418457,0.3878606855869293,3.23486328125,-8.9263916015625,-5.2490234375
6.909999900000001,6.129156112670898,-7.60637903213501,0.40462008118629456,6.7596435546875,-9.8419189453125,-4.57763671875
6.9299999,6.184223175048828,-7.548917770385742,0.4357447028160095,9.3536376953125,-4.7607421875,-3.662109375
6.949999900000001,6.2416839599609375,-7.484274387359619,0.4884171485900879,10.80322265625,-1.708984375,-3.7994384765625
6.9699999,6.289567947387695,-7.412448406219482,0.5530605912208557,10.8642578125,-3.84521484375,-3.72314453125
6.989999900000001,6.323086738586426,-7.343016624450684,0.6392518281936646,9.307861328125,-5.37109375,-3.082275390625
7.0099999,6.356605529785156,-7.297526836395264,0.7350199222564697,6.16455078125,-2.7008056640625,-2.1209716796875
7.029999900000001,6.385335922241211,-7.271190643310547,0.8331822156906128,2.3040771484375,1.2359619140625,-1.068115234375
7.0499999,6.40927791595459,-7.261613845825195,0.9265560507774353,-1.220703125,2.227783203125,-0.1373291015625
7.069999900000001,6.40927791595459,-7.261613845825195,0.9911994934082031,-4.9591064453125,2.197265625,0.06103515625
7.0899999000000005,6.3973069190979,-7.266402244567871,1.0319008827209473,-9.0179443359375,3.6468505859375,-0.274658203125
7.109999900000001,6.36378812789917,-7.275979042053223,1.0271124839782715,-11.8408203125,7.0343017578125,-1.15966796875
7.1299999000000005,6.323086738586426,-7.292738437652588,0.9792284965515137,-12.4664306640625,8.48388671875,-2.716064453125
7.149999900000001,6.232107162475586,-7.292738437652588,0.871489405632019,-11.260986328125,7.7972412109375,-6.3629150390625
7.1699999000000005,6.162675380706787,-7.350199222564697,0.7230489253997803,-7.843017578125,3.326416015625,-12.359619140625
7.1899999,6.052541732788086,-7.374141216278076,0.6392518281936646,-2.7923583984375,-5.79833984375,-16.05224609375
7.209999900000001,6.030993938446045,-7.343016624450684,0.7015010714530945,-12.2833251953125,-21.484375,-13.519287109375
7.2299999,6.102819919586182,-7.29034423828125,0.4908113479614258,-42.3583984375,-28.8543701171875,-10.6658935546875
7.249999900000001,6.279991149902344,-7.24485445022583,0.6200982332229614,-53.16162109375,-19.195556640625,-8.636474609375
7.2699999,6.53377628326416,-7.259219646453857,0.33279404044151306,-51.3153076171875,2.74658203125,-6.1187744140625
7.289999900000001,6.7708024978637695,-7.4555439949035645,0.11252748221158981,-38.57421875,17.730712890625,-3.2958984375
7.3099999,6.89530086517334,-7.620744228363037,-0.2059013396501541,-19.6685791015625,14.5416259765625,-1.312255859375
7.329999900000001,6.888118267059326,-7.893682956695557,-0.6033388376235962,-0.42724609375,2.50244140625,3.3416748046875
7.3499999,6.754043102264404,-7.8745293617248535,-0.8978256583213806,14.9993896484375,-13.1378173828125,8.72802734375
7.369999900000001,6.572083473205566,-7.819462776184082,-1.0438719987869263,27.4200439453125,-15.0909423828125,6.9732666015625
7.3899999,6.370970726013184,-7.666234016418457,-1.0199298858642578,39.2608642578125,-1.495361328125,1.5716552734375
7.409999900000001,6.232107162475586,-7.501033782958984,-0.8331822156906128,48.0804443359375,0.67138671875,-1.15966796875
7.4299999,6.143521785736084,-7.412448406219482,-0.5841852426528931,51.0406494140625,-9.9639892578125,-1.800537109375
7.449999900000001,6.172252178192139,-7.364564418792725,-0.21787235140800476,47.1649169921875,-15.3045654296875,-1.983642578125
7.4699999,6.275202751159668,-7.307103633880615,0.2106897532939911,39.4744873046875,-3.4637451171875,-0.8392333984375
7.489999900000001,6.402095317840576,-7.216124057769775,0.6272808313369751,29.876708984375,11.444091796875,1.129150390625
7.5099999,6.514622688293457,-7.117961883544922,0.9959878921508789,19.5770263671875,15.9454345703125,1.068115234375
7.529999900000001,6.730101108551025,-7.058106422424316,1.292868971824646,6.6680908203125,15.9912109375,-1.251220703125
7.5499999,6.828263282775879,-7.2137298583984375,1.3335703611373901,-5.8135986328125,35.64453125,-0.9765625
7.569999900000001,6.904877662658691,-7.441178798675537,0.507570743560791,-2.0751953125,43.731689453125,10.955810546875
7.5899999000000005,6.871358871459961,-7.666234016418457,0.17956513166427612,21.8353271484375,14.495849609375,26.1077880859375
7.609999900000001,6.660669326782227,-7.778761386871338,-0.5578489899635315,29.296875,-7.476806640625,28.656005859375
7.6299999000000005,6.399701118469238,-7.546523571014404,-0.33518823981285095,22.2625732421875,-4.6844482421875,20.9808349609375
7.649999900000001,6.141127586364746,-7.182605266571045,0.38546648621559143,8.9569091796875,8.3770751953125,9.8114013671875
7.6699999000000005,5.937620162963867,-6.811503887176514,1.2401964664459229,-5.55419921875,18.6767578125,-1.15966796875
7.6899999,5.793968200683594,-6.584054470062256,1.9249382019042969,-16.357421875,24.6734619140625,-8.4228515625
7.709999900000001,5.758055210113525,-6.576871871948242,2.2912509441375732,-22.003173828125,24.200439453125,-9.307861328125
7.7299999,5.808333396911621,-6.763619899749756,2.33913516998291,-26.0009765625,15.9912109375,-5.5999755859375
7.749999900000001,6.054935932159424,-7.340622425079346,1.8818424940109253,-28.86962890625,-3.72314453125,5.9051513671875
7.7699999,6.172252178192139,-7.565677165985107,1.5969325304031372,-26.580810546875,-3.7078857421875,8.9263916015625
7.789999900000001,6.229712963104248,-7.694964408874512,1.3455413579940796,-23.1475830078125,-0.1220703125,8.1329345703125
7.8099999,6.229712963104248,-7.752425193786621,1.1468225717544556,-19.927978515625,0.091552734375,5.31005859375
7.829999900000001,6.172252178192139,-7.762001991271973,1.0007762908935547,-16.6015625,-1.8463134765625,3.0364990234375
7.8499999,6.086060523986816,-7.762001991271973,0.8786720037460327,-13.7176513671875,-1.007080078125,1.5411376953125
7.869999900000001,6.009446144104004,-7.7763671875,0.7781155705451965,-10.92529296875,-0.8087158203125,0.3204345703125
7.8899999,5.954379558563232,-7.8098859786987305,0.6775590777397156,-8.056640625,-4.0740966796875,0.0457763671875
7.909999900000001,5.944802761077881,-7.8529815673828125,0.5817909836769104,-4.608154296875,-7.2174072265625,0.91552734375
7.9299999,5.963956356048584,-7.881711959838867,0.47884035110473633,-0.823974609375,-3.8604736328125,1.1138916015625
7.949999900000001,5.995080947875977,-7.886500358581543,0.3926490843296051,2.8533935546875,0.823974609375,-0.2593994140625
7.9699999,6.021417140960693,-7.8529815673828125,0.33279404044151306,5.7525634765625,0.518798828125,-2.593994140625
7.989999900000001,6.042964935302734,-7.800309181213379,0.31842881441116333,7.50732421875,-3.4332275390625,-4.1046142578125
8.0099999,6.069301128387451,-7.738059997558594,0.35913026332855225,7.9193115234375,-4.241943359375,-3.692626953125
8.0299999,6.102819919586182,-7.668628215789795,0.44771572947502136,7.3699951171875,-0.0762939453125,-3.1585693359375
8.049999900000001,6.143521785736084,-7.603984832763672,0.5674257874488831,6.3934326171875,1.8768310546875,-3.96728515625
8.069999900000001,6.172252178192139,-7.534552574157715,0.6847416758537292,5.096435546875,1.0528564453125,-4.8675537109375
8.0899999,6.186617374420166,-7.47230339050293,0.7805097699165344,3.509521484375,1.190185546875,-5.645751953125
8.1099999,6.200982570648193,-7.419631004333496,0.849941611289978,2.105712890625,2.6092529296875,-6.9580078125
8.129999900000001,6.160281181335449,-7.374141216278076,0.8595184087753296,1.190185546875,1.617431640625,-8.4075927734375
8.149999900000001,6.165069580078125,-7.354987621307373,0.8667010068893433,0.8087158203125,-6.40869140625,-9.2926025390625
8.1699999,6.1315507888793945,-7.378929615020752,0.8140285611152649,1.312255859375,-11.5966796875,-11.077880859375
8.1899999,6.203376770019531,-7.340622425079346,1.039083480834961,-0.8544921875,-13.641357421875,-10.711669921875
8.2099999,6.2392897605896,-7.24485445022583,0.8858546018600464,-25.5889892578125,-13.702392578125,-7.6904296875
8.229999900000001,6.368576526641846,-7.261613845825195,1.05105459690094,-46.6156005859375,-15.07568359375,-5.67626953125
8.2499999,6.461950302124023,-7.206547260284424,0.8595184087753296,-49.6368408203125,-10.345458984375,-5.859375
8.2699999,6.584054470062256,-7.400477409362793,0.6919242739677429,-43.182373046875,-1.129150390625,-4.1351318359375
8.2899999,6.646304130554199,-7.623138427734375,0.43095630407333374,-32.7606201171875,-0.1983642578125,-0.244140625
8.309999900000001,6.710947513580322,-7.766790390014648,0.14844051003456116,-20.4315185546875,-0.7171630859375,1.861572265625
8.3299999,6.6846113204956055,-7.972691535949707,-0.22744916379451752,-5.126953125,12.664794921875,1.5411376953125
8.3499999,6.536170482635498,-7.987056732177734,-0.5985504388809204,13.1988525390625,21.087646484375,3.997802734375
8.3699999,6.378153324127197,-7.967903137207031,-0.8906430602073669,30.2886962890625,11.1236572265625,6.7138671875
8.389999900000001,6.1267619132995605,-7.886500358581543,-1.0797849893569946,44.5709228515625,0,5.5694580078125
8.4099999,5.928043365478516,-7.692570209503174,-1.0582371950149536,53.7872314453125,-12.847900390625,5.6915283203125
8.4299999,5.839457988739014,-7.438784599304199,-0.7637503147125244,53.2379150390625,-32.2113037109375,8.0108642578125
8.4499999,5.937620162963867,-7.309497833251953,-0.24181437492370605,44.4183349609375,-32.440185546875,7.3699951171875
8.469999900000001,6.050147533416748,-7.06528902053833,0.38546648621559143,34.1033935546875,-5.279541015625,3.0670166015625
8.4899999,6.253654956817627,-7.005434036254883,0.950498104095459,24.322509765625,19.256591796875,-0.244140625
8.5099999,6.356605529785156,-7.01979923248291,1.3335703611373901,15.1519775390625,27.1148681640625,-2.9296875
8.5299999,6.4164605140686035,-7.139509677886963,1.50355863571167,6.6070556640625,20.050048828125,-4.4097900390625
8.549999900000001,6.3973069190979,-7.319074630737305,1.558625340461731,-2.227783203125,8.4228515625,-3.0975341796875
8.569999900000001,6.404489517211914,-7.47230339050293,1.5849615335464478,-11.8560791015625,-1.4495849609375,-0.1068115234375
8.5899999,6.402095317840576,-7.510610580444336,1.5849615335464478,-19.83642578125,7.049560546875,0.06103515625
8.6099999,6.423643112182617,-7.503427982330322,1.53707754611969,-21.575927734375,29.296875,-2.349853515625
8.629999900000001,6.430825710296631,-7.524975776672363,1.3646949529647827,-17.7764892578125,36.1480712890625,-4.3487548828125
8.649999900000001,6.449979305267334,-7.603984832763672,1.1635819673538208,-12.51220703125,21.4996337890625,-3.6163330078125
8.6699999,6.3518171310424805,-7.7213006019592285,0.9361328482627869,-9.4757080078125,13.0615234375,-1.617431640625
8.6899999,6.291962146759033,-7.795520782470703,0.7948749661445618,-6.8511962890625,12.0697021484375,-2.2430419921875
8.709999900000001,6.169857978820801,-7.790732383728027,0.7565677165985107,-2.01416015625,11.8560791015625,-5.584716796875
8.729999900000001,6.078877925872803,-7.69735860824585,0.7661445140838623,3.5858154296875,4.638671875,-5.0048828125
8.7499999,6.004657745361328,-7.522581577301025,0.8236053586006165,7.537841796875,-4.8065185546875,-3.265380859375
8.7699999,5.992686748504639,-7.3454108238220215,0.9672574996948242,8.9263916015625,-9.09423828125,-4.3792724609375
8.7899999,6.050147533416748,-7.201758861541748,1.1013327836990356,7.7362060546875,-4.669189453125,-5.7830810546875
8.809999900000001,6.150704383850098,-7.158663272857666,1.2186486721038818,5.4168701171875,2.685546875,-3.0364990234375
8.8299999,6.268020153045654,-7.187393665313721,1.316810965538025,3.2196044921875,2.1514892578125,1.89208984375
8.8499999,6.332663536071777,-7.271190643310547,1.3239935636520386,0.4425048828125,-4.45556640625,2.8839111328125
8.8699999,6.36378812789917,-7.333439826965332,1.3311761617660522,-2.349853515625,-3.4637451171875,0.42724609375
8.889999900000001,6.356605529785156,-7.3669586181640625,1.3024457693099976,-4.3182373046875,1.2969970703125,-0.6256103515625
8.9099999,6.368576526641846,-7.340622425079346,1.2186486721038818,-5.3558349609375,0.244140625,1.40380859375
8.9299999,6.390124320983887,-7.331045627593994,1.1635819673538208,-5.9661865234375,-2.9754638671875,5.0506591796875
8.9499999,6.402095317840576,-7.292738437652588,1.070208191871643,-7.0343017578125,-2.99072265625,7.3699951171875
8.969999900000001,6.390124320983887,-7.319074630737305,1.0079588890075684,-7.0037841796875,-0.5645751953125,6.6375732421875
8.9899999,6.332663536071777,-7.395689010620117,0.9409212470054626,-5.859375,0.091552734375,3.1585693359375
9.0099999,6.253654956817627,-7.51779317855835,0.8667010068893433,-2.685546875,1.0986328125,-0.3204345703125
9.0299999,6.160281181335449,-7.649474620819092,0.768538773059845,0.54931640625,0.335693359375,-3.0364990234375
9.049999900000001,6.107608318328857,-7.726089000701904,0.7493851184844971,1.89208984375,-4.8828125,-4.8675537109375
9.069999900000001,6.098031520843506,-7.6997528076171875,0.7326257228851318,2.38037109375,-7.781982421875,-5.0201416015625
9.0899999,6.162675380706787,-7.644686222076416,0.7852981686592102,2.38037109375,0.396728515625,-4.4403076171875
9.1099999,6.27280855178833,-7.580042362213135,0.828393816947937,3.1280517578125,9.033203125,-3.082275390625
9.129999900000001,6.3518171310424805,-7.433996200561523,0.8667010068893433,3.7689208984375,5.096435546875,-0.2593994140625
9.149999900000001,6.440402507781982,-7.438784599304199,0.9289502501487732,2.532958984375,-3.0670166015625,2.166748046875
9.1699999,6.418854713439941,-7.249642848968506,0.9911994934082031,-0.5645751953125,-1.6326904296875,1.312255859375
9.1899999,6.402095317840576,-7.237671852111816,1.0821791887283325,-3.6773681640625,4.08935546875,-0.8544921875
9.209999900000001,6.356605529785156,-7.223306655883789,1.1324573755264282,-4.730224609375,6.4239501953125,-1.0528564453125
9.229999900000001,6.308721542358398,-7.223306655883789,1.1563993692398071,-4.1351318359375,5.462646484375,1.5716552734375
9.2499999,6.2632317543029785,-7.3023152351379395,1.137245774269104,-3.875732421875,1.2359619140625,3.7078857421875
9.2699999,6.222530364990234,-7.357381820678711,1.1061211824417114,-3.692626953125,-0.2593994140625,3.0670166015625
9.2899999,6.186617374420166,-7.424419403076172,1.0534487962722778,-2.838134765625,1.7852783203125,1.3885498046875
9.309999900000001,6.160281181335449,-7.513004779815674,0.9911994934082031,-0.79345703125,-0.274658203125,0.79345703125
9.3299999,6.155492782592773,-7.582436561584473,0.912190854549408,1.89208984375,-3.448486328125,0.1373291015625
9.3499999,6.121973514556885,-7.620744228363037,0.8427590131759644,4.119873046875,-1.190185546875,-1.6021728515625
9.3699999,6.14831018447876,-7.618350028991699,0.8044517636299133,4.82177734375,1.0833740234375,-2.6397705078125
9.389999900000001,6.165069580078125,-7.673416614532471,0.8020575642585754,4.5928955078125,0.5340576171875,-2.5634765625
9.4099999,6.236895561218262,-7.6782050132751465,0.8379706144332886,3.84521484375,-1.6021728515625,-1.6937255859375
9.4299999,6.279991149902344,-7.68538761138916,0.8930372595787048,2.777099609375,-1.77001953125,-1.5869140625
9.4499999,6.315904140472412,-7.632715225219727,0.9361328482627869,1.495361328125,-0.3662109375,-2.593994140625
9.469999900000001,6.347028732299805,-7.570465564727783,0.9959878921508789,-0.152587890625,2.6092529296875,-3.448486328125
9.4899999,6.354211330413818,-7.4555439949035645,1.0414776802062988,-2.166748046875,5.6915283203125,-3.0517578125
9.5099999,6.3518171310424805,-7.42681360244751,1.0342950820922852,-3.0059814453125,9.033203125,-1.89208984375
9.5299999,6.354211330413818,-7.383718013763428,1.05105459690094,-2.1209716796875,7.4920654296875,-1.8157958984375
9.549999900000001,6.289567947387695,-7.3454108238220215,0.9816226959228516,-0.579833984375,2.0294189453125,-2.5634765625
9.569999900000001,6.291962146759033,-7.383718013763428,0.9481038451194763,0.91552734375,0.091552734375,-2.532958984375
9.5899999,6.256049156188965,-7.33583402633667,0.9026140570640564,2.410888671875,4.7454833984375,-1.9073486328125
9.6099999,6.296750545501709,-7.393294811248779,0.9002198576927185,3.9215087890625,7.5531005859375,-1.739501953125
9.629999900000001,6.275202751159668,-7.333439826965332,0.9241618514060974,4.730224609375,2.471923828125,-1.9683837890625
9.649999900000001,6.303933143615723,-7.390900611877441,0.9816226959228516,4.608154296875,-1.7242431640625,-1.7852783203125
9.6699999,6.277596950531006,-7.328651428222656,1.05105459690094,3.2501220703125,0.91552734375,-1.7242431640625
9.6899999,6.289567947387695,-7.41484260559082,1.1013327836990356,2.2125244140625,4.425048828125,-1.6326904296875
9.709999900000001,6.315904140472412,-7.371747016906738,1.2186486721038818,1.5716552734375,1.89208984375,-1.4801025390625
9.729999900000001,6.3518171310424805,-7.402871608734131,1.278503656387329,-1.6937255859375,-0.0152587890625,-0.79345703125
9.7499999,6.370970726013184,-7.3454108238220215,1.3407529592514038,-6.805419921875,2.685546875,-0.4119873046875
9.7699999,6.421248912811279,-7.376535415649414,1.3670891523361206,-8.9569091796875,4.638671875,0.1220703125
9.7899999,6.418854713439941,-7.321468830108643,1.3048399686813354,-8.30078125,5.4168701171875,1.708984375
9.809999900000001,6.411672115325928,-7.371747016906738,1.1971008777618408,-5.9814453125,3.7841796875,3.7994384765625
9.8299999,6.392518520355225,-7.424419403076172,1.1013327836990356,-3.23486328125,-0.48828125,4.94384765625
9.8499999,6.3302693367004395,-7.371747016906738,1.01753568649292,-0.8697509765625,0.274658203125,4.57763671875
9.8699999,6.2632317543029785,-7.496245384216309,0.9361328482627869,1.739501953125,4.6234130859375,2.3193359375
9.889999900000001,6.1770405769348145,-7.386112213134766,0.9145850539207458,5.2337646484375,2.227783203125,-0.274658203125
9.9099999,6.119579315185547,-7.448361396789551,0.8810662031173706,8.270263671875,-2.0294189453125,-1.52587890625
9.9299999,6.086060523986816,-7.422025203704834,0.8882488012313843,9.2620849609375,-1.6937255859375,-1.190185546875
9.9499999,6.1267619132995605,-7.443572998046875,0.950498104095459,8.2855224609375,-0.42724609375,-0.6103515625
9.969999900000001,6.167463779449463,-7.479485988616943,0.993593692779541,7.4462890625,4.69970703125,-1.4190673828125
9.9899999,6.229712963104248,-7.457938194274902,1.0797849893569946,6.7901611328125,3.662109375,-1.373291015625
10.0099999,6.234501361846924,-7.479485988616943,1.1180921792984009,4.3487548828125,-1.46484375,-1.4801025390625
10.0299999,6.236895561218262,-7.354987621307373,1.2042834758758545,-0.885009765625,-0.91552734375,-2.1820068359375
10.049999900000001,6.270414352416992,-7.41484260559082,1.2737152576446533,-4.94384765625,6.3323974609375,-2.7313232421875
10.069999900000001,6.260837554931641,-7.3669586181640625,1.2976573705673218,-4.7760009765625,15.9759521484375,-3.7384033203125
10.0899999,6.2847795486450195,-7.42681360244751,1.259350061416626,-1.800537109375,14.801025390625,-5.126953125
10.1099999,6.296750545501709,-7.481880187988281,1.194706678390503,1.556396484375,2.4261474609375,-4.364013671875
10.129999900000001,6.349422931671143,-7.5201873779296875,1.1252747774124146,3.7841796875,-0.2288818359375,-0.8392333984375
10.149999900000001,6.40927791595459,-7.55131196975708,1.1563993692398071,4.1351318359375,5.18798828125,3.265380859375
10.1699999,6.428431510925293,-7.558494567871094,1.216254472732544,3.021240234375,4.2877197265625,5.126953125
10.1899999,6.3949127197265625,-7.457938194274902,1.359906554222107,2.197265625,-1.1444091796875,3.6163330078125
10.209999900000001,6.258443355560303,-7.326257228851318,1.455674648284912,1.0528564453125,-1.2664794921875,1.0223388671875
10.229999900000001,6.145915985107422,-7.189787864685059,1.5442601442337036,0.3662109375,4.9285888671875,-1.1138916015625
10.2499999,6.052541732788086,-7.1251444816589355,1.5442601442337036,0.701904296875,6.6375732421875,-2.8076171875
10.2699999,6.007051944732666,-7.103596210479736,1.482010841369629,1.64794921875,-2.593994140625,-1.03759765625
10.2899999,6.033388137817383,-7.206547260284424,1.4053963422775269,2.105712890625,-11.8408203125,2.593994140625
10.309999900000001,6.086060523986816,-7.285555839538574,1.3455413579940796,0.67138671875,-11.3525390625,4.9896240234375
10.3299999,6.224924564361572,-7.383718013763428,1.3192051649093628,-1.220703125,-2.3651123046875,4.5928955078125
10.3499999,6.335057735443115,-7.445967197418213,1.2976573705673218,-1.007080078125,7.8582763671875,3.875732421875
10.3699999,6.402095317840576,-7.50582218170166,1.2473790645599365,-0.152587890625,7.8277587890625,5.5694580078125
10.389999900000001,6.387730121612549,-7.539340972900391,1.2282254695892334,-0.6561279296875,-4.8828125,6.1187744140625
10.4099999,6.289567947387695,-7.582436561584473,1.1994950771331787,-2.1209716796875,-14.5111083984375,2.1820068359375
10.4299999,6.244078159332275,-7.575253963470459,1.2880805730819702,-3.47900390625,-11.932373046875,-2.3040771484375
10.4499999,6.1985883712768555,-7.60637903213501,1.335964560508728,-4.1046142578125,2.38037109375,-4.1961669921875
10.469999900000001,6.200982570648193,-7.534552574157715,1.3527239561080933,-3.4027099609375,7.0648193359375,-3.265380859375
10.4899999,6.215347766876221,-7.572859764099121,1.3024457693099976,-2.166748046875,-3.8299560546875,-2.5634765625
10.5099999,6.2201361656188965,-7.4986395835876465,1.1803414821624756,-0.9002685546875,-7.87353515625,-2.2430419921875
10.5299999,6.265625953674316,-7.544129371643066,1.1037269830703735,0.0457763671875,1.251220703125,-0.732421875
10.549999900000001,6.275202751159668,-7.445967197418213,0.9888052940368652,0.18310546875,10.101318359375,0.4425048828125
10.569999900000001,6.323086738586426,-7.503427982330322,0.9696516990661621,2.166748046875,9.857177734375,0.2288818359375
10.5899999,6.287173748016357,-7.465120792388916,0.9313444495201111,3.96728515625,2.4261474609375,0.1068115234375
10.6099999,6.236895561218262,-7.450755596160889,0.9768342971801758,3.2806396484375,-1.953125,0.79345703125
10.629999900000001,6.18182897567749,-7.364564418792725,1.094150185585022,0.67138671875,-0.213623046875,-0.579833984375
10.649999900000001,6.150704383850098,-7.292738437652588,1.1994950771331787,-1.2969970703125,1.1749267578125,-3.1585693359375
10.6699999,6.179434776306152,-7.292738437652588,1.3311761617660522,-1.89208984375,2.13623046875,-3.4637451171875
10.6899999,6.234501361846924,-7.2568254470825195,1.400607943534851,-2.0751953125,4.7607421875,-1.3275146484375
10.709999900000001,6.320692539215088,-7.42681360244751,1.3862427473068237,-2.0294189453125,6.28662109375,0.48828125
10.729999900000001,6.342240333557129,-7.376535415649414,1.3479355573654175,-0.54931640625,4.45556640625,1.678466796875
10.7499999,6.356605529785156,-7.4770917892456055,1.237802267074585,2.2125244140625,0.213623046875,2.99072265625
10.7699999,6.323086738586426,-7.4770917892456055,1.1635819673538208,4.150390625,-3.0975341796875,3.173828125
10.7899999,6.325480937957764,-7.493851184844971,1.1276689767837524,4.6844482421875,0.3509521484375,2.1514892578125
10.809999900000001,6.313509941101074,-7.462726593017578,1.1444283723831177,4.974365234375,7.0037841796875,1.9989013671875
10.8299999,6.308721542358398,-7.46033239364624,1.2114660739898682,4.4708251953125,7.99560546875,3.7689208984375
10.8499999,6.301538944244385,-7.438784599304199,1.2976573705673218,2.044677734375,2.9754638671875,5.126953125
10.8699999,6.210559368133545,-7.445967197418213,1.3646949529647827,-0.8544921875,1.2664794921875,2.5482177734375
10.889999900000001,6.1530985832214355,-7.4100542068481445,1.460463047027588,-3.021240234375,1.1444091796875,-0.9307861328125
10.9099999,6.076483726501465,-7.469909191131592,1.4987702369689941,-4.1046142578125,2.4871826171875,-1.4495849609375
10.9299999,6.028599739074707,-7.398083209991455,1.4867992401123047,-3.2806396484375,5.462646484375,-1.251220703125
10.9499999,6.023811340332031,-7.524975776672363,1.3910311460494995,-1.0528564453125,3.4942626953125,-1.7242431640625
10.969999900000001,6.057330131530762,-7.462726593017578,1.2880805730819702,0.5340576171875,-3.4332275390625,-1.6937255859375
10.9899999,6.167463779449463,-7.603984832763672,1.1779472827911377,0.8544921875,0.7476806640625,-1.52587890625
11.0099999,6.2201361656188965,-7.603984832763672,1.0965443849563599,2.2125244140625,11.138916015625,-0.457763671875
11.0299999,6.244078159332275,-7.637503623962402,1.0869675874710083,4.547119140625,11.566162109375,0.3204345703125
11.049999900000001,6.143521785736084,-7.637503623962402,1.0845733880996704,6.4544677734375,-1.7242431640625,-2.01416015625
11.069999900000001,6.030993938446045,-7.536946773529053,1.158793568611145,6.7138671875,-10.955810546875,-6.8511962890625
11.0899999,6.028599739074707,-7.536946773529053,1.3024457693099976,5.126953125,-1.0528564453125,-12.3748779296875
11.1099999,6.13633918762207,-7.6111674308776855,1.482010841369629,3.1280517578125,19.6533203125,-14.068603515625
11.129999900000001,6.303933143615723,-7.714118003845215,1.292868971824646,8.514404296875,23.62060546875,-8.2550048828125
11.149999900000001,6.418854713439941,-8.034940719604492,0.5530605912208557,34.942626953125,-3.8909912109375,1.861572265625
11.1699999,6.45476770401001,-8.01339340209961,0.12210428714752197,53.2989501953125,-24.7802734375,9.2620849609375
11.1899999,6.4164605140686035,-7.960720539093018,-0.33039984107017517,50.2471923828125,-23.040771484375,11.749267578125
11.209999900000001,6.361393928527832,-7.6111674308776855,0.13407529890537262,34.3017578125,-11.2762451171875,7.7056884765625
11.229999900000001,6.294356346130371,-7.139509677886963,1.0797849893569946,15.9912109375,-3.4332275390625,1.6021728515625
11.2499999,6.224924564361572,-6.698976516723633,2.0614075660705566,-2.5787353515625,1.77001953125,-3.753662109375
11.2699999,6.19379997253418,-6.406883716583252,2.8131868839263916,-19.8974609375,8.3770751953125,-6.2408447265625
11.2899999,6.203376770019531,-6.282385349273682,3.224989652633667,-34.8052978515625,15.3045654296875,-5.9661865234375
11.309999900000001,6.234501361846924,-6.323086738586426,3.2848446369171143,-46.7376708984375,17.822265625,-4.5318603515625
11.3299999,6.256049156188965,-6.471527099609375,3.066972494125366,-54.351806640625,13.4429931640625,-2.044677734375
11.3499999,6.256049156188965,-6.675034523010254,2.6671407222747803,-57.5714111328125,7.6904296875,0.7781982421875
11.3699999,6.248866558074951,-6.897695064544678,2.185906171798706,-56.5338134765625,5.828857421875,2.3651123046875
11.389999900000001,6.222530364990234,-7.103596210479736,1.702277421951294,-52.5054931640625,5.3558349609375,2.0599365234375
11.4099999,6.189011573791504,-7.283161640167236,1.2545616626739502,-46.44775390625,1.556396484375,0.885009765625
11.4299999,6.14831018447876,-7.453149795532227,0.8643068075180054,-38.57421875,-4.0435791015625,0.3814697265625
11.4499999,6.133944988250732,-7.613561630249023,0.5410895943641663,-28.4271240234375,-5.5999755859375,1.007080078125
11.469999900000001,6.14831018447876,-7.754819393157959,0.29209262132644653,-16.9830322265625,-2.9449462890625,1.46484375
11.4899999,6.18182897567749,-7.860164165496826,0.12449848651885986,-5.9967041015625,-2.532958984375,1.495361328125
11.5099999,6.200982570648193,-7.90086555480957,0.031124621629714966,3.3111572265625,-4.852294921875,1.5869140625
11.5299999,6.184223175048828,-7.876923561096191,0.016759412363171577,10.955810546875,-5.9661865234375,1.3885498046875
11.549999900000001,6.155492782592773,-7.8098859786987305,0.08379705995321274,16.7083740234375,-4.9591064453125,1.1138916015625
11.569999900000001,6.138733386993408,-7.723694801330566,0.21308395266532898,20.263671875,-1.556396484375,0.7476806640625
11.5899999,6.143521785736084,-7.6351094245910645,0.3758896589279175,22.1405029296875,2.7618408203125,0.3662109375
11.6099999,6.174646377563477,-7.570465564727783,0.5410895943641663,22.64404296875,5.37109375,0
11.629999900000001,6.215347766876221,-7.534552574157715,0.6919242739677429,22.7508544921875,6.0882568359375,-0.0457763671875
11.649999900000001,6.2632317543029785,-7.524975776672363,0.8379706144332886,22.0184326171875,5.37109375,0.6103515625
11.6699999,6.31829833984375,-7.527369976043701,0.9792284965515137,20.050048828125,5.5084228515625,1.251220703125
11.6899999,6.370970726013184,-7.532158374786377,1.1228805780410767,16.845703125,7.4462890625,1.708984375
11.709999900000001,6.406883716583252,-7.529764175415039,1.2665326595306396,13.1378173828125,9.429931640625,1.9683837890625
11.729999900000001,6.40927791595459,-7.51779317855835,1.3934253454208374,9.4451904296875,11.322021484375,1.312255859375
11.7499999,6.291962146759033,-7.501033782958984,1.558625340461731,3.082275390625,10.772705078125,-1.220703125
11.7699999,6.19379997253418,-7.4986395835876465,1.5969325304031372,0.396728515625,6.134033203125,-2.288818359375
11.7899999,6.095637321472168,-7.501033782958984,1.6065093278884888,-2.0294189453125,2.8533935546875,-3.6163330078125
11.809999900000001,6.016628742218018,-7.4986395835876465,1.6065093278884888,-3.4942626953125,1.1444091796875,-5.279541015625
11.8299999,5.980715751647949,-7.493851184844971,1.601720929145813,-4.33349609375,-1.190185546875,-6.9732666015625
11.8499999,5.971138954162598,-7.4770917892456055,1.5921441316604614,-5.0506591796875,-3.1585693359375,-8.3160400390625
11.8699999,5.9974751472473145,-7.4555439949035645,1.5705963373184204,-5.6304931640625,-4.82177734375,-9.09423828125
11.889999900000001,6.069301128387451,-7.433996200561523,1.5442601442337036,-6.2408447265625,-7.14111328125,-9.185791015625
11.9099999,6.169857978820801,-7.41484260559082,1.5083470344543457,-6.4544677734375,-7.87353515625,-8.3770751953125
11.9299999,6.296750545501709,-7.398083209991455,1.4676456451416016,-6.4697265625,-5.43212890625,-6.2713623046875
11.9499999,6.40927791595459,-7.376535415649414,1.4101848602294922,-5.9051513671875,-1.89208984375,-3.5400390625
11.969999900000001,6.4834980964660645,-7.357381820678711,1.335964560508728,-4.5166015625,-2.197265625,-1.2054443359375
11.9899999,6.485892295837402,-7.333439826965332,1.235408067703247,-2.6092529296875,-6.5155029296875,0.7476806640625
12.0099999,6.469132900238037,-7.292738437652588,1.1300631761550903,1.5411376953125,-8.60595703125,2.105712890625
12.0299999,6.392518520355225,-7.254431247711182,1.0127472877502441,5.18798828125,-2.13623046875,0.1373291015625
12.049999900000001,6.311115741729736,-7.252037048339844,0.8571242094039917,10.345458984375,3.2196044921875,-3.997802734375
12.069999900000001,6.18182897567749,-7.285555839538574,0.689530074596405,20.8587646484375,-7.720947265625,-6.34765625
12.0899999,6.064512729644775,-7.24485445022583,0.7852981686592102,23.6968994140625,-25.726318359375,-6.378173828125
12.1099999,5.947196960449219,-7.180211067199707,0.6248866319656372,2.3040771484375,-29.0069580078125,-11.5203857421875
12.129999900000001,5.896918773651123,-7.086836814880371,0.8427590131759644,-9.9029541015625,-21.514892578125,-21.5911865234375
12.149999900000001,6.021417140960693,-7.108384609222412,0.8259995579719543,-8.392333984375,-15.9454345703125,-25.909423828125
12.1699999,6.251260757446289,-7.240066051483154,0.8475474119186401,1.2969970703125,-4.608154296875,-20.9503173828125
12.1899999,6.586448669433594,-7.55131196975708,0.8403648138046265,12.4969482421875,5.401611328125,-10.7879638671875
12.209999900000001,6.892906665802002,-7.726089000701904,0.7948749661445618,20.56884765625,-2.899169921875,-0.5340576171875
12.229999900000001,7.132327079772949,-7.843404769897461,0.768538773059845,25.054931640625,-15.5181884765625,5.92041015625
12.2499999,7.194576263427734,-7.642292022705078,0.811634361743927,26.763916015625,-10.2081298828125,7.843017578125
12.2699999,7.117961883544922,-7.340622425079346,0.9481038451194763,26.4434814453125,0.274658203125,7.598876953125
12.289999900000002,6.926425457000732,-6.936002254486084,1.1516109704971313,22.8118896484375,-6.317138671875,5.92041015625
12.309999900000001,6.718130111694336,-6.627150535583496,1.4173674583435059,15.9912109375,-15.5181884765625,3.35693359375
12.3299999,6.538564682006836,-6.509834289550781,1.6543933153152466,8.8958740234375,-6.16455078125,2.2430419921875
12.3499999,6.452373504638672,-6.555324077606201,1.8076223134994507,2.2125244140625,9.5977783203125,3.143310546875
12.3699999,6.3973069190979,-6.710947513580322,1.8986018896102905,-3.7689208984375,11.077880859375,3.96728515625
12.389999900000001,6.366182327270508,-6.840234279632568,1.867477297782898,-9.1705322265625,0.4730224609375,3.4637451171875
12.4099999,6.31829833984375,-6.952761650085449,1.7741034030914307,-13.3209228515625,-0.4730224609375,1.2969970703125
12.4299999,6.325480937957764,-7.024587631225586,1.678335428237915,-15.1519775390625,5.4168701171875,-0.7171630859375
12.4499999,6.36378812789917,-7.132327079772949,1.5298948287963867,-14.34326171875,6.9580078125,-1.556396484375
12.469999900000001,6.440402507781982,-7.2783732414245605,1.3766659498214722,-11.2457275390625,4.852294921875,-1.40380859375
12.4899999,6.512228488922119,-7.438784599304199,1.2282254695892334,-7.5225830078125,3.3111572265625,0.1678466796875
12.5099999,6.555324077606201,-7.589619159698486,1.1013327836990356,-3.814697265625,1.5716552734375,0.640869140625
12.5299999,6.557718276977539,-7.647080421447754,1.036689281463623,-0.8392333984375,-1.251220703125,-1.03759765625
12.549999900000001,6.543353080749512,-7.613561630249023,1.05105459690094,1.7242431640625,0.2899169921875,-2.5482177734375
12.569999900000001,6.502651691436768,-7.491456985473633,1.0749965906143188,3.662109375,3.60107421875,-2.38037109375
12.5899999,6.493074893951416,-7.319074630737305,1.1683704853057861,4.45556640625,1.739501953125,-1.2664794921875
12.6099999,6.476315498352051,-7.15387487411499,1.2497732639312744,3.96728515625,-0.732421875,-0.48828125
12.629999900000001,6.4834980964660645,-7.050923824310303,1.316810965538025,3.021240234375,-0.48828125,-0.701904296875
12.649999900000001,6.512228488922119,-7.005434036254883,1.37906014919281,1.800537109375,2.655029296875,-1.15966796875
12.6699999,6.524199485778809,-7.0341644287109375,1.3910311460494995,0.7171630859375,6.011962890625,-0.823974609375
12.6899999,6.560112476348877,-7.086836814880371,1.3670891523361206,-0.5035400390625,3.8604736328125,0.946044921875
12.709999900000001,6.53377628326416,-7.0988078117370605,1.357512354850769,-1.861572265625,2.1820068359375,2.685546875
12.729999900000001,6.514622688293457,-7.082048416137695,1.3239935636520386,-3.2501220703125,2.197265625,1.9378662109375
12.7499999,6.493074893951416,-7.01979923248291,1.3120225667953491,-3.5552978515625,2.716064453125,0.2288818359375
12.7699999,6.481103897094727,-6.959944248199463,1.3048399686813354,-3.2501220703125,3.814697265625,0.8697509765625
12.789999900000002,6.502651691436768,-6.914454460144043,1.2952631711959839,-3.4332275390625,4.3487548828125,3.082275390625
12.809999900000001,6.517016887664795,-6.9455790519714355,1.2737152576446533,-3.631591796875,5.859375,3.0059814453125
12.8299999,6.507440090179443,-7.029376029968262,1.2449848651885986,-2.838134765625,4.913330078125,0.5645751953125
12.8499999,6.5050458908081055,-7.16584587097168,1.2066776752471924,-1.2054443359375,0.3204345703125,-0.5645751953125
12.8699999,6.50025749206543,-7.299921035766602,1.170764684677124,0.5950927734375,-0.48828125,0.48828125
12.889999900000001,6.521805286407471,-7.393294811248779,1.1779472827911377,1.6632080078125,3.9215087890625,2.50244140625
12.9099999,6.531382083892822,-7.412448406219482,1.2018892765045166,2.2125244140625,7.5225830078125,4.2572021484375
12.9299999,6.512228488922119,-7.364564418792725,1.2641384601593018,2.5177001953125,7.4920654296875,5.2947998046875
12.9499999,6.445190906524658,-7.29034423828125,1.3215993642807007,2.7008056640625,5.340576171875,4.0435791015625
12.969999900000001,6.361393928527832,-7.240066051483154,1.381454348564148,2.685546875,6.34765625,1.068115234375
12.9899999,6.291962146759033,-7.24485445022583,1.4508862495422363,2.0599365234375,7.781982421875,-1.861572265625
13.0099999,6.260837554931641,-7.316680431365967,1.5155296325683594,0.4425048828125,6.6070556640625,-3.509521484375
13.0299999,6.251260757446289,-7.328651428222656,1.6160861253738403,-1.6632080078125,1.3427734375,-3.5858154296875
13.049999900000001,6.222530364990234,-7.548917770385742,1.400607943534851,-2.38037109375,-6.9732666015625,-1.5106201171875
13.069999900000001,6.291962146759033,-7.608773231506348,0.7230489253997803,16.17431640625,-19.6075439453125,1.861572265625
13.0899999,6.382941722869873,-7.714118003845215,0.2968810200691223,41.32080078125,-21.8353271484375,3.60107421875
13.1099999,6.538564682006836,-7.68538761138916,-0.2059013396501541,45.2880859375,-10.7879638671875,7.0953369140625
13.129999900000001,6.66785192489624,-7.4555439949035645,0.028730420395731926,34.515380859375,-2.6397705078125,8.697509765625
13.149999900000001,6.691793918609619,-7.146692276000977,0.6775590777397156,18.1121826171875,-1.2969970703125,7.1258544921875
13.1699999,6.629544734954834,-6.842628479003906,1.4269442558288574,1.8310546875,1.64794921875,3.6163330078125
13.1899999,6.509834289550781,-6.62236213684082,2.0422539710998535,-12.054443359375,10.55908203125,-0.2593994140625
13.209999900000001,6.390124320983887,-6.538564682006836,2.4181437492370605,-23.529052734375,16.387939453125,-2.685546875
13.229999900000001,6.320692539215088,-6.5912370681762695,2.535459518432617,-31.9976806640625,14.7247314453125,-2.9144287109375
13.2499999,6.289567947387695,-6.730101108551025,2.4372973442077637,-37.2467041015625,12.8021240234375,-2.4261474609375
13.2699999,6.311115741729736,-6.909666061401367,2.2026655673980713,-39.6575927734375,14.6026611328125,-2.3345947265625
13.289999900000002,6.3518171310424805,-7.096413612365723,1.9057846069335938,-39.0167236328125,14.5721435546875,-2.838134765625
13.309999900000001,6.3973069190979,-7.254431247711182,1.6136919260025024,-36.4532470703125,8.3465576171875,-2.7618408203125
13.3299999,6.430825710296631,-7.386112213134766,1.3431471586227417,-32.8369140625,2.3193359375,-2.1820068359375
13.3499999,6.440402507781982,-7.474697589874268,1.1204863786697388,-27.6947021484375,0.244140625,-1.0986328125
13.3699999,6.45476770401001,-7.515398979187012,0.9552865028381348,-20.99609375,-0.6103515625,-0.885009765625
13.389999900000001,6.449979305267334,-7.515398979187012,0.8236053586006165,-13.916015625,-2.6397705078125,-1.3427734375
13.4099999,6.440402507781982,-7.47230339050293,0.730231523513794,-6.622314453125,-7.2784423828125,0.152587890625
13.4299999,6.4380083084106445,-7.402871608734131,0.6655880808830261,0.4730224609375,-11.16943359375,3.1280517578125
13.4499999,6.471527099609375,-7.331045627593994,0.646434485912323,6.8359375,-9.9639892578125,5.584716796875
13.469999900000001,6.512228488922119,-7.280767440795898,0.6536170840263367,12.420654296875,-5.0811767578125,8.1787109375
13.4899999,6.5696892738342285,-7.266402244567871,0.6823474764823914,17.425537109375,-3.3416748046875,13.671875
13.5099999,6.6391215324401855,-7.285555839538574,0.7230489253997803,21.54541015625,-3.387451171875,20.9197998046875
13.5299999,6.694188117980957,-7.3454108238220215,0.7661445140838623,24.7344970703125,2.13623046875,27.252197265625
13.549999900000001,6.7277069091796875,-7.41484260559082,0.811634361743927,27.984619140625,9.70458984375,34.0728759765625
13.569999900000001,6.71334171295166,-7.47230339050293,0.8690952062606812,31.0211181640625,8.9263916015625,41.32080078125
13.5899999,6.5696892738342285,-7.513004779815674,0.9217676520347595,31.7230224609375,-1.495361328125,47.36328125
13.6099999,6.344634532928467,-7.503427982330322,1.0247182846069336,29.8004150390625,-14.404296875,50.2471923828125
13.629999900000001,6.038176536560059,-7.4555439949035645,1.1971008777618408,27.03857421875,-17.333984375,45.0592041015625
13.649999900000001,5.698200225830078,-7.378929615020752,1.4269442558288574,23.4375,-10.772705078125,34.2559814453125
13.6699999,5.398924827575684,-7.331045627593994,1.6927006244659424,18.157958984375,-8.36181640625,23.62060546875
13.6899999,5.171475887298584,-7.3669586181640625,1.9345149993896484,11.688232421875,-9.9945068359375,16.1285400390625
13.709999900000001,5.049371242523193,-7.503427982330322,2.1092917919158936,4.9896240234375,-8.1024169921875,12.054443359375
13.729999900000001,5.044582843780518,-7.740454196929932,2.1954829692840576,-0.946044921875,-5.3863525390625,11.1236572265625
13.7499999,5.125985622406006,-8.015787124633789,2.2002713680267334,-5.8746337890625,-8.6669921875,13.9617919921875
13.7699999,5.25527286529541,-8.26239013671875,2.1332337856292725,-10.0555419921875,-15.9454345703125,19.22607421875
13.789999900000002,5.384559631347656,-8.437167167663574,2.0183119773864746,-13.2293701171875,-21.392822265625,24.59716796875
13.809999900000001,5.4875102043151855,-8.51138687133789,1.8938134908676147,-14.801025390625,-24.3377685546875,30.1361083984375
13.8299999,5.5329999923706055,-8.487444877624512,1.766920804977417,-15.1824951171875,-26.1077880859375,35.21728515625
13.8499999,5.5114521980285645,-8.401253700256348,1.6328455209732056,-14.801025390625,-27.9693603515625,38.4521484375
13.8699999,5.4252610206604,-8.286332130432129,1.5107412338256836,-13.7939453125,-30.303955078125,41.1529541015625
13.889999900000001,5.276820659637451,-8.176198959350586,1.3886369466781616,-11.77978515625,-27.6947021484375,42.8466796875
13.9099999,5.07570743560791,-8.094796180725098,1.2545616626739502,-8.8348388671875,-20.6298828125,40.6951904296875
13.9299999,4.850652694702148,-8.078036308288574,1.0965443849563599,-5.92041015625,-17.4102783203125,35.5224609375
13.9499999,4.58968448638916,-8.118738174438477,0.8954314589500427,-1.9073486328125,-16.876220703125,31.1279296875
13.969999900000001,4.3191399574279785,-8.248024940490723,0.6751648783683777,3.814697265625,-14.7247314453125,25.970458984375
13.9899999,4.062960147857666,-8.425195693969727,0.5099649429321289,10.8795166015625,-11.5966796875,18.951416015625
14.0099999,3.8331170082092285,-8.616731643676758,0.5650315880775452,7.2784423828125,-12.237548828125,13.0615234375
14.0299999,3.643975019454956,-8.741230010986328,0.6871358752250671,-15.68603515625,-7.5225830078125,9.368896484375
14.049999900000001,3.5697548389434814,-8.93037223815918,0.849941611289978,-28.62548828125,-3.7078857421875,3.997802734375
14.069999900000001,3.598485231399536,-9.08838939666748,0.9026140570640564,-29.6173095703125,-3.35693359375,-0.457763671875
14.0899999,3.773261785507202,-9.349357604980469,0.7230489253997803,-23.651123046875,-8.3465576171875,-0.91552734375
14.1099999,4.022258758544922,-9.555258750915527,0.44771572947502136,-12.542724609375,-3.9825439453125,-3.509521484375
14.129999900000001,4.273650169372559,-9.732429504394531,0.1149216815829277,0.8392333984375,8.941650390625,-7.781982421875
14.149999900000001,4.3861775398254395,-9.679757118225098,-0.14365209639072418,13.2904052734375,6.591796875,-9.735107421875
14.1699999,4.446032524108887,-9.607931137084961,-0.2825157940387726,22.39990234375,-9.246826171875,-9.7198486328125
14.1899999,4.412513732910156,-9.442731857299805,-0.27054479718208313,28.01513671875,-13.9007568359375,-10.2691650390625
14.209999900000001,4.393360137939453,-9.255983352661133,-0.0933738648891449,32.16552734375,-7.0037841796875,-10.772705078125
14.229999900000001,4.414907932281494,-9.035717010498047,0.16759411990642548,33.4625244140625,-3.997802734375,-9.490966796875
14.2499999,4.4508209228515625,-8.746018409729004,0.5051765441894531,30.09033203125,-8.5601806640625,-7.4615478515625
14.2699999,4.5154643058776855,-8.429984092712402,0.8834604024887085,22.735595703125,-11.9171142578125,-5.2947998046875
14.289999900000002,4.592078685760498,-8.188169479370117,1.2401964664459229,14.129638671875,-4.08935546875,-3.7994384765625
14.309999900000001,4.663905143737793,-8.068459510803223,1.5538369417190552,4.5013427734375,4.241943359375,-3.204345703125
14.3299999,4.742913722991943,-8.075642585754395,1.7357962131500244,-5.0201416015625,3.11279296875,-2.166748046875
14.3499999,4.776432514190674,-8.169015884399414,1.7764976024627686,-12.908935546875,2.1514892578125,-0.152587890625
14.3699999,4.790797710418701,-8.259995460510254,1.721431016921997,-18.4783935546875,5.0201416015625,1.007080078125
14.389999900000001,4.7620673179626465,-8.343792915344238,1.577778935432434,-21.5911865234375,5.7220458984375,0.579833984375
14.4099999,4.747702121734619,-8.391676902770996,1.4101848602294922,-22.918701171875,5.279541015625,0.3204345703125
14.4299999,4.702212333679199,-8.461109161376953,1.1971008777618408,-22.0184326171875,7.2021484375,0.762939453125
14.4499999,4.668693542480469,-8.556877136230469,0.9624691009521484,-18.73779296875,9.0484619140625,1.678466796875
14.469999900000001,4.618414878845215,-8.712499618530273,0.727837324142456,-14.9078369140625,3.326416015625,3.173828125
14.4899999,4.558559894561768,-8.875306129455566,0.5363011956214905,-11.4593505859375,-4.08935546875,4.0283203125
14.5099999,4.501099109649658,-9.016563415527344,0.3902548849582672,-7.843017578125,-4.1351318359375,3.11279296875
14.5299999,4.460397720336914,-9.071630477905273,0.3423708379268646,-4.82177734375,1.373291015625,0.8087158203125
14.549999900000001,4.436455726623535,-9.040505409240723,0.33039984107017517,-3.143310546875,4.0740966796875,-0.701904296875
14.569999900000001,4.417302131652832,-8.93037223815918,0.35913026332855225,-2.1820068359375,1.3885498046875,-0.579833984375
14.5899999,4.414907932281494,-8.793902397155762,0.40701428055763245,-1.0528564453125,-0.1220703125,0.1220703125
14.6099999,4.414907932281494,-8.69095230102539,0.44771572947502136,0.1678466796875,3.3721923828125,-0.335693359375
14.629999900000001,4.436455726623535,-8.664615631103516,0.4620809257030487,0.8697509765625,4.852294921875,-1.0833740234375
14.649999900000001,4.4532151222229,-8.69334602355957,0.4692635238170624,1.068115234375,3.509521484375,-0.5950927734375
14.6699999,4.467580318450928,-8.774748802185059,0.4620809257030487,1.2664794921875,2.777099609375,0.396728515625
14.6899999,4.460397720336914,-8.825027465820312,0.4596867263317108,0.9918212890625,2.593994140625,-0.457763671875
14.709999900000001,4.455609321594238,-8.832210540771484,0.5027823448181152,0.6866455078125,2.3345947265625,-2.2125244140625
14.729999900000001,4.4723687171936035,-8.777143478393555,0.5506663918495178,-0.213623046875,1.4190673828125,-2.2430419921875
14.7499999,4.489128112792969,-8.707711219787598,0.6272808313369751,-1.3275146484375,4.8980712890625,-1.007080078125
14.7699999,4.51067590713501,-8.619126319885254,0.6847416758537292,-1.3427734375,9.735107421875,-0.640869140625
14.789999900000002,4.51067590713501,-8.60236644744873,0.7086837291717529,-1.708984375,6.28662109375,-2.13623046875
14.809999900000001,4.51067590713501,-8.633491516113281,0.7110779285430908,-2.0751953125,1.15966796875,-3.6773681640625
14.8299999,4.529829502105713,-8.722076416015625,0.6823474764823914,-1.8463134765625,1.77001953125,-3.41796875
14.8499999,4.551377296447754,-8.841787338256836,0.6200982332229614,-0.3509521484375,7.1258544921875,-1.9073486328125
14.8699999,4.575319290161133,-8.892065048217773,0.5841852426528931,1.556396484375,7.7667236328125,-1.129150390625
14.889999900000001,4.55616569519043,-8.875306129455566,0.5602431893348694,2.2125244140625,0.3204345703125,-1.7242431640625
14.9099999,4.522646903991699,-8.78432559967041,0.5746083855628967,2.38037109375,-3.0517578125,-2.25830078125
14.9299999,4.503493309020996,-8.671798706054688,0.6488286852836609,2.4261474609375,-0.06103515625,-1.3885498046875
14.9499999,4.503493309020996,-8.56884765625,0.7254431247711182,3.0670166015625,4.2877197265625,-0.4119873046875
14.969999900000001,4.522646903991699,-8.537723541259766,0.7757213711738586,2.9296875,3.60107421875,0.6256103515625
14.9899999,4.553771495819092,-8.554482460021973,0.8259995579719543,1.4495849609375,-0.213623046875,1.251220703125
15.0099999,4.565742492675781,-8.621520042419434,0.8379706144332886,-0.30517578125,0.396728515625,1.5106201171875
15.0299999,4.565742492675781,-8.719682693481445,0.8212111592292786,-1.1749267578125,3.7384033203125,0.7781982421875
15.049999900000001,4.525041103363037,-8.779537200927734,0.790086567401886,-1.007080078125,4.638671875,-0.42724609375
15.069999900000001,4.481945514678955,-8.808267593383789,0.7445967197418213,-0.5950927734375,0.244140625,-0.2288818359375
15.0899999,4.434061527252197,-8.772355079650879,0.6991068720817566,-0.823974609375,-4.9591064453125,0.8697509765625
15.1099999,4.438849925994873,-8.746018409729004,0.706289529800415,-1.251220703125,-2.960205078125,0.6866455078125
15.129999900000001,4.469974517822266,-8.741230010986328,0.7182605266571045,-1.64794921875,2.2735595703125,-0.579833984375
15.149999900000001,4.527435302734375,-8.820239067077637,0.7374141216278076,-1.77001953125,3.1585693359375,-1.3427734375
15.1699999,4.51067590713501,-8.954314231872559,0.6248866319656372,-2.1209716796875,-0.244140625,-0.030517578125
15.1899999,4.496310710906982,-9.157821655273438,0.2106897532939911,11.7340087890625,-9.613037109375,2.7618408203125
15.209999900000001,4.402936935424805,-9.253589630126953,-0.08140286058187485,43.7774658203125,-20.538330078125,1.6326904296875
15.229999900000001,4.343081951141357,-9.248801231384277,-0.38067805767059326,58.77685546875,-24.0325927734375,-1.678466796875
15.2499999,4.326322555541992,-9.059659004211426,-0.24181437492370605,54.931640625,-22.796630859375,-2.4566650390625
15.2699999,4.352658748626709,-8.746018409729004,0.2537853717803955,42.205810546875,-18.4326171875,-2.3345947265625
15.289999900000002,4.412513732910156,-8.391676902770996,0.9145850539207458,25.634765625,-11.04736328125,-2.6092529296875
15.309999900000001,4.49870491027832,-8.092401504516602,1.5682021379470825,7.3089599609375,-3.5552978515625,-3.9215087890625
15.3299999,4.592078685760498,-7.8960771560668945,2.0661959648132324,-10.0555419921875,4.0740966796875,-4.669189453125
15.3499999,4.6950297355651855,-7.829039573669434,2.3535003662109375,-24.7955322265625,12.1612548828125,-3.448486328125
15.3699999,4.795586109161377,-7.8745293617248535,2.406172752380371,-36.3006591796875,18.9361572265625,-1.7852783203125
15.389999900000001,4.855441093444824,-7.989450931549072,2.27209734916687,-44.586181640625,22.0489501953125,-1.1138916015625
15.4099999,4.865017890930176,-8.145073890686035,1.9991583824157715,-49.3621826171875,21.7437744140625,-0.54931640625
15.4299999,4.824316501617432,-8.315062522888184,1.656787633895874,-51.2542724609375,19.378662109375,0.42724609375
15.4499999,4.752490520477295,-8.47786808013916,1.3000515699386597,-50.537109375,17.669677734375,1.15966796875
15.469999900000001,4.661510944366455,-8.628703117370605,0.9576807022094727,-47.4700927734375,16.4642333984375,0.4425048828125
15.4899999,4.563348293304443,-8.760383605957031,0.6488286852836609,-42.7398681640625,13.0767822265625,-1.3885498046875
15.5099999,4.477157115936279,-8.865729331970215,0.3758896589279175,-37.0635986328125,6.134033203125,-2.13623046875
15.5299999,4.422090530395508,-8.956708908081055,0.14844051003456116,-30.7769775390625,0.8544921875,-2.2125244140625
15.549999900000001,4.398148536682129,-9.016563415527344,-0.038307227194309235,-23.8800048828125,-0.54931640625,-2.3345947265625
15.569999900000001,4.4077253341674805,-9.045293807983398,-0.17717093229293823,-17.059326171875,-0.9765625,-3.1280517578125
15.5899999,4.417302131652832,-9.050082206726074,-0.29209262132644653,-11.16943359375,-2.593994140625,-4.5318603515625
15.6099999,4.4292731285095215,-9.033323287963867,-0.3758896589279175,-5.5084228515625,-5.4779052734375,-5.584716796875
15.629999900000001,4.434061527252197,-8.999804496765137,-0.4405331015586853,0.42724609375,-6.3629150390625,-7.080078125
15.649999900000001,4.438849925994873,-8.96389102935791,-0.4812345504760742,5.7220458984375,-5.401611328125,-9.9639892578125
15.6699999,4.4508209228515625,-8.916007041931152,-0.49320554733276367,9.735107421875,-7.415771484375,-12.0697021484375
15.6899999,4.553771495819092,-8.822632789611816,-0.4165911078453064,14.2364501953125,-6.1492919921875,-14.068603515625
15.709999900000001,4.6471452713012695,-8.772355079650879,-0.3447650372982025,16.6015625,3.7689208984375,-16.6168212890625
15.729999900000001,4.73573112487793,-8.722076416015625,-0.26815059781074524,18.9666748046875,9.2315673828125,-19.3939208984375
15.7499999,4.809951305389404,-8.674192428588867,-0.19153612852096558,19.775390625,9.2010498046875,-20.721435546875
15.7699999,4.850652694702148,-8.628703117370605,-0.12210428714752197,19.8822021484375,5.9967041015625,-20.4010009765625
15.789999900000002,4.891354084014893,-8.588001251220703,-0.028730420395731926,19.7601318359375,0.9613037109375,-19.4854736328125
15.809999900000001,4.929661273956299,-8.554482460021973,0.08619125932455063,19.4091796875,-1.9073486328125,-19.2718505859375
15.8299999,4.982333660125732,-8.516175270080566,0.22505496442317963,19.3939208984375,-0.9002685546875,-19.5159912109375
15.8499999,5.04218864440918,-8.480262756347656,0.3687070608139038,19.744873046875,2.44140625,-20.538330078125
15.869999900000002,5.097255229949951,-8.449137687683105,0.49799394607543945,20.172119140625,4.8828125,-22.918701171875
15.889999900000001,5.16429328918457,-8.413225173950195,0.6129156351089478,20.0042724609375,4.69970703125,-25.115966796875
15.9099999,5.231330871582031,-8.377311706542969,0.7038952708244324,19.2108154296875,6.6680908203125,-26.123046875
15.9299999,5.319916248321533,-8.336610794067383,0.7829039692878723,18.2952880859375,10.833740234375,-25.7568359375
15.9499999,5.413290023803711,-8.271966934204102,0.8619126081466675,17.1356201171875,14.22119140625,-25.1312255859375
15.969999900000001,5.501875400543213,-8.185775756835938,0.9265560507774353,15.472412109375,17.181396484375,-25.1312255859375
15.9899999,5.57370138168335,-8.068459510803223,0.9840168952941895,13.275146484375,15.2740478515625,-24.4293212890625
16.0099999,5.6455278396606445,-7.934384346008301,1.048660397529602,10.955810546875,7.0037841796875,-21.484375
16.0299999,5.731719017028809,-7.793126583099365,1.1252747774124146,8.48388671875,-0.4119873046875,-17.4102783203125
16.0499999,5.849034786224365,-7.6566572189331055,1.2234370708465576,5.8746337890625,-2.5787353515625,-14.068603515625
16.0699999,5.985504150390625,-7.536946773529053,1.3311761617660522,3.0364990234375,-1.0223388671875,-11.4898681640625
16.089999900000002,6.102819919586182,-7.4316020011901855,1.4221558570861816,0.457763671875,0.213623046875,-8.30078125
16.109999900000002,6.169857978820801,-7.352593421936035,1.4508862495422363,-1.495361328125,-2.197265625,-5.1116943359375
16.1299999,6.169857978820801,-7.297526836395264,1.4293384552001953,-2.532958984375,-6.3934326171875,-3.47900390625
16.1499999,6.086060523986816,-7.24485445022583,1.357512354850769,-2.6702880859375,-6.9122314453125,-4.7454833984375
16.1699999,5.932831764221191,-7.201758861541748,1.2449848651885986,-2.44140625,-7.8887939453125,-9.1094970703125
16.1899999,5.74129581451416,-7.201758861541748,1.1252747774124146,-1.40380859375,-16.815185546875,-14.2974853515625
16.2099999,5.590460777282715,-7.237671852111816,1.0869675874710083,0.244140625,-25.4669189453125,-17.8680419921875
16.2299999,5.595249176025391,-7.240066051483154,1.2066776752471924,-8.0718994140625,-25.69580078125,-18.8446044921875
16.249999900000002,5.700594425201416,-7.352593421936035,1.2282254695892334,-34.7747802734375,-15.869140625,-15.93017578125
16.269999900000002,5.985504150390625,-7.42681360244751,1.3766659498214722,-49.3316650390625,-10.2081298828125,-9.5672607421875
16.2899999,6.270414352416992,-7.637503623962402,1.2186486721038818,-53.2379150390625,-3.5247802734375,-4.3182373046875
16.3099999,6.497863292694092,-7.841010570526123,0.9576807022094727,-47.027587890625,3.5858154296875,-1.8310546875
16.3299999,6.603208065032959,-8.003816604614258,0.5602431893348694,-36.407470703125,1.9989013671875,0
16.3499999,6.62236213684082,-8.13789176940918,0.15322890877723694,-24.5513916015625,-1.8157958984375,2.3193359375
16.3699999,6.4834980964660645,-8.109161376953125,-0.24899697303771973,-12.4969482421875,-0.79345703125,1.861572265625
16.3899999,6.313509941101074,-8.042123794555664,-0.545877993106842,-0.5035400390625,-1.220703125,-1.3580322265625
16.4099999,6.121973514556885,-7.922413349151611,-0.7134721279144287,10.5743408203125,-7.171630859375,-2.7313232421875
16.429999900000002,6.01423454284668,-7.795520782470703,-0.7374141216278076,18.6767578125,-9.1705322265625,-1.40380859375
16.4499999,5.95677375793457,-7.714118003845215,-0.6344634294509888,23.3154296875,-0.7476806640625,-1.007080078125
16.4699999,5.975927352905273,-7.673416614532471,-0.47405192255973816,25.5279541015625,3.6468505859375,-1.6021728515625
16.4899999,6.023811340332031,-7.630321025848389,-0.2322375625371933,25.360107421875,-2.655029296875,-0.5645751953125
16.5099999,6.054935932159424,-7.539340972900391,-0.05267243832349777,23.162841796875,-6.4239501953125,1.495361328125
16.5299999,6.107608318328857,-7.4100542068481445,0.1867477297782898,20.3399658203125,-1.5869140625,2.0599365234375
16.5499999,6.184223175048828,-7.390900611877441,0.363918662071228,16.082763671875,2.13623046875,1.4495849609375
16.5699999,6.2392897605896,-7.295132637023926,0.5746083855628967,10.406494140625,2.5177001953125,1.4495849609375
16.589999900000002,6.313509941101074,-7.436390399932861,0.7110779285430908,4.6539306640625,4.5013427734375,2.6092529296875
16.609999900000002,6.315904140472412,-7.3885064125061035,0.8523358106613159,-0.3814697265625,8.6517333984375,3.23486328125
16.6299999,6.323086738586426,-7.501033782958984,0.9002198576927185,-4.2266845703125,12.2528076171875,2.6702880859375
16.6499999,6.289567947387695,-7.534552574157715,0.9217676520347595,-7.3394775390625,10.1165771484375,2.5482177734375
16.6699999,6.234501361846924,-7.603984832763672,0.8643068075180054,-9.58251953125,6.134033203125,3.3721923828125
16.6899999,6.179434776306152,-7.675810813903809,0.8068459630012512,-9.857177734375,5.767822265625,3.326416015625
16.7099999,6.121973514556885,-7.682993412017822,0.7326257228851318,-9.1400146484375,6.317138671875,1.251220703125
16.7299999,6.052541732788086,-7.666234016418457,0.6655880808830261,-7.7056884765625,6.103515625,-0.885009765625
16.749999900000002,6.016628742218018,-7.682993412017822,0.6033388376235962,-5.0811767578125,6.1798095703125,-0.9002685546875
16.769999900000002,6.004657745361328,-7.69735860824585,0.5386953949928284,-2.2125244140625,5.5694580078125,0.4119873046875
16.7899999,5.9735331535339355,-7.723694801330566,0.4812345504760742,0.5340576171875,2.9296875,1.1138916015625
16.8099999,6.016628742218018,-7.769184589385986,0.4596867263317108,2.6397705078125,1.2969970703125,0.67138671875
16.8299999,5.9974751472473145,-7.783549785614014,0.4620809257030487,3.753662109375,1.2969970703125,0.0152587890625
16.8499999,6.011840343475342,-7.73087739944458,0.4812345504760742,4.7607421875,1.1444091796875,0.274658203125
16.8699999,6.011840343475342,-7.752425193786621,0.5219359993934631,5.4473876953125,-1.5106201171875,1.1138916015625
16.8899999,6.035782337188721,-7.690176010131836,0.5674257874488831,4.8828125,-2.2125244140625,1.495361328125
16.9099999,6.0621185302734375,-7.661445617675781,0.6105214357376099,3.1280517578125,1.129150390625,1.2664794921875
16.929999900000002,6.086060523986816,-7.6566572189331055,0.6440402865409851,1.3275146484375,3.7078857421875,0.8697509765625
16.9499999,6.081272125244141,-7.65186882019043,0.646434485912323,-0.5035400390625,1.373291015625,0.030517578125
16.9699999,6.0597243309021,-7.654263019561768,0.6440402865409851,-1.89208984375,-0.2593994140625,-0.4730224609375
16.9899999,6.045359134674072,-7.671022415161133,0.6105214357376099,-2.7008056640625,2.74658203125,-0.579833984375
17.0099999,6.057330131530762,-7.728483200073242,0.5770025849342346,-2.532958984375,7.965087890625,-0.152587890625
17.0299999,6.088454723358154,-7.716512203216553,0.5506663918495178,-2.0599365234375,7.476806640625,0.30517578125
17.0499999,6.09324312210083,-7.73087739944458,0.524330198764801,-1.0528564453125,4.39453125,0.030517578125
17.0699999,6.102819919586182,-7.7428483963012695,0.507570743560791,0.54931640625,4.4708251953125,-0.5950927734375
17.089999900000002,6.081272125244141,-7.690176010131836,0.524330198764801,1.6326904296875,4.94384765625,-1.15966796875
17.109999900000002,6.076483726501465,-7.738059997558594,0.5267243981361389,2.2735595703125,4.8065185546875,-1.15966796875
17.1299999,6.078877925872803,-7.682993412017822,0.5746083855628967,2.838134765625,4.69970703125,-0.6866455078125
17.1499999,6.088454723358154,-7.692570209503174,0.6129156351089478,3.3416748046875,5.8135986328125,0
17.1699999,6.071695327758789,-7.65186882019043,0.6703764796257019,3.4332275390625,5.79833984375,0.518798828125
17.1899999,6.057330131530762,-7.637503623962402,0.7158663272857666,3.021240234375,4.180908203125,0.640869140625
17.2099999,6.023811340332031,-7.623138427734375,0.7613561153411865,2.471923828125,3.173828125,0.67138671875
17.2299999,5.985504150390625,-7.632715225219727,0.8044517636299133,1.4801025390625,2.197265625,-0.1220703125
17.249999900000002,5.987898349761963,-7.618350028991699,0.8523358106613159,0.2288818359375,3.7841796875,-1.2054443359375
17.269999900000002,5.983109951019287,-7.637503623962402,0.8786720037460327,-0.4119873046875,7.232666015625,-1.1138916015625
17.2899999,5.992686748504639,-7.659051418304443,0.8810662031173706,-0.2593994140625,8.11767578125,0.30517578125
17.3099999,5.9974751472473145,-7.659051418304443,0.8690952062606812,0.152587890625,3.570556640625,1.7547607421875
17.3299999,6.011840343475342,-7.680599212646484,0.8403648138046265,0.1220703125,-0.1373291015625,1.739501953125
17.3499999,6.023811340332031,-7.690176010131836,0.8236053586006165,0.3662109375,4.150390625,0.79345703125
17.3699999,6.00226354598999,-7.69735860824585,0.8068459630012512,1.28173828125,7.354736328125,-0.42724609375
17.3899999,5.985504150390625,-7.702147006988525,0.7972691655158997,2.3345947265625,3.4027099609375,-1.1444091796875
17.409999900000003,5.963956356048584,-7.714118003845215,0.7852981686592102,2.960205078125,-0.823974609375,-1.007080078125
17.429999900000002,5.947196960449219,-7.714118003845215,0.7948749661445618,3.448486328125,1.220703125,-1.1749267578125
17.4499999,5.963956356048584,-7.723694801330566,0.8068459630012512,4.364013671875,6.1492919921875,-1.739501953125
17.4699999,5.983109951019287,-7.68538761138916,0.9145850539207458,3.60107421875,7.1563720703125,-2.25830078125
17.4899999,5.990292549133301,-7.587224960327148,0.9792284965515137,-4.241943359375,5.523681640625,-2.960205078125
17.5099999,6.054935932159424,-7.572859764099121,1.0558429956436157,-12.2222900390625,5.767822265625,-3.2196044921875
17.5299999,6.110002517700195,-7.5201873779296875,1.1061211824417114,-12.939453125,8.4381103515625,-0.9765625
17.5499999,6.203376770019531,-7.690176010131836,1.036689281463623,-11.0321044921875,7.32421875,3.7078857421875
17.5699999,6.184223175048828,-7.706935405731201,0.9840168952941895,-9.0179443359375,5.92041015625,5.2337646484375
17.589999900000002,6.133944988250732,-7.8745293617248535,0.8690952062606812,-5.0811767578125,8.056640625,1.2359619140625
17.609999900000002,5.963956356048584,-7.7763671875,0.8140285611152649,-1.434326171875,6.9732666015625,-4.45556640625
17.6299999,5.8203043937683105,-7.745242595672607,0.7613561153411865,1.7242431640625,5.31005859375,-8.4381103515625
17.6499999,5.770026206970215,-7.668628215789795,0.7493851184844971,4.730224609375,1.7242431640625,-9.6282958984375
17.6699999,5.762843608856201,-7.644686222076416,0.7398083209991455,7.568359375,1.434326171875,-6.8359375
17.6899999,5.851428985595703,-7.618350028991699,0.7469909191131592,10.589599609375,1.3580322265625,-1.46484375
17.7099999,5.9088897705078125,-7.630321025848389,0.7924807667732239,11.566162109375,-3.3111572265625,1.40380859375
17.7299999,5.971138954162598,-7.65186882019043,0.8738836050033569,8.1634521484375,-8.6517333984375,1.220703125
17.749999900000002,6.007051944732666,-7.565677165985107,1.036689281463623,4.7760009765625,-6.1798095703125,0.4425048828125
17.769999900000002,6.069301128387451,-7.661445617675781,1.1492167711257935,2.6397705078125,-0.3662109375,1.434326171875
17.7899999,6.110002517700195,-7.644686222076416,1.2114660739898682,1.129150390625,0.640869140625,3.387451171875
17.8099999,6.121973514556885,-7.668628215789795,1.2425906658172607,-0.48828125,-1.28173828125,3.4027099609375
17.8299999,6.129156112670898,-7.642292022705078,1.2186486721038818,-2.74658203125,-3.8604736328125,2.7008056640625
17.8499999,6.1267619132995605,-7.572859764099121,1.2210428714752197,-4.3182373046875,-0.67138671875,2.471923828125
17.8699999,6.133944988250732,-7.539340972900391,1.170764684677124,-4.7760009765625,3.0364990234375,3.41796875
17.8899999,6.162675380706787,-7.5632829666137695,1.1300631761550903,-4.33349609375,3.0975341796875,3.7078857421875
17.909999900000003,6.14831018447876,-7.671022415161133,0.993593692779541,-2.74658203125,3.8604736328125,3.2958984375
17.929999900000002,6.112396717071533,-7.754819393157959,0.8643068075180054,-0.3662109375,4.3792724609375,3.2501220703125
17.9499999,6.038176536560059,-7.800309181213379,0.7781155705451965,2.1209716796875,0.9307861328125,3.2958984375
17.9699999,5.983109951019287,-7.7763671875,0.7182605266571045,4.2877197265625,-2.50244140625,2.7008056640625
17.9899999,5.942408561706543,-7.7213006019592285,0.7254431247711182,5.889892578125,0.7171630859375,1.6326904296875
18.0099999,5.937620162963867,-7.668628215789795,0.7589619159698486,7.2784423828125,4.2724609375,1.6326904296875
18.0299999,5.937620162963867,-7.663839817047119,0.7948749661445618,7.7667236328125,1.7852783203125,2.9296875
18.0499999,5.949591159820557,-7.709329605102539,0.8571242094039917,6.8359375,-1.5869140625,3.2196044921875
18.0699999,5.9304375648498535,-7.800309181213379,0.9097966551780701,5.31005859375,1.1138916015625,1.8157958984375
18.089999900000002,5.92325496673584,-7.857769966125488,0.9648633003234863,4.33349609375,4.57763671875,0.3204345703125
18.109999900000002,5.872976779937744,-7.8745293617248535,1.0223240852355957,3.8604736328125,4.94384765625,-1.2664794921875
18.1299999,5.858611583709717,-7.805097579956055,1.0654197931289673,2.960205078125,-0.7781982421875,-1.739501953125
18.1499999,5.829881191253662,-7.702147006988525,1.1276689767837524,1.1138916015625,-2.777099609375,-2.01416015625
18.1699999,5.868188381195068,-7.603984832763672,1.2042834758758545,0.030517578125,1.8310546875,-2.1514892578125
18.1899999,5.916072368621826,-7.580042362213135,1.2258312702178955,-0.06103515625,5.8746337890625,-2.3193359375
18.2099999,5.987898349761963,-7.6111674308776855,1.2330138683319092,0.762939453125,3.8604736328125,-1.3275146484375
18.2299999,6.0597243309021,-7.69735860824585,1.2090718746185303,0.7781982421875,-3.082275390625,0.6103515625
18.249999900000002,6.086060523986816,-7.785943984985352,1.1683704853057861,0.3814697265625,-0.7476806640625,2.0294189453125
18.269999900000002,6.054935932159424,-7.817068576812744,1.161187767982483,1.068115234375,5.4779052734375,0.8544921875
18.2899999,6.0190229415893555,-7.790732383728027,1.1348515748977661,2.25830078125,0.91552734375,-0.9613037109375
18.3099999,5.961562156677246,-7.726089000701904,1.1468225717544556,3.0059814453125,-1.0986328125,-1.0528564453125
18.3299999,5.918466567993164,-7.625532627105713,1.139639973640442,3.2958984375,3.570556640625,0.9765625
18.3499999,5.904101371765137,-7.582436561584473,1.1468225717544556,3.11279296875,1.953125,1.7547607421875
18.3699999,5.899312973022461,-7.5848307609558105,1.1635819673538208,2.471923828125,-0.0762939453125,-0.640869140625
18.3899999,5.918466567993164,-7.666234016418457,1.1516109704971313,1.708984375,1.7547607421875,-2.960205078125
18.409999900000003,5.940014362335205,-7.7763671875,1.1109095811843872,1.4495849609375,1.64794921875,-1.6021728515625
18.429999900000002,5.978321552276611,-7.833827972412109,1.1276689767837524,0.9002685546875,-0.30517578125,1.1138916015625
18.4499999,5.987898349761963,-7.8314337730407715,1.1324573755264282,-0.457763671875,0.518798828125,1.129150390625
18.4699999,5.9735331535339355,-7.733271598815918,1.1803414821624756,-1.3885498046875,4.638671875,-0.8087158203125
18.4899999,5.961562156677246,-7.627926826477051,1.235408067703247,-1.739501953125,4.6234130859375,-2.0599365234375
18.5099999,5.971138954162598,-7.556100368499756,1.2473790645599365,-1.52587890625,3.1280517578125,-1.5869140625
18.5299999,5.985504150390625,-7.572859764099121,1.2258312702178955,-1.007080078125,2.3193359375,0.06103515625
18.5499999,6.004657745361328,-7.647080421447754,1.2042834758758545,-0.4730224609375,0.8087158203125,1.2359619140625
18.5699999,6.00226354598999,-7.757213592529297,1.1683704853057861,0.0457763671875,0.518798828125,1.2664794921875
18.589999900000002,5.96874475479126,-7.824251174926758,1.1683704853057861,0.42724609375,1.861572265625,0.457763671875
18.609999900000002,5.904101371765137,-7.833827972412109,1.170764684677124,1.0986328125,3.875732421875,-0.335693359375
18.6299999,5.853823184967041,-7.781155586242676,1.1994950771331787,1.983642578125,2.3193359375,-0.3509521484375
18.6499999,5.803544998168945,-7.690176010131836,1.2425906658172607,1.7852783203125,-1.2359619140625,0.0152587890625
18.6699999,5.808333396911621,-7.637503623962402,1.2856862545013428,1.556396484375,0.244140625,-0.0152587890625
18.6899999,5.813121795654297,-7.65186882019043,1.3072341680526733,1.2969970703125,-0.457763671875,-0.396728515625
18.7099999,5.884947776794434,-7.714118003845215,1.316810965538025,0.7476806640625,-2.349853515625,-1.0223388671875
18.7299999,5.904101371765137,-7.824251174926758,1.3024457693099976,-0.091552734375,0.30517578125,-1.28173828125
18.749999900000002,5.920860767364502,-7.884106159210205,1.2641384601593018,-1.2054443359375,2.593994140625,-1.6937255859375
18.769999900000002,5.901707172393799,-7.881711959838867,1.2425906658172607,-1.373291015625,0.8392333984375,-3.326416015625
18.7899999,5.882553577423096,-7.805097579956055,1.216254472732544,-1.190185546875,-1.8157958984375,-4.638671875
18.8099999,5.896918773651123,-7.709329605102539,1.192312479019165,-0.9002685546875,1.03759765625,-4.8980712890625
18.8299999,5.942408561706543,-7.620744228363037,1.192312479019165,-0.335693359375,4.69970703125,-3.0059814453125
18.8499999,5.9974751472473145,-7.599195957183838,1.170764684677124,0.5645751953125,3.021240234375,-0.8697509765625
18.8699999,6.023811340332031,-7.615955829620361,1.1659762859344482,1.5106201171875,-1.0528564453125,-1.373291015625
18.8899999,6.016628742218018,-7.675810813903809,1.1563993692398071,1.983642578125,-4.3182373046875,-3.7994384765625
18.909999900000003,6.028599739074707,-7.6782050132751465,1.158793568611145,2.01416015625,-1.3427734375,-5.6915283203125
18.929999900000002,6.042964935302734,-7.666234016418457,1.2018892765045166,1.708984375,5.0506591796875,-4.852294921875
18.9499999,6.078877925872803,-7.582436561584473,1.2114660739898682,1.1749267578125,4.4708251953125,-1.9683837890625
18.9699999,6.095637321472168,-7.4986395835876465,1.2689268589019775,0.3509521484375,-0.3204345703125,0.579833984375
18.9899999,6.098031520843506,-7.424419403076172,1.3024457693099976,-0.6561279296875,-1.739501953125,2.0751953125
19.0099999,6.078877925872803,-7.42681360244751,1.314416766166687,-1.068115234375,4.1656494140625,1.708984375
19.0299999,6.033388137817383,-7.481880187988281,1.3000515699386597,-0.091552734375,8.23974609375,-0.152587890625
19.0499999,5.985504150390625,-7.601590633392334,1.2689268589019775,1.007080078125,1.8157958984375,-1.1749267578125
19.0699999,5.949591159820557,-7.73087739944458,1.2258312702178955,1.312255859375,-5.4168701171875,-0.762939453125
19.089999900000002,5.947196960449219,-7.800309181213379,1.2401964664459229,1.15966796875,-0.8544921875,0.152587890625
19.109999900000002,5.9519853591918945,-7.802703380584717,1.2306196689605713,1.5869140625,6.7596435546875,0.67138671875
19.1299999,5.96874475479126,-7.728483200073242,1.2641384601593018,2.7618408203125,4.7760009765625,0.3509521484375
19.1499999,5.961562156677246,-7.627926826477051,1.292868971824646,2.8533935546875,-5.035400390625,-0.5645751953125
19.1699999,5.971138954162598,-7.5848307609558105,1.3479355573654175,1.1749267578125,-7.38525390625,-1.0528564453125
19.1899999,6.011840343475342,-7.601590633392334,1.403002142906189,-0.3662109375,2.25830078125,-0.7476806640625
19.2099999,6.076483726501465,-7.69735860824585,1.4484920501708984,-1.190185546875,8.8958740234375,0.213623046875
19.2299999,6.110002517700195,-7.790732383728027,1.3982137441635132,-1.220703125,7.0953369140625,1.922607421875
19.249999900000002,6.1052141189575195,-7.807491779327393,1.3718775510787964,-2.044677734375,1.4190673828125,2.7008056640625
19.269999900000002,6.076483726501465,-7.7428483963012695,1.335964560508728,-3.448486328125,1.3427734375,0.457763671875
19.2899999,6.057330131530762,-7.620744228363037,1.3646949529647827,-3.814697265625,8.6822509765625,-1.922607421875
19.3099999,6.045359134674072,-7.65186882019043,1.2737152576446533,-4.119873046875,12.451171875,0.48828125
19.3299999,5.9974751472473145,-7.778761386871338,0.7613561153411865,8.056640625,4.1656494140625,6.072998046875
19.3499999,5.932831764221191,-7.9415669441223145,0.3471592366695404,37.0941162109375,-17.547607421875,9.002685546875
19.3699999,5.889736175537109,-8.032546997070312,-0.07661445438861847,50.84228515625,-29.327392578125,10.8489990234375
19.3899999,5.8873419761657715,-7.881711959838867,0.0454898327589035,43.15185546875,-27.435302734375,13.6871337890625
19.409999900000003,5.971138954162598,-7.568071365356445,0.6799532771110535,26.2451171875,-16.2200927734375,11.7950439453125
19.429999900000002,6.050147533416748,-7.218518257141113,1.5155296325683594,5.5999755859375,-0.6866455078125,6.9580078125
19.4499999,6.095637321472168,-6.952761650085449,2.2577321529388428,-15.7318115234375,12.2833251953125,3.631591796875
19.4699999,6.0836663246154785,-6.84981107711792,2.7102363109588623,-33.1878662109375,19.3939208984375,3.11279296875
19.4899999,6.030993938446045,-6.914454460144043,2.8371291160583496,-44.9981689453125,21.78955078125,4.486083984375
19.5099999,5.942408561706543,-7.110779285430908,2.6671407222747803,-52.6123046875,23.0255126953125,5.1727294921875
19.5299999,5.841852188110352,-7.3669586181640625,2.3295583724975586,-56.427001953125,21.0113525390625,5.0811767578125
19.5499999,5.736507415771484,-7.632715225219727,1.9057846069335938,-56.70166015625,16.571044921875,4.45556640625
19.5699999,5.628767967224121,-7.864952564239502,1.4772224426269531,-53.4820556640625,12.3138427734375,3.11279296875
19.589999900000002,5.540182590484619,-8.044517517089844,1.0821791887283325,-46.875,7.720947265625,0.579833984375
19.609999900000002,5.473145008087158,-8.180987358093262,0.7374141216278076,-37.90283203125,2.0294189453125,-2.349853515625
19.6299999,5.47075080871582,-8.327033042907715,0.24181437492370605,-17.63916015625,-5.3863525390625,-5.5999755859375
19.6499999,5.521028995513916,-8.341399192810059,0.08858546614646912,-7.8125,-6.40869140625,-6.2103271484375
19.6699999,5.590460777282715,-8.31985092163086,-0.0071826050989329815,0.6103515625,-8.9569091796875,-6.1798095703125
19.6899999,5.664681434631348,-8.245630264282227,-0.038307227194309235,6.65283203125,-10.5133056640625,-5.615234375
19.7099999,5.748478412628174,-8.133103370666504,-0.009576806798577309,11.016845703125,-6.591796875,-5.3863525390625
19.7299999,5.837063789367676,-7.987056732177734,0.07422025501728058,14.5416259765625,0.9307861328125,-5.6915283203125
19.749999900000002,5.928043365478516,-7.824251174926758,0.18914192914962769,16.5863037109375,4.5318603515625,-5.859375
19.769999900000002,6.023811340332031,-7.6566572189331055,0.33997663855552673,17.15087890625,2.227783203125,-4.1656494140625
19.7899999,6.124367713928223,-7.501033782958984,0.524330198764801,16.5252685546875,0.18310546875,-0.42724609375
19.8099999,6.217741966247559,-7.390900611877441,0.7254431247711182,15.1824951171875,1.46484375,3.6163330078125
19.8299999,6.279991149902344,-7.3454108238220215,0.9193734526634216,13.48876953125,2.5177001953125,7.965087890625
19.8499999,6.2847795486450195,-7.374141216278076,1.0773907899856567,12.0697021484375,0.213623046875,13.519287109375
19.8699999,6.208165168762207,-7.465120792388916,1.170764684677124,10.5438232421875,-3.1280517578125,18.61572265625
19.8899999,6.052541732788086,-7.594407558441162,1.2042834758758545,7.965087890625,-4.302978515625,21.1639404296875
19.909999900000003,5.837063789367676,-7.735665798187256,1.1875240802764893,4.9591064453125,-3.7994384765625,20.1873779296875
19.929999900000002,5.5976433753967285,-7.876923561096191,1.139639973640442,2.25830078125,-4.119873046875,16.9677734375
19.9499999,5.377377033233643,-8.018181800842285,1.070208191871643,-0.274658203125,-4.45556640625,12.725830078125
19.9699999,5.207388877868652,-8.145073890686035,0.9983820915222168,-2.6702880859375,-2.4566650390625,7.75146484375
19.9899999,5.1116204261779785,-8.26478385925293,0.933738648891449,-4.669189453125,0.457763671875,2.44140625
20.0099999,5.0900726318359375,-8.367734909057617,0.8690952062606812,-5.950927734375,2.2735595703125,-1.7547607421875
20.0299999,5.130774021148682,-8.446743965148926,0.8020575642585754,-6.317138671875,2.7008056640625,-3.9520263671875
20.0499999,5.20978307723999,-8.497021675109863,0.7398083209991455,-5.767822265625,2.44140625,-4.791259765625
20.0699999,5.305551052093506,-8.504204750061035,0.6919242739677429,-4.7760009765625,3.0517578125,-5.79833984375
20.089999900000002,5.394136428833008,-8.458714485168457,0.667982280254364,-3.7078857421875,3.5858154296875,-7.1868896484375
20.109999900000002,5.480327606201172,-8.374917984008789,0.6751648783683777,-2.74658203125,3.7078857421875,-8.2244873046875
20.1299999,5.547365188598633,-8.269572257995605,0.6919242739677429,-1.5716552734375,4.69970703125,-8.60595703125
20.1499999,5.604825973510742,-8.157045364379883,0.7206547260284424,-0.4119873046875,5.67626953125,-8.2855224609375
20.1699999,5.647922039031982,-8.054094314575195,0.751779317855835,0.518798828125,5.859375,-7.7667236328125
20.1899999,5.674258232116699,-7.95832633972168,0.7876923680305481,1.068115234375,5.1727294921875,-6.9427490234375
20.2099999,5.686229228973389,-7.881711959838867,0.8259995579719543,1.1138916015625,3.7994384765625,-6.195068359375
20.2299999,5.693411827087402,-7.814674377441406,0.8667010068893433,0.9918212890625,2.716064453125,-5.7830810546875
20.249999900000002,5.705382823944092,-7.7643961906433105,0.9097966551780701,0.8697509765625,2.5177001953125,-5.7525634765625
20.269999900000002,5.719748020172119,-7.726089000701904,0.950498104095459,0.640869140625,3.265380859375,-5.645751953125
20.2899999,5.743690013885498,-7.702147006988525,0.9864110946655273,0.42724609375,3.3111572265625,-4.9591064453125
20.3099999,5.772420406341553,-7.694964408874512,1.0103530883789062,-0.152587890625,2.3345947265625,-4.0283203125
20.3299999,5.810727596282959,-7.6997528076171875,1.01753568649292,-0.9918212890625,1.5411376953125,-2.5634765625
20.3499999,5.849034786224365,-7.714118003845215,1.0199298858642578,-1.6021728515625,1.9683837890625,-0.48828125
20.3699999,5.875370979309082,-7.735665798187256,1.0079588890075684,-1.922607421875,3.3721923828125,1.6937255859375
