# Time (seconds),Accel_X,Accel_Y,Accel_Z,Gyro_X,Gyro_Y,Gyro_Z
0.0099999,-8.710105895996094,-2.296039342880249,1.1204863786697388,-27.3590087890625,18.1121826171875,39.1693115234375
0.029999900000000003,-8.892065048217773,-2.1116859912872314,1.015141487121582,-24.688720703125,26.9927978515625,35.46142578125
0.0499999,-9.222464561462402,-1.9704279899597168,0.8906430602073669,-19.775390625,24.5819091796875,32.9437255859375
0.0699999,-9.653421401977539,-1.867477297782898,0.7469909191131592,-15.869140625,18.035888671875,32.6385498046875
0.08999990000000001,-10.216058731079102,-1.8171991109848022,0.6320692300796509,-11.444091796875,7.8277587890625,30.3955078125
0.10999990000000001,-10.972626686096191,-1.8794482946395874,0.5913678407669067,-5.0048828125,-8.3465576171875,20.01953125
0.1299999,-11.446678161621094,-1.9369091987609863,0.5410895943641663,-0.579833984375,-18.463134765625,8.6212158203125
0.14999990000000002,-11.736376762390137,-1.968033790588379,0.569819986820221,3.2806396484375,-15.8538818359375,20.1873779296875
0.1699999,-11.434707641601562,-1.9081788063049316,0.6057330369949341,4.730224609375,-18.524169921875,19.683837890625
0.1899999,-10.78587818145752,-1.7741034030914307,0.7015010714530945,3.265380859375,-19.4854736328125,17.3797607421875
0.20999990000000002,-10.18493366241455,-1.659181833267212,0.8547300100326538,-0.3509521484375,-17.3187255859375,19.378662109375
0.2299999,-9.696516990661621,-1.599326729774475,1.0630255937576294,-5.767822265625,-17.608642578125,15.777587890625
0.2499999,-9.493009567260742,-1.5945383310317993,1.2832920551300049,-11.383056640625,-15.93017578125,17.5323486328125
0.2699999,-9.423578262329102,-1.556231141090393,1.482010841369629,-15.716552734375,-12.298583984375,19.6075439453125
0.28999990000000003,-9.402029991149902,-1.4915876388549805,1.6352397203445435,-18.524169921875,-10.3759765625,18.310546875
0.3099999,-9.437943458557129,-1.3862427473068237,1.702277421951294,-19.378662109375,-9.307861328125,16.5557861328125
0.3299999,-9.5408935546875,-1.2880805730819702,1.6735470294952393,-18.707275390625,-8.6669921875,17.059326171875
0.34999990000000003,-9.66539192199707,-1.1851298809051514,1.5610195398330688,-16.17431640625,-9.368896484375,16.4794921875
0.3699999,-9.816226959228516,-1.070208191871643,1.4700398445129395,-12.20703125,-11.0015869140625,14.0838623046875
0.3899999,-9.892841339111328,-0.9576807022094727,1.41257905960083,-11.71875,-10.80322265625,12.0391845703125
0.40999990000000003,-9.909601211547852,-0.8355764150619507,1.4197616577148438,-13.9617919921875,-8.1634521484375,10.101318359375
0.4299999,-9.883264541625977,-0.7445967197418213,1.50355863571167,-12.20703125,-7.415771484375,7.1258544921875
0.4499999,-9.825803756713867,-0.6655880808830261,1.6711528301239014,-9.9639892578125,-6.9580078125,3.90625
0.4699999,-9.768342971801758,-0.646434485912323,1.845929503440857,-13.092041015625,-2.74658203125,2.3040771484375
0.4899999,-9.727641105651855,-0.6871358752250671,2.006340980529785,-16.66259765625,2.1820068359375,1.6937255859375
0.5099999,-9.710882186889648,-0.8068459630012512,2.1140801906585693,-16.4337158203125,3.814697265625,1.3275146484375
0.5299999,-9.715670585632324,-0.9720458984375,2.1380221843719482,-16.387939453125,4.9896240234375,2.44140625
0.5499999,-9.730035781860352,-1.161187767982483,2.0446481704711914,-19.1650390625,8.0718994140625,4.913330078125
0.5699999,-9.75397777557373,-1.357512354850769,1.8507179021835327,-18.37158203125,9.246826171875,6.7596435546875
0.5899998999999999,-9.775525093078613,-1.558625340461731,1.5658079385757446,-11.7645263671875,6.16455078125,8.1939697265625
0.6099998999999999,-9.80904483795166,-1.6711528301239014,1.2066776752471924,-4.669189453125,2.166748046875,10.8642578125
0.6299999,-9.876082420349121,-1.6879122257232666,0.8451532125473022,1.495361328125,-1.64794921875,12.3443603515625
0.6499999,-9.952696800231934,-1.5753847360610962,0.5985504388809204,8.97216796875,-6.7291259765625,11.5966796875
0.6699999,-10.000580787658691,-1.2976573705673218,0.5219359993934631,12.3748779296875,-11.23046875,10.406494140625
0.6899999,-10.002974510192871,-0.9409212470054626,0.6057330369949341,7.7056884765625,-12.8021240234375,8.7432861328125
0.7099999,-9.974244117736816,-0.6009446382522583,0.8188169598579407,-0.579833984375,-12.908935546875,6.2408447265625
0.7299998999999999,-9.921571731567383,-0.33039984107017517,1.0606313943862915,-6.6680908203125,-13.7176513671875,3.9520263671875
0.7499998999999999,-9.873687744140625,-0.18914192914962769,1.2880805730819702,-9.5672607421875,-15.6402587890625,1.922607421875
0.7699999,-9.86650562286377,-0.23942017555236816,1.434126853942871,-10.040283203125,-16.54052734375,0.396728515625
0.7899999,-9.876082420349121,-0.4429273009300232,1.4460978507995605,-4.39453125,-17.4407958984375,0.1220703125
0.8099999,-9.871294021606445,-0.7134721279144287,1.5059528350830078,8.6822509765625,-21.2554931640625,0.5950927734375
0.8299999,-9.813833236694336,-0.8667010068893433,1.766920804977417,11.993408203125,-21.8048095703125,1.3580322265625
0.8499998999999999,-9.66299819946289,-0.9241618514060974,2.207453966140747,-5.9051513671875,-11.688232421875,0.8697509765625
0.8699998999999999,-9.557653427124023,-0.8858546018600464,2.7748796939849854,-23.4375,-0.79345703125,0.2288818359375
0.8899999,-9.385271072387695,-0.8451532125473022,3.265691041946411,-28.01513671875,4.852294921875,1.5411376953125
0.9099999,-9.428366661071777,-0.9528923034667969,3.509899616241455,-29.47998046875,12.664794921875,4.8828125
0.9299999,-9.399636268615723,-0.8906430602073669,3.4380736351013184,-33.5235595703125,21.453857421875,8.6517333984375
0.9499999,-9.545681953430176,-0.8164227604866028,2.9496564865112305,-29.9072265625,22.857666015625,6.5765380859375
0.9699998999999999,-9.806650161743164,-0.6943184733390808,2.2002713680267334,-12.4359130859375,16.5557861328125,3.814697265625
0.9899998999999999,-10.041281700134277,-0.6105214357376099,1.2737152576446533,5.2337646484375,-1.495361328125,1.8310546875
1.0099999,-10.213664054870605,-0.6512228846549988,0.45250412821769714,14.5721435546875,-11.65771484375,-4.3182373046875
1.0299999,-10.283096313476562,-0.7948749661445618,0.07900865375995636,21.270751953125,-14.9688720703125,-6.28662109375
1.0499999,-10.055646896362305,-0.9600749015808105,0.24181437492370605,20.904541015625,-16.143798828125,-9.765625
1.0699999,-9.861717224121094,-1.1013327836990356,0.7829039692878723,9.09423828125,-7.4005126953125,-1.861572265625
1.0899999,-9.622296333312988,-1.1300631761550903,1.4460978507995605,-2.0599365234375,-3.1890869140625,5.3863525390625
1.1099999,-9.622296333312988,-1.170764684677124,2.0254945755004883,0.6561279296875,-2.99072265625,9.7198486328125
1.1299999,-9.581595420837402,-0.9648633003234863,2.3750481605529785,6.77490234375,-11.1083984375,4.180908203125
1.1499999,-9.677363395690918,-0.7158663272857666,2.4396915435791016,5.06591796875,-7.3089599609375,-1.9378662109375
1.1699998999999999,-9.68694019317627,-0.5506663918495178,2.4133553504943848,3.814697265625,-5.5999755859375,-5.9356689453125
1.1899998999999999,-9.713275909423828,-0.40222588181495667,2.346317768096924,2.86865234375,0.3204345703125,-10.772705078125
1.2099999,-9.660603523254395,-0.3064578175544739,2.3032219409942627,-2.685546875,4.7760009765625,-4.2572021484375
1.2299999,-9.765948295593262,-0.4141969084739685,2.1523873805999756,-8.60595703125,5.5389404296875,-1.739501953125
1.2499999,-9.806650161743164,-0.5506663918495178,1.9608511924743652,-2.3193359375,-5.645751953125,-2.1514892578125
1.2699999,-9.876082420349121,-0.7948749661445618,1.8052281141281128,10.1470947265625,-11.7645263671875,-10.101318359375
1.2899999,-9.86889934539795,-1.036689281463623,1.6903064250946045,18.49365234375,-8.3160400390625,-7.843017578125
1.3099999,-9.775525093078613,-1.1875240802764893,1.7334020137786865,19.195556640625,-4.913330078125,-11.8255615234375
1.3299999,-9.718064308166504,-1.1875240802764893,1.9177556037902832,18.524169921875,-0.1983642578125,-5.9661865234375
1.3499999,-9.667786598205566,-0.9911994934082031,2.0901381969451904,10.8184814453125,0.7476806640625,-2.7618408203125
1.3699999,-9.737217903137207,-0.7876923680305481,2.3319525718688965,-1.251220703125,-2.9754638671875,-0.030517578125
1.3899999,-9.653421401977539,-0.5626373887062073,2.4827871322631836,-12.603759765625,-5.9967041015625,-10.31494140625
1.4099999,-9.718064308166504,-0.5793967843055725,2.5953147411346436,-13.1072998046875,1.922607421875,-10.1318359375
1.4299998999999999,-9.5408935546875,-0.7541735172271729,2.473210334777832,-7.904052734375,2.7313232421875,-13.641357421875
1.4499999,-9.615114212036133,-1.1109095811843872,2.2242133617401123,-0.9307861328125,5.340576171875,-5.67626953125
1.4699999,-9.6989107131958,-1.4389152526855469,1.8291701078414917,7.659912109375,1.1444091796875,0.3662109375
1.4899999,-9.911994934082031,-1.7142484188079834,1.4844050407409668,19.2108154296875,-8.3160400390625,6.805419921875
1.5099999,-9.897629737854004,-1.7693150043487549,1.3048399686813354,23.3001708984375,-21.42333984375,0.2593994140625
1.5299999,-9.672574996948242,-1.482010841369629,1.6424223184585571,16.1285400390625,-14.5416259765625,-2.777099609375
1.5499999,-9.62947940826416,-1.0869675874710083,2.1763293743133545,3.387451171875,-4.486083984375,1.251220703125
1.5699999,-9.394847869873047,-0.7445967197418213,2.7054479122161865,-19.073486328125,0.2593994140625,5.5694580078125
1.5899999,-9.555258750915527,-0.5003881454467773,3.069366693496704,-33.355712890625,4.9285888671875,9.4451904296875
1.6099999,-9.469067573547363,-0.4884171485900879,3.141192674636841,-29.5257568359375,-4.8370361328125,3.0975341796875
1.6299999,-9.653421401977539,-0.7948749661445618,2.8802247047424316,-13.519287109375,-2.7618408203125,1.2664794921875
1.6499999,-9.588777542114258,-1.115697979927063,2.434903144836426,3.90625,-4.8675537109375,1.617431640625
1.6699999,-9.684545516967773,-1.50355863571167,2.0853497982025146,14.6331787109375,-1.1138916015625,2.99072265625
1.6899998999999999,-9.62947940826416,-1.45806884765625,1.9321208000183105,15.9912109375,-4.4403076171875,9.0179443359375
1.7099999,-9.72285270690918,-1.2497732639312744,2.1092917919158936,4.5166015625,-1.46484375,12.542724609375
1.7299999,-9.653421401977539,-0.8307880163192749,2.434903144836426,-11.4593505859375,-5.92041015625,6.805419921875
1.7499999,-9.617507934570312,-0.4405331015586853,2.765302896499634,-21.942138671875,0.18310546875,-3.0059814453125
1.7699999,-9.545681953430176,-0.2825157940387726,3.023876667022705,-20.5841064453125,4.7607421875,-2.8839111328125
1.7899999,-9.545681953430176,-0.2801215946674347,2.9688100814819336,-18.4783935546875,10.223388671875,-6.28662109375
1.8099999,-9.550470352172852,-0.4405331015586853,2.734178304672241,-11.810302734375,11.53564453125,-1.9378662109375
1.8299999,-9.720458984375,-0.6823474764823914,2.3367409706115723,-0.4119873046875,7.32421875,-0.8087158203125
1.8499999,-9.792284965515137,-0.8212111592292786,1.98958158493042,10.6048583984375,-4.39453125,0.8544921875
1.8699999,-9.81143856048584,-1.0199298858642578,1.680729627609253,11.6729736328125,-12.1612548828125,-8.11767578125
1.8899999,-9.80904483795166,-1.213860273361206,1.647210717201233,16.0980224609375,-8.72802734375,-6.683349609375
1.9099999,-9.655815124511719,-1.3431471586227417,1.8148049116134644,20.5535888671875,-9.185791015625,-8.514404296875
1.9299998999999999,-9.555258750915527,-1.357512354850769,2.229001760482788,11.8255615234375,0.2288818359375,-1.1749267578125
1.9499999,-9.454702377319336,-1.194706678390503,2.6647465229034424,-8.544921875,5.767822265625,2.8076171875
1.9699999,-9.57441234588623,-1.0103530883789062,3.0334534645080566,-18.8751220703125,9.3841552734375,7.6904296875
1.9899999,-9.516951560974121,-0.790086567401886,3.1962592601776123,-18.5089111328125,0.06103515625,1.5411376953125
2.0099999,-9.651026725769043,-0.7541735172271729,3.0526070594787598,-17.3187255859375,6.4544677734375,-1.0528564453125
2.0299999,-9.5624418258667,-0.7996633648872375,2.806004285812378,-15.4876708984375,7.5225830078125,-3.1280517578125
2.0499999,-9.660603523254395,-0.9792284965515137,2.4444799423217773,-9.857177734375,12.481689453125,-4.058837890625
2.0699999,-9.581595420837402,-1.115697979927063,2.0805611610412598,-3.692626953125,7.38525390625,1.0223388671875
2.0899999,-9.797073364257812,-1.2449848651885986,1.7956513166427612,-0.701904296875,6.1492919921875,7.293701171875
2.1099999,-9.799467086791992,-1.3551181554794312,1.5705963373184204,5.3253173828125,-6.1798095703125,6.5155029296875
2.1299999,-9.823410034179688,-1.3527239561080933,1.4844050407409668,11.4593505859375,-9.6588134765625,-2.1820068359375
2.1499999,-9.768342971801758,-1.3096283674240112,1.5969325304031372,16.845703125,-8.72802734375,-0.9002685546875
2.1699999,-9.66299819946289,-1.1228805780410767,1.843535304069519,11.199951171875,-5.096435546875,-3.90625
2.1899999,-9.603142738342285,-0.8930372595787048,2.22660756111145,-1.9683837890625,1.6326904296875,0.3814697265625
2.2099999,-9.528923034667969,-0.6416460275650024,2.5785553455352783,-14.16015625,4.8675537109375,1.0986328125
2.2299999,-9.679757118225098,-0.5195417404174805,2.8562827110290527,-17.4560546875,3.84521484375,6.1492919921875
2.2499999,-9.600749015808105,-0.6320692300796509,2.827552318572998,-16.9525146484375,-4.5623779296875,-0.7171630859375
2.2699999,-9.770736694335938,-0.9528923034667969,2.557007312774658,-5.3863525390625,-1.2054443359375,-2.532958984375
2.2899999,-9.660603523254395,-1.1563993692398071,2.3056161403656006,11.4288330078125,-6.011962890625,-3.3416748046875
2.3099999,-9.734824180603027,-1.335964560508728,2.094926595687866,15.80810546875,-0.2899169921875,-0.2899169921875
2.3299999,-9.581595420837402,-1.2090718746185303,2.073378562927246,4.638671875,-0.5950927734375,2.74658203125
2.3499999,-9.701305389404297,-1.0654197931289673,2.207453966140747,-5.584716796875,2.9449462890625,6.16455078125
2.3699999,-9.639056205749512,-0.8355764150619507,2.406172752380371,-7.3699951171875,-6.5155029296875,4.9285888671875
2.3899999,-9.624691009521484,-0.7829039692878723,2.5474305152893066,-11.0931396484375,-5.6304931640625,-2.50244140625
2.4099999,-9.63187313079834,-0.7829039692878723,2.6839001178741455,-11.8408203125,1.708984375,-1.5869140625
2.4299999,-9.543288230895996,-0.8882488012313843,2.655169725418091,-5.828857421875,4.2266845703125,-4.7760009765625
2.4499999,-9.567230224609375,-0.9888052940368652,2.561795711517334,2.532958984375,5.096435546875,1.861572265625
2.4699999,-9.581595420837402,-1.0247182846069336,2.296039342880249,1.40380859375,1.89208984375,2.5787353515625
2.4899999,-9.806650161743164,-0.9768342971801758,2.10210919380188,0.7476806640625,-1.068115234375,6.1187744140625
2.5099999,-9.765948295593262,-0.9145850539207458,1.9728221893310547,2.74658203125,-12.7105712890625,-2.3345947265625
2.5299999,-9.832986831665039,-0.8858546018600464,2.008735179901123,7.0953369140625,-9.521484375,-6.439208984375
2.5499999,-9.677363395690918,-0.9576807022094727,2.2601263523101807,7.5836181640625,-6.927490234375,-5.92041015625
2.5699999,-9.567230224609375,-1.048660397529602,2.607285737991333,-1.7242431640625,5.4473876953125,-4.8828125
2.5899999,-9.41639518737793,-1.0845733880996704,2.920926094055176,-14.5416259765625,9.6282958984375,2.7618408203125
2.6099999,-9.502586364746094,-1.0534487962722778,3.0334534645080566,-19.7906494140625,12.603759765625,6.103515625
2.6299999,-9.581595420837402,-1.01753568649292,2.935291290283203,-13.00048828125,5.096435546875,8.1787109375
2.6499999,-9.59835433959961,-1.0055646896362305,2.5689783096313477,-5.31005859375,-3.173828125,-1.922607421875
2.6699999,-9.854534149169922,-1.0438719987869263,2.1547815799713135,7.4310302734375,-1.007080078125,-3.7689208984375
2.6899999,-9.672574996948242,-1.0654197931289673,1.9297266006469727,17.5933837890625,-6.7291259765625,-6.6070556640625
2.7099999,-9.804255485534668,-1.0247182846069336,1.941697597503662,10.0860595703125,1.373291015625,-2.5177001953125
2.7299999,-9.557653427124023,-0.9313444495201111,2.169146776199341,-9.429931640625,3.9520263671875,0.2288818359375
2.7499999,-9.619902610778809,-0.8547300100326538,2.449268341064453,-18.829345703125,10.040283203125,4.8065185546875
2.7699999,-9.543288230895996,-0.8595184087753296,2.612074136734009,-14.0838623046875,0.7171630859375,3.875732421875
2.7899999,-9.536105155944824,-0.950498104095459,2.513911724090576,-7.8277587890625,-3.204345703125,-3.692626953125
2.8099999,-9.655815124511719,-1.1061211824417114,2.3295583724975586,1.6937255859375,0.274658203125,-2.7618408203125
2.8299999,-9.607931137084961,-1.2282254695892334,2.1284453868865967,13.031005859375,-3.082275390625,-6.3934326171875
2.8499999,-9.672574996948242,-1.2306196689605713,2.164358377456665,13.0157470703125,1.617431640625,-0.244140625
2.8699999,-9.586383819580078,-1.115697979927063,2.2242133617401123,-5.0811767578125,3.326416015625,1.64794921875
2.8899999,-9.696516990661621,-0.9696516990661621,2.382230758666992,-17.669677734375,9.521484375,5.5999755859375
2.9099999,-9.684545516967773,-0.9193734526634216,2.449268341064453,-13.24462890625,-1.46484375,2.0751953125
2.9299999,-9.701305389404297,-0.8858546018600464,2.3965959548950195,-4.058837890625,-4.9591064453125,-5.43212890625
2.9499999,-9.761159896850586,-1.0319008827209473,2.2625205516815186,4.08935546875,-1.52587890625,-2.74658203125
2.9699999,-9.651026725769043,-1.137245774269104,2.0925323963165283,11.7950439453125,-3.5552978515625,-7.01904296875
2.9899999,-9.646238327026367,-1.192312479019165,2.1475989818573,15.472412109375,-0.48828125,-1.5106201171875
3.0099999,-9.5408935546875,-1.1659762859344482,2.2146365642547607,4.6844482421875,-0.762939453125,0.335693359375
3.0299999,-9.57441234588623,-1.036689281463623,2.4133553504943848,-7.6904296875,6.3323974609375,4.5013427734375
3.0499999,-9.593565940856934,-0.9552865028381348,2.647987127304077,-11.932373046875,0,2.7313232421875
3.0699999,-9.545681953430176,-0.8954314589500427,2.7054479122161865,-9.3994140625,-1.3427734375,-5.43212890625
3.0899999,-9.68694019317627,-0.9983820915222168,2.7557260990142822,-2.8533935546875,2.960205078125,-2.1209716796875
3.1099999,-9.560047149658203,-1.1803414821624756,2.631227731704712,-0.1373291015625,2.2735595703125,-4.3792724609375
3.1299999,-9.615114212036133,-1.3048399686813354,2.5785553455352783,-4.82177734375,8.60595703125,3.4332275390625
3.1499999,-9.519346237182617,-1.4413094520568848,2.3726539611816406,-12.51220703125,7.232666015625,6.5460205078125
3.1699999,-9.605537414550781,-1.4676456451416016,2.212242364883423,-12.8173828125,8.8653564453125,11.4288330078125
3.1899999,-9.6989107131958,-1.3838485479354858,2.008735179901123,-9.613037109375,-0.762939453125,12.9852294921875
3.2099999,-9.715670585632324,-1.2952631711959839,1.766920804977417,-5.2032470703125,-9.7198486328125,3.387451171875
3.2299999,-9.895236015319824,-1.072602391242981,1.7046716213226318,4.33349609375,-7.476806640625,1.2664794921875
3.2499999,-9.715670585632324,-0.9050082564353943,1.778891921043396,7.4005126953125,-9.7198486328125,-2.0904541015625
3.2699999,-9.75637149810791,-0.7254431247711182,2.0231003761291504,-0.5035400390625,-0.0152587890625,-0.946044921875
3.2899999,-9.57201862335205,-0.6536170840263367,2.4588451385498047,-9.4146728515625,0.91552734375,1.6326904296875
3.3099999,-9.581595420837402,-0.5937620401382446,2.8610711097717285,-16.143798828125,7.87353515625,4.82177734375
3.3299999000000002,-9.641449928283691,-0.6153098344802856,3.112462282180786,-23.101806640625,8.331298828125,8.697509765625
3.3499999,-9.567230224609375,-0.7661445140838623,3.023876667022705,-23.3306884765625,3.9825439453125,-0.8392333984375
3.3699999,-9.78989028930664,-0.9576807022094727,2.557007312774658,-3.2196044921875,4.1656494140625,-4.4403076171875
3.3899999,-9.677363395690918,-1.2641384601593018,1.9393033981323242,25.87890625,-7.049560546875,-5.3558349609375
3.4099999,-9.80904483795166,-1.3455413579940796,1.4101848602294922,38.4063720703125,-7.659912109375,-3.9520263671875
3.4299999,-9.725247383117676,-1.3479355573654175,1.1659762859344482,32.8216552734375,-11.1236572265625,-0.9307861328125
3.4499999,-9.801861763000488,-1.0295066833496094,1.4939818382263184,20.904541015625,-8.8348388671875,0.06103515625
3.4699999,-9.746794700622559,-0.7829039692878723,2.0901381969451904,2.960205078125,-7.8582763671875,3.5247802734375
3.4899999,-9.66299819946289,-0.507570743560791,2.7940332889556885,-18.7225341796875,-6.4697265625,-1.708984375
3.5099999,-9.545681953430176,-0.646434485912323,3.3016040325164795,-25.4974365234375,4.1961669921875,-3.4637451171875
3.5299999,-9.373299598693848,-0.8619126081466675,3.584120035171509,-15.3961181640625,6.89697265625,-0.7781982421875
3.5499999,-9.294290542602539,-1.1228805780410767,3.5218706130981445,-12.6800537109375,13.2904052734375,2.0751953125
3.5699999,-9.313444137573242,-1.403002142906189,3.205836057662964,-17.8070068359375,15.594482421875,8.30078125
3.5899999,-9.490615844726562,-1.381454348564148,2.698265314102173,-15.9149169921875,15.167236328125,8.1329345703125
3.6099999,-9.782708168029785,-1.2449848651885986,2.0614075660705566,0.274658203125,3.7078857421875,11.5509033203125
3.6299999,-9.864110946655273,-1.0797849893569946,1.359906554222107,14.0838623046875,-13.946533203125,0.823974609375
3.6499999,-10.070012092590332,-0.9265560507774353,0.8427590131759644,28.961181640625,-15.80810546875,-5.645751953125
3.6699999,-9.943120002746582,-0.7972691655158997,0.751779317855835,43.2891845703125,-23.13232421875,-8.60595703125
3.6899999,-9.765948295593262,-0.7733271718025208,1.1444283723831177,38.7420654296875,-17.7001953125,-9.918212890625
3.7099999,-9.59835433959961,-0.7326257228851318,1.9608511924743652,16.571044921875,-8.758544921875,-3.265380859375
3.7299999,-9.41639518737793,-0.5913678407669067,2.9496564865112305,-7.9193115234375,1.2359619140625,-1.03759765625
3.7499999,-9.402029991149902,-0.6871358752250671,3.7421371936798096,-19.95849609375,8.1024169921875,6.2255859375
3.7699999,-9.320627212524414,-0.6943184733390808,4.094084739685059,-24.90234375,4.0740966796875,4.4708251953125
3.7899999,-9.373299598693848,-0.9074024558067322,3.8522706031799316,-20.56884765625,8.5906982421875,0.823974609375
3.8099999,-9.406818389892578,-1.1516109704971313,3.380612850189209,-3.7078857421875,6.6070556640625,1.7242431640625
3.8299999000000002,-9.478644371032715,-1.1252747774124146,2.9257144927978516,0.8544921875,8.1939697265625,-0.3509521484375
3.8499999,-9.57201862335205,-1.113303780555725,2.494758129119873,-13.6566162109375,13.275146484375,5.43212890625
3.8699999,-9.701305389404297,-0.8906430602073669,2.164358377456665,-23.4375,13.9617919921875,3.5400390625
3.8899999,-9.909601211547852,-0.8475474119186401,1.802833914756775,-7.9803466796875,5.2642822265625,6.4239501953125
3.9099999,-9.909601211547852,-0.8212111592292786,1.4077905416488647,14.22119140625,-14.09912109375,0.9765625
3.9299999,-9.96945571899414,-0.9528923034667969,1.192312479019165,27.6947021484375,-15.167236328125,-4.2266845703125
3.9499999,-9.794678688049316,-1.0199298858642578,1.4197616577148438,30.9600830078125,-14.22119140625,-4.302978515625
3.9699999,-9.579200744628906,-0.9193734526634216,2.1068975925445557,16.4794921875,-4.486083984375,-6.04248046875
3.9899999,-9.437943458557129,-0.7733271718025208,2.9257144927978516,-13.031005859375,9.3841552734375,1.617431640625
4.0099999,-9.32541561126709,-0.6129156351089478,3.6176388263702393,-35.0494384765625,15.716552734375,3.1280517578125
4.029999900000001,-9.502586364746094,-0.569819986820221,3.7708675861358643,-33.9508056640625,19.47021484375,8.6517333984375
4.0499999,-9.50737476348877,-0.7326257228851318,3.397372245788574,-19.683837890625,6.1798095703125,4.364013671875
4.069999900000001,-9.725247383117676,-0.9169792532920837,2.585737943649292,1.5716552734375,2.1820068359375,-2.2125244140625
4.0899999000000005,-9.732429504394531,-1.1085153818130493,1.9105730056762695,21.0113525390625,-4.4403076171875,-3.326416015625
4.1099999,-9.739612579345703,-1.0678139925003052,1.5442601442337036,20.93505859375,-4.0740966796875,-7.110595703125
4.1299999000000005,-9.739612579345703,-0.9457096457481384,1.5658079385757446,4.5318603515625,4.0283203125,-2.62451171875
4.1499999,-9.636661529541016,-0.8044517636299133,1.843535304069519,-8.6822509765625,1.6632080078125,-2.410888671875
4.1699999000000005,-9.708487510681152,-0.6248866319656372,2.207453966140747,-6.988525390625,4.0283203125,1.556396484375
4.1899999,-9.670180320739746,-0.7493851184844971,2.4013843536376953,-3.692626953125,-2.6092529296875,0.335693359375
4.209999900000001,-9.674968719482422,-0.7996633648872375,2.492363929748535,2.38037109375,-1.89208984375,-6.866455078125
4.2299999,-9.684545516967773,-1.0319008827209473,2.561795711517334,13.0462646484375,0.244140625,-4.9896240234375
4.249999900000001,-9.557653427124023,-1.0534487962722778,2.628833532333374,11.077880859375,1.5106201171875,-6.77490234375
4.2699999,-9.53849983215332,-1.0342950820922852,2.7676970958709717,-5.92041015625,14.22119140625,-1.495361328125
4.289999900000001,-9.469067573547363,-0.8858546018600464,2.7557260990142822,-21.453857421875,14.434814453125,-0.823974609375
4.3099999,-9.588777542114258,-0.8140285611152649,2.647987127304077,-19.500732421875,13.1988525390625,2.3193359375
4.329999900000001,-9.684545516967773,-0.849941611289978,2.3056161403656006,-8.8348388671875,1.312255859375,3.082275390625
4.3499999,-9.806650161743164,-0.9959878921508789,1.8339585065841675,4.730224609375,-4.3792724609375,-6.500244140625
4.369999900000001,-9.90241813659668,-1.1180921792984009,1.6639702320098877,20.1873779296875,-4.8065185546875,-5.2642822265625
4.3899999,-9.75397777557373,-1.170764684677124,1.6304513216018677,18.6767578125,-7.2479248046875,-8.392333984375
4.409999900000001,-9.739612579345703,-1.0869675874710083,1.9967641830444336,2.9144287109375,5.706787109375,-2.7313232421875
4.4299999,-9.555258750915527,-1.0438719987869263,2.3271639347076416,-12.2833251953125,6.988525390625,-0.2899169921875
4.449999900000001,-9.59596061706543,-0.9983820915222168,2.5785553455352783,-13.61083984375,9.5367431640625,2.1209716796875
4.4699999,-9.667786598205566,-1.0247182846069336,2.52109432220459,-5.9967041015625,0.5340576171875,5.4473876953125
4.489999900000001,-9.703699111938477,-1.1827356815338135,2.1739351749420166,4.8828125,-7.26318359375,-3.0975341796875
4.5099999,-9.93354320526123,-1.213860273361206,1.8387469053268433,22.27783203125,-7.14111328125,-3.2806396484375
4.529999900000001,-9.701305389404297,-1.3072341680526733,1.745373010635376,27.89306640625,-12.9852294921875,-4.9896240234375
4.5499999,-9.785101890563965,-1.091755986213684,1.941697597503662,10.498046875,-0.4730224609375,-1.3580322265625
4.569999900000001,-9.533711433410645,-0.9361328482627869,2.403778553009033,-15.167236328125,5.0048828125,1.129150390625
4.5899999000000005,-9.567230224609375,-0.6847416758537292,2.7557260990142822,-25.2227783203125,10.80322265625,0.640869140625
4.609999900000001,-9.646238327026367,-0.7086837291717529,2.7988216876983643,-15.2740478515625,3.8604736328125,4.69970703125
4.6299999000000005,-9.651026725769043,-0.811634361743927,2.5282769203186035,0.7781982421875,-7.2784423828125,-2.410888671875
4.6499999,-9.852140426635742,-1.1252747774124146,2.073378562927246,17.547607421875,-4.913330078125,-2.9449462890625
4.6699999000000005,-9.670180320739746,-1.1971008777618408,1.8818424940109253,24.7039794921875,-9.8114013671875,-5.2032470703125
4.6899999,-9.706093788146973,-1.2497732639312744,1.886630892753601,13.580322265625,-0.5950927734375,-2.9296875
4.709999900000001,-9.528923034667969,-1.0678139925003052,2.183511972427368,-6.378173828125,2.3345947265625,1.7852783203125
4.7299999,-9.526528358459473,-0.828393816947937,2.585737943649292,-17.4560546875,7.0953369140625,0.3204345703125
4.749999900000001,-9.588777542114258,-0.7493851184844971,2.9017724990844727,-18.096923828125,7.7056884765625,4.4403076171875
4.7699999,-9.5624418258667,-0.7637503147125244,2.935291290283203,-17.08984375,1.9378662109375,-1.1138916015625
4.789999900000001,-9.725247383117676,-1.015141487121582,2.671929121017456,-5.9814453125,5.8746337890625,-2.0599365234375
4.8099999,-9.612719535827637,-1.3239935636520386,2.274491548538208,10.7421875,-0.79345703125,-2.0294189453125
4.829999900000001,-9.66299819946289,-1.4891934394836426,1.922544002532959,14.2364501953125,1.46484375,-1.2054443359375
4.8499999,-9.672574996948242,-1.501164436340332,1.766920804977417,2.7923583984375,1.3885498046875,6.2103271484375
4.869999900000001,-9.615114212036133,-1.2976573705673218,1.8291701078414917,-9.6282958984375,1.77001953125,5.126953125
4.8899999,-9.80904483795166,-1.0797849893569946,1.9728221893310547,-9.1400146484375,0.244140625,7.4920654296875
4.909999900000001,-9.694122314453125,-0.8978256583213806,2.0805611610412598,-4.486083984375,-10.467529296875,2.0751953125
4.9299999,-9.773131370544434,-0.9002198576927185,2.056619167327881,3.1280517578125,-7.3394775390625,-3.631591796875
4.949999900000001,-9.691728591918945,-0.9792284965515137,2.1284453868865967,14.984130859375,-7.171630859375,-1.953125
4.9699999,-9.583989143371582,-1.0319008827209473,2.367865562438965,14.5721435546875,-3.47900390625,-3.7689208984375
4.989999900000001,-9.512163162231445,-0.9768342971801758,2.6839001178741455,-3.387451171875,6.3629150390625,3.7078857421875
5.0099999,-9.442731857299805,-0.8643068075180054,3.0142998695373535,-23.3917236328125,11.0626220703125,2.9144287109375
5.029999900000001,-9.552865028381348,-0.7230489253997803,3.0597896575927734,-23.4222412109375,14.5416259765625,5.7373046875
5.0499999,-9.624691009521484,-0.7876923680305481,2.7269957065582275,-9.4757080078125,0.213623046875,3.4332275390625
5.069999900000001,-9.75397777557373,-0.8762778043746948,2.1308395862579346,8.636474609375,-5.2337646484375,-5.55419921875
5.0899999000000005,-9.859322547912598,-1.1228805780410767,1.6424223184585571,26.9012451171875,-7.110595703125,-5.2642822265625
5.109999900000001,-9.801861763000488,-1.1994950771331787,1.3934253454208374,32.012939453125,-10.5743408203125,-7.843017578125
5.1299999000000005,-9.799467086791992,-1.1085153818130493,1.623268723487854,19.9737548828125,-3.662109375,-0.640869140625
5.1499999,-9.627084732055664,-1.0247182846069336,2.0470423698425293,-0.885009765625,-4.0435791015625,0.8392333984375
5.1699999000000005,-9.576807022094727,-0.8020575642585754,2.6647465229034424,-13.1072998046875,4.669189453125,1.708984375
5.1899999,-9.5624418258667,-0.7565677165985107,3.021482467651367,-18.06640625,2.9296875,5.859375
5.209999900000001,-9.493009567260742,-0.871489405632019,3.112462282180786,-14.404296875,-1.0833740234375,-0.640869140625
5.2299999,-9.720458984375,-1.0342950820922852,2.7988216876983643,2.0904541015625,2.7008056640625,-0.244140625
5.249999900000001,-9.579200744628906,-1.2641384601593018,2.4660277366638184,13.885498046875,-2.9144287109375,-0.6561279296875
5.2699999,-9.739612579345703,-1.2401964664459229,2.1092917919158936,9.3536376953125,3.0364990234375,1.5411376953125
5.289999900000001,-9.63187313079834,-1.1659762859344482,2.10210919380188,-3.0059814453125,0.823974609375,4.4403076171875
5.3099999,-9.624691009521484,-0.9409212470054626,2.2218191623687744,-12.542724609375,5.3558349609375,1.953125
5.329999900000001,-9.75397777557373,-0.7565677165985107,2.4468741416931152,-14.984130859375,5.4779052734375,6.77490234375
5.3499999,-9.653421401977539,-0.7086837291717529,2.4157495498657227,-10.07080078125,-4.7760009765625,0.0457763671875
5.369999900000001,-9.775525093078613,-0.7805097699165344,2.3271639347076416,3.0517578125,-2.13623046875,-5.37109375
5.3899999,-9.679757118225098,-0.9720458984375,2.145204782485962,16.1285400390625,-4.3487548828125,-5.2490234375
5.409999900000001,-9.615114212036133,-1.0606313943862915,2.142810583114624,15.411376953125,0.5035400390625,-4.669189453125
5.4299999,-9.560047149658203,-1.1300631761550903,2.322375535964966,3.265380859375,4.180908203125,2.4566650390625
5.449999900000001,-9.516951560974121,-1.0773907899856567,2.4851813316345215,-9.552001953125,5.7830810546875,1.556396484375
5.4699999,-9.674968719482422,-0.9050082564353943,2.5258827209472656,-8.9263916015625,-3.2501220703125,4.791259765625
5.489999900000001,-9.751583099365234,-0.9457096457481384,2.296039342880249,-0.2288818359375,-5.7525634765625,-1.9073486328125
5.5099999,-9.794678688049316,-1.036689281463623,2.1045033931732178,12.14599609375,-4.0283203125,-0.54931640625
5.529999900000001,-9.677363395690918,-1.0438719987869263,2.051830768585205,13.36669921875,-5.2642822265625,-1.556396484375
5.5499999,-9.684545516967773,-1.0199298858642578,2.1763293743133545,-0.4730224609375,3.6468505859375,2.1820068359375
5.569999900000001,-9.543288230895996,-0.8595184087753296,2.4827871322631836,-17.2271728515625,3.631591796875,4.7149658203125
5.5899999000000005,-9.581595420837402,-0.7541735172271729,2.6431987285614014,-22.6898193359375,9.2926025390625,4.4403076171875
5.609999900000001,-9.658209800720215,-0.7781155705451965,2.671929121017456,-16.448974609375,4.69970703125,8.30078125
5.6299999000000005,-9.684545516967773,-0.9074024558067322,2.3582887649536133,-4.4097900390625,-7.3699951171875,0.91552734375
5.6499999,-9.782708168029785,-1.091755986213684,2.0039467811584473,15.19775390625,-7.01904296875,-1.9989013671875
5.6699999000000005,-9.734824180603027,-1.1635819673538208,1.7908629179000854,29.8004150390625,-9.6282958984375,-1.708984375
5.6899999,-9.627084732055664,-1.0534487962722778,1.8962076902389526,23.0865478515625,-4.69970703125,-4.1351318359375
5.709999900000001,-9.550470352172852,-0.811634361743927,2.341529369354248,0.54931640625,3.448486328125,0.5645751953125
5.7299999,-9.440337181091309,-0.5626373887062073,2.8778305053710938,-21.759033203125,7.4462890625,0.3814697265625
5.749999900000001,-9.461885452270508,-0.40701428055763245,3.2297780513763428,-31.280517578125,16.0064697265625,2.50244140625
5.7699999,-9.543288230895996,-0.47884035110473633,3.24414324760437,-27.4658203125,9.8419189453125,4.791259765625
5.789999900000001,-9.603142738342285,-0.7876923680305481,2.8203697204589844,-11.474609375,2.410888671875,-3.41796875
5.8099999,-9.804255485534668,-1.0438719987869263,2.276885747909546,12.5732421875,3.3111572265625,-1.8768310546875
5.829999900000001,-9.761159896850586,-1.316810965538025,1.742978811264038,25.0701904296875,-4.2724609375,-3.2806396484375
5.8499999,-9.81143856048584,-1.3120225667953491,1.4963760375976562,21.3165283203125,-0.9765625,-3.5247802734375
5.869999900000001,-9.751583099365234,-1.1755530834197998,1.5729905366897583,8.453369140625,-2.5787353515625,1.7547607421875
5.8899999,-9.66299819946289,-0.8882488012313843,1.889025092124939,-4.5166015625,0.1373291015625,1.1444091796875
5.909999900000001,-9.725247383117676,-0.8044517636299133,2.185906171798706,-9.1552734375,3.4027099609375,3.7994384765625
5.9299999,-9.682151794433594,-0.7445967197418213,2.403778553009033,-7.110595703125,-5.79833984375,4.08935546875
5.949999900000001,-9.72285270690918,-0.8738836050033569,2.434903144836426,1.46484375,-7.9345703125,-2.2735595703125
5.9699999,-9.730035781860352,-0.9720458984375,2.454056739807129,11.65771484375,-3.692626953125,-1.251220703125
5.989999900000001,-9.59835433959961,-1.0103530883789062,2.492363929748535,8.6822509765625,-2.3651123046875,-1.89208984375
6.0099999,-9.586383819580078,-0.8571242094039917,2.612074136734009,-3.6773681640625,7.049560546875,-1.40380859375
6.029999900000001,-9.502586364746094,-0.7637503147125244,2.7557260990142822,-11.444091796875,6.500244140625,2.044677734375
6.0499999,-9.457097053527832,-0.6105214357376099,2.913743495941162,-15.80810546875,10.711669921875,-0.335693359375
6.069999900000001,-9.622296333312988,-0.5434837937355042,2.896984100341797,-19.561767578125,14.3585205078125,2.593994140625
6.0899999000000005,-9.59596061706543,-0.6512228846549988,2.609679937362671,-11.444091796875,4.2877197265625,-2.227783203125
6.109999900000001,-9.737217903137207,-0.7924807667732239,2.145204782485962,12.0391845703125,0.396728515625,-9.33837890625
6.1299999000000005,-9.825803756713867,-1.0319008827209473,1.6136919260025024,36.407470703125,-4.119873046875,-8.23974609375
6.149999900000001,-9.77791976928711,-1.2018892765045166,1.2976573705673218,43.8385009765625,-9.2926025390625,-11.932373046875
6.1699999000000005,-9.873687744140625,-1.137245774269104,1.3694833517074585,37.9180908203125,-4.241943359375,-8.1787109375
6.1899999,-9.732429504394531,-1.039083480834961,1.7884687185287476,19.866943359375,-5.7373046875,-3.9520263671875
6.209999900000001,-9.66299819946289,-0.8523358106613159,2.3702597618103027,1.129150390625,2.2430419921875,-3.2501220703125
6.2299999,-9.694122314453125,-0.7781155705451965,2.849100112915039,-11.04736328125,4.974365234375,3.0670166015625
6.249999900000001,-9.53849983215332,-0.9888052940368652,3.026270866394043,-12.3443603515625,-0.91552734375,1.5869140625
6.2699999,-9.603142738342285,-1.194706678390503,2.9472622871398926,0.06103515625,0.5035400390625,1.46484375
6.289999900000001,-9.552865028381348,-1.3742717504501343,2.655169725418091,10.25390625,0.823974609375,3.7078857421875
6.3099999,-9.502586364746094,-1.3503297567367554,2.3989901542663574,5.4168701171875,1.52587890625,2.3651123046875
6.329999900000001,-9.555258750915527,-1.1444283723831177,2.3247697353363037,-6.2103271484375,6.195068359375,4.0283203125
6.3499999,-9.543288230895996,-0.8427590131759644,2.3367409706115723,-15.625,4.0435791015625,5.340576171875
6.369999900000001,-9.62947940826416,-0.5099649429321289,2.360682964324951,-19.6380615234375,9.0484619140625,4.608154296875
6.3899999,-9.737217903137207,-0.47644615173339844,2.3056161403656006,-13.885498046875,0.54931640625,4.3487548828125
6.409999900000001,-9.816226959228516,-0.5291185975074768,2.1332337856292725,-0.396728515625,-8.6669921875,-3.5858154296875
6.4299999,-9.892841339111328,-0.7733271718025208,1.9321208000183105,13.24462890625,-4.608154296875,-2.5634765625
6.449999900000001,-9.797073364257812,-1.0271124839782715,1.8171991109848022,21.270751953125,-6.103515625,-2.0599365234375
6.4699999,-9.670180320739746,-1.0247182846069336,2.0374655723571777,15.380859375,-2.685546875,-3.5400390625
6.489999900000001,-9.526528358459473,-0.9672574996948242,2.4372973442077637,-6.8511962890625,5.2032470703125,0.9765625
6.5099999,-9.454702377319336,-0.727837324142456,2.8778305053710938,-29.1595458984375,11.1236572265625,1.3885498046875
6.529999900000001,-9.526528358459473,-0.6440402865409851,3.023876667022705,-30.1971435546875,16.021728515625,2.8533935546875
6.5499999,-9.634267807006836,-0.6775590777397156,2.827552318572998,-14.0380859375,3.997802734375,2.838134765625
6.569999900000001,-9.744400978088379,-0.9816226959228516,2.2888567447662354,5.8746337890625,-3.7384033203125,-3.875732421875
6.5899999000000005,-9.911994934082031,-1.256955862045288,1.745373010635376,22.1099853515625,-3.6773681640625,-0.732421875
6.609999900000001,-9.806650161743164,-1.4293384552001953,1.4508862495422363,29.083251953125,-9.857177734375,-1.1749267578125
6.6299999000000005,-9.758766174316406,-1.3455413579940796,1.577778935432434,20.751953125,-5.2642822265625,-0.4730224609375
6.649999900000001,-9.617507934570312,-0.9097966551780701,2.1045033931732178,-7.781982421875,0.18310546875,2.197265625
6.6699999000000005,-9.509769439697266,-0.5841852426528931,2.631227731704712,-33.69140625,10.2996826171875,-0.42724609375
6.6899999,-9.591172218322754,-0.42616790533065796,2.9544448852539062,-30.6549072265625,11.8560791015625,5.279541015625
6.709999900000001,-9.622296333312988,-0.6129156351089478,2.7988216876983643,-10.6353759765625,-2.38037109375,5.4473876953125
6.7299999,-9.749189376831055,-0.9959878921508789,2.276885747909546,10.4827880859375,-7.1563720703125,-0.244140625
6.749999900000001,-9.837775230407715,-1.3215993642807007,1.7357962131500244,26.4739990234375,-8.8043212890625,1.068115234375
6.7699999,-9.77791976928711,-1.3646949529647827,1.4939818382263184,30.3955078125,-12.939453125,0.67138671875
6.789999900000001,-9.792284965515137,-1.2018892765045166,1.7118542194366455,16.693115234375,-6.3018798828125,4.1351318359375
6.8099999,-9.612719535827637,-0.6655880808830261,2.2649147510528564,-9.5672607421875,-1.8310546875,4.0283203125
6.829999900000001,-9.569623947143555,-0.3878606855869293,2.829946517944336,-24.261474609375,10.1165771484375,-1.5869140625
6.8499999,-9.667786598205566,-0.17717093229293823,3.1004912853240967,-19.2718505859375,8.087158203125,3.3416748046875
6.869999900000001,-9.612719535827637,-0.2992752194404602,2.956839084625244,-1.9378662109375,-4.4708251953125,1.6937255859375
6.8899999,-9.744400978088379,-0.5770025849342346,2.5905263423919678,14.6942138671875,-3.1585693359375,-4.08935546875
6.909999900000001,-9.677363395690918,-0.8858546018600464,2.22660756111145,19.927978515625,-2.9754638671875,-7.2021484375
6.9299999,-9.617507934570312,-1.0223240852355957,2.0925323963165283,15.1214599609375,-0.518798828125,-6.0882568359375
6.949999900000001,-9.533711433410645,-0.9959878921508789,2.190694570541382,2.777099609375,3.3111572265625,0.6866455078125
6.9699999,-9.512163162231445,-0.9193734526634216,2.315192937850952,-9.1400146484375,4.302978515625,1.03759765625
6.989999900000001,-9.581595420837402,-0.7948749661445618,2.3774423599243164,-3.11279296875,6.8817138671875,-2.0904541015625
7.0099999,-9.679757118225098,-0.7972691655158997,2.3295583724975586,11.4898681640625,-4.0435791015625,1.983642578125
7.029999900000001,-9.720458984375,-0.7948749661445618,2.22660756111145,16.8914794921875,-11.1541748046875,-2.593994140625
7.0499999,-9.765948295593262,-0.8523358106613159,2.212242364883423,13.85498046875,-4.4403076171875,-5.157470703125
7.069999900000001,-9.600749015808105,-0.768538773059845,2.5067291259765625,6.3934326171875,0,-7.26318359375
7.0899999000000005,-9.50498104095459,-0.6991068720817566,2.875436305999756,-12.2222900390625,10.711669921875,-2.9144287109375
7.109999900000001,-9.433155059814453,-0.6799532771110535,3.1268274784088135,-31.646728515625,15.2130126953125,3.4332275390625
7.1299999000000005,-9.409213066101074,-0.7206547260284424,3.050212860107422,-30.792236328125,16.9830322265625,2.593994140625
7.149999900000001,-9.619902610778809,-0.9289502501487732,2.5498247146606445,-8.8958740234375,9.857177734375,3.9215087890625
7.1699999000000005,-9.77791976928711,-1.072602391242981,1.843535304069519,16.0675048828125,-9.58251953125,2.7618408203125
7.1899999,-9.947908401489258,-1.158793568611145,1.335964560508728,31.005859375,-15.6402587890625,-3.5552978515625
7.209999900000001,-9.964667320251465,-1.091755986213684,1.280897855758667,28.6102294921875,-11.7340087890625,-4.7760009765625
7.2299999,-9.77791976928711,-0.811634361743927,1.7310078144073486,9.4757080078125,-4.608154296875,-6.2713623046875
7.249999900000001,-9.612719535827637,-0.5746083855628967,2.473210334777832,-15.2130126953125,7.3089599609375,-1.8463134765625
7.2699999,-9.394847869873047,-0.395043283700943,3.2369606494903564,-36.0565185546875,10.8489990234375,0.885009765625
7.289999900000001,-9.368511199951172,-0.35434186458587646,3.600879430770874,-41.2445068359375,20.5078125,1.3885498046875
7.3099999,-9.488221168518066,-0.6416460275650024,3.4955344200134277,-30.0750732421875,18.157958984375,6.1492919921875
7.329999900000001,-9.605537414550781,-0.9409212470054626,2.8634653091430664,-8.575439453125,4.8675537109375,1.5106201171875
7.3499999,-9.806650161743164,-1.2473790645599365,1.9823989868164062,14.862060546875,-0.6561279296875,-0.8544921875
7.369999900000001,-9.880870819091797,-1.3623007535934448,1.3024457693099976,23.2696533203125,-6.7596435546875,-3.387451171875
7.3899999,-9.907206535339355,-1.2473790645599365,0.9888052940368652,12.26806640625,-5.4931640625,-7.01904296875
7.409999900000001,-9.847352027893066,-0.9720458984375,1.2042834758758545,-2.1820068359375,-3.1890869140625,-1.3580322265625
7.4299999,-9.775525093078613,-0.7948749661445618,1.6663644313812256,-11.5509033203125,-5.18798828125,0.2288818359375
7.449999900000001,-9.694122314453125,-0.7086837291717529,2.1595699787139893,-11.9781494140625,0.67138671875,-0.7171630859375
7.4699999,-9.751583099365234,-0.7805097699165344,2.5330653190612793,-8.453369140625,-1.068115234375,3.47900390625
7.489999900000001,-9.62947940826416,-0.9265560507774353,2.676717519760132,-4.8065185546875,-5.9051513671875,-0.335693359375
7.5099999,-9.72285270690918,-1.070208191871643,2.6886885166168213,-0.0457763671875,-2.1514892578125,-1.2359619140625
7.529999900000001,-9.583989143371582,-1.0845733880996704,2.583343744277954,0.6866455078125,0.7781982421875,-2.7008056640625
7.5499999,-9.560047149658203,-1.0127472877502441,2.497152328491211,-2.7618408203125,4.6234130859375,-1.8463134765625
7.569999900000001,-9.50737476348877,-0.8164227604866028,2.5258827209472656,-13.1072998046875,4.2877197265625,3.173828125
7.5899999000000005,-9.519346237182617,-0.7374141216278076,2.5043349266052246,-29.5562744140625,7.4462890625,3.814697265625
7.609999900000001,-9.548076629638672,-0.6799532771110535,2.585737943649292,-31.829833984375,10.589599609375,2.960205078125
7.6299999000000005,-9.646238327026367,-0.7541735172271729,2.516305923461914,-25.787353515625,6.7291259765625,5.2337646484375
7.649999900000001,-9.62947940826416,-0.8643068075180054,2.585737943649292,-26.519775390625,3.7689208984375,4.45556640625
7.6699999000000005,-9.59596061706543,-0.751779317855835,2.8419175148010254,-40.252685546875,7.62939453125,2.105712890625
7.6899999,-9.459490776062012,-0.6440402865409851,3.1890766620635986,-70.4193115234375,25.787353515625,2.6397705078125
7.709999900000001,-9.330204010009766,-0.4644751250743866,3.514688014984131,-98.4649658203125,40.6036376953125,3.082275390625
7.7299999,-9.387664794921875,-0.667982280254364,3.07415509223938,-104.4769287109375,41.3970947265625,8.2855224609375
7.749999900000001,-9.742006301879883,-0.9433154463768005,1.9919757843017578,-59.08203125,21.636962890625,12.3138427734375
7.7699999,-10.065223693847656,-1.6041151285171509,0.3878606855869293,1.9378662109375,-6.3934326171875,6.072998046875
7.789999900000001,-9.765948295593262,-1.7621324062347412,-1.115697979927063,38.87939453125,-16.9525146484375,-1.1138916015625
7.8099999,-8.884882926940918,-1.6927006244659424,-1.3886369466781616,66.4520263671875,-27.374267578125,11.016845703125
7.829999900000001,-7.491456985473633,-1.501164436340332,-0.667982280254364,53.070068359375,-21.1181640625,1.129150390625
7.8499999,-6.423643112182617,-1.5610195398330688,0.6871358752250671,33.721923828125,-2.7313232421875,3.692626953125
7.869999900000001,-6.294356346130371,-1.7405846118927002,2.2218191623687744,52.947998046875,-0.8392333984375,19.7601318359375
7.8899999,-7.259219646453857,-1.9177556037902832,3.141192674636841,56.6253662109375,0.457763671875,27.8778076171875
7.909999900000001,-9.205705642700195,-1.3215993642807007,3.6942532062530518,32.6385498046875,7.0037841796875,25.57373046875
7.9299999,-10.896012306213379,-0.3016694188117981,3.9863457679748535,-11.566162109375,22.2930908203125,18.6309814453125
7.949999900000001,-12.172121047973633,1.0534487962722778,4.120420932769775,-72.021484375,38.055419921875,9.8876953125
7.9699999,-12.536040306091309,1.6687586307525635,3.687070608139038,-100.7080078125,41.19873046875,-1.2054443359375
7.989999900000001,-11.982979774475098,1.7310078144073486,2.9951462745666504,-88.37890625,28.0609130859375,10.1470947265625
8.0099999,-11.238382339477539,1.0893617868423462,1.9488801956176758,-74.64599609375,9.735107421875,37.90283203125
8.0299999,-10.752359390258789,0.15562310814857483,0.6799532771110535,-63.201904296875,-2.288818359375,45.83740234375
8.049999900000001,-10.649409294128418,-0.8092401623725891,-0.4596867263317108,-17.02880859375,-0.3509521484375,10.8489990234375
8.069999900000001,-10.656591415405273,-1.3766659498214722,-0.8906430602073669,41.259765625,-16.448974609375,-17.242431640625
8.0899999,-10.584765434265137,-1.6376339197158813,-0.727837324142456,26.214599609375,-17.1051025390625,-4.9591064453125
8.1099999,-10.196905136108398,-1.5729905366897583,0.05506663769483566,-11.8865966796875,3.5400390625,1.9378662109375
8.129999900000001,-9.672574996948242,-1.173158884048462,1.0845733880996704,-8.3465576171875,9.4146728515625,2.9144287109375
8.149999900000001,-9.366117477416992,-0.7757213711738586,1.800439715385437,5.7220458984375,5.126953125,0.67138671875
8.1699999,-9.346963882446289,-0.4692635238170624,2.10210919380188,3.1585693359375,5.950927734375,-3.8604736328125
8.1899999,-9.509769439697266,-0.29209262132644653,2.233790159225464,-1.251220703125,9.9334716796875,-3.60107421875
8.2099999,-9.84256362915039,-0.2298433631658554,2.1356279850006104,-2.99072265625,14.7247314453125,2.044677734375
8.229999900000001,-10.144232749938965,-0.3495534360408783,1.920149803161621,-1.2359619140625,11.41357421875,2.6702880859375
8.2499999,-10.376470565795898,-0.36152446269989014,1.6831238269805908,-0.7171630859375,6.561279296875,-1.1138916015625
8.2699999,-10.357316970825195,-0.3734954595565796,1.4532804489135742,-5.18798828125,13.9923095703125,-9.3841552734375
8.2899999,-10.098742485046387,-0.42616790533065796,1.290474772453308,-8.11767578125,20.01953125,-8.544921875
8.309999900000001,-9.818621635437012,-0.5099649429321289,1.1348515748977661,-2.777099609375,12.6190185546875,3.6773681640625
8.3299999,-9.68694019317627,-0.5051765441894531,0.8882488012313843,4.08935546875,3.173828125,4.547119140625
8.3499999,-9.768342971801758,-0.42377370595932007,0.6991068720817566,2.288818359375,-2.6702880859375,-3.875732421875
8.3699999,-9.93354320526123,-0.33039984107017517,0.7038952708244324,-0.8087158203125,-2.3345947265625,-9.918212890625
8.389999900000001,-10.038887977600098,-0.2561795711517334,0.9768342971801758,2.0599365234375,2.899169921875,-8.36181640625
8.4099999,-10.074800491333008,-0.36152446269989014,1.3192051649093628,-0.1983642578125,10.406494140625,-3.0517578125
8.4299999,-10.105925559997559,-0.5674257874488831,1.460463047027588,-5.401611328125,13.24462890625,-1.3580322265625
8.4499999,-10.158597946166992,-0.5746083855628967,1.3766659498214722,-1.617431640625,5.7373046875,-1.6632080078125
8.469999900000001,-10.20887565612793,-0.42856210470199585,1.1875240802764893,1.861572265625,-2.2430419921875,-7.14111328125
8.4899999,-10.165780067443848,-0.33758243918418884,0.9720458984375,-0.54931640625,-0.213623046875,-15.7012939453125
8.5099999,-10.06043529510498,-0.42377370595932007,0.9983820915222168,-0.579833984375,4.1351318359375,-13.0462646484375
8.5299999,-9.95748519897461,-0.689530074596405,1.0582371950149536,-0.54931640625,5.523681640625,-0.946044921875
8.549999900000001,-9.873687744140625,-1.015141487121582,1.1228805780410767,-0.6103515625,4.5928955078125,4.5013427734375
8.569999900000001,-9.801861763000488,-1.2497732639312744,1.1061211824417114,0.457763671875,3.84521484375,2.44140625
8.5899999,-9.821015357971191,-1.1324573755264282,1.0893617868423462,0.8087158203125,4.6844482421875,2.8533935546875
8.6099999,-9.923966407775879,-0.8188169598579407,1.0606313943862915,-2.4261474609375,4.9896240234375,1.5411376953125
8.629999900000001,-10.065223693847656,-0.47165772318840027,1.0007762908935547,-2.74658203125,4.0435791015625,-7.8277587890625
8.649999900000001,-10.196905136108398,-0.2298433631658554,0.9648633003234863,2.9754638671875,1.8768310546875,-13.9007568359375
8.6699999,-10.249577522277832,-0.0071826050989329815,0.9720458984375,3.875732421875,1.129150390625,-12.542724609375
8.6899999,-10.120290756225586,-0.06464344263076782,1.0223240852355957,-3.2806396484375,3.173828125,-15.625
8.709999900000001,-9.832986831665039,-0.31124621629714966,1.0821791887283325,-6.591796875,6.6680908203125,-18.463134765625
8.729999900000001,-9.454702377319336,-0.706289529800415,1.01753568649292,-3.0517578125,6.9580078125,-7.293701171875
8.7499999,-9.081207275390625,-1.1180921792984009,0.8547300100326538,4.4403076171875,0.3204345703125,8.9874267578125
8.7699999,-8.777143478393555,-1.414973258972168,0.7206547260284424,11.1236572265625,-2.166748046875,8.1634521484375
8.7899999,-8.80587387084961,-1.4652514457702637,0.608127236366272,7.568359375,7.110595703125,1.800537109375
8.809999900000001,-9.14345645904541,-1.2042834758758545,0.6560112833976746,0.67138671875,8.453369140625,2.471923828125
8.8299999,-9.651026725769043,-0.9265560507774353,0.7015010714530945,-0.91552734375,-0.5340576171875,-6.8817138671875
8.8499999,-10.18493366241455,-0.7469909191131592,0.6823474764823914,7.6904296875,-5.462646484375,-9.5062255859375
8.8699999,-10.524910926818848,-0.7565677165985107,0.6871358752250671,22.3388671875,-17.6544189453125,-0.2288818359375
8.889999900000001,-10.702081680297852,-0.7852981686592102,0.8307880163192749,31.768798828125,-31.67724609375,13.5650634765625
8.9099999,-10.721235275268555,-0.828393816947937,1.1779472827911377,27.7862548828125,-26.9012451171875,2.50244140625
8.9299999,-10.611102104187012,-0.8307880163192749,1.522712230682373,15.8233642578125,-6.3629150390625,-19.5770263671875
8.9499999,-10.462661743164062,-0.8188169598579407,1.6711528301239014,14.58740234375,5.6610107421875,-19.0887451171875
8.969999900000001,-10.316615104675293,-0.9002198576927185,1.4221558570861816,26.6876220703125,-2.7923583984375,-4.5623779296875
8.9899999,-10.213664054870605,-1.1085153818130493,0.8044517636299133,41.961669921875,-19.22607421875,-6.34765625
9.0099999,-10.156203269958496,-1.338358759880066,0.07422025501728058,65.00244140625,-27.4505615234375,-17.1356201171875
9.0299999,-10.053253173828125,-1.3742717504501343,-0.31842881441116333,87.738037109375,-29.205322265625,-15.7928466796875
9.049999900000001,-9.81143856048584,-1.290474772453308,-0.21787235140800476,83.4197998046875,-20.5230712890625,-9.613037109375
9.069999900000001,-9.509769439697266,-1.0079588890075684,0.2968810200691223,52.7801513671875,-1.8157958984375,-7.659912109375
9.0899999,-9.239224433898926,-0.7110779285430908,1.1420341730117798,29.632568359375,3.0059814453125,-0.518798828125
9.1099999,-9.0859956741333,-0.45250412821769714,1.8531121015548706,23.040771484375,1.800537109375,6.0577392578125
9.129999900000001,-9.095572471618652,-0.40222588181495667,2.3127987384796143,24.749755859375,10.7574462890625,-1.40380859375
9.149999900000001,-9.069235801696777,-0.4644751250743866,2.6144683361053467,27.008056640625,9.552001953125,-9.70458984375
9.1699999,-9.126696586608887,-0.47405192255973816,2.827552318572998,24.139404296875,3.9520263671875,-6.195068359375
9.1899999,-9.009381294250488,-0.2801215946674347,3.31118106842041,2.25830078125,1.77001953125,9.6435546875
9.209999900000001,-8.995016098022461,0.019153613597154617,3.6774938106536865,-48.6602783203125,29.5562744140625,25.482177734375
9.229999900000001,-9.519346237182617,0.5027823448181152,3.931279182434082,-84.381103515625,45.2423095703125,20.263671875
9.2499999,-10.113107681274414,0.5746083855628967,3.5386300086975098,-89.7674560546875,33.172607421875,-8.697509765625
9.2699999,-11.535264015197754,0.33997663855552673,2.4636335372924805,-65.8416748046875,20.2484130859375,-11.5966796875
9.2899999,-12.634202003479004,-0.3423708379268646,0.8571242094039917,-21.209716796875,18.8751220703125,-22.03369140625
9.309999900000001,-13.438653945922852,-1.0582371950149536,-0.7661445140838623,23.7274169921875,-4.3182373046875,-26.5045166015625
9.3299999,-13.417106628417969,-1.623268723487854,-1.8842366933822632,57.220458984375,-30.4412841796875,-19.134521484375
9.3499999,-12.631808280944824,-1.7717092037200928,-2.0374655723571777,67.87109375,-34.60693359375,-22.3236083984375
9.3699999,-11.101913452148438,-1.7549498081207275,-1.1300631761550903,54.4281005859375,-31.4483642578125,-21.6217041015625
9.389999900000001,-9.581595420837402,-1.4077905416488647,0.47884035110473633,33.447265625,-14.923095703125,-18.2952880859375
9.4099999,-8.389283180236816,-1.316810965538025,2.1499931812286377,11.8408203125,7.476806640625,-19.5159912109375
9.4299999,-7.888894557952881,-1.192312479019165,3.361459255218506,-5.9051513671875,11.7645263671875,-8.0718994140625
9.4499999,-8.96389102935791,-1.2952631711959839,3.4165258407592773,-11.016845703125,14.8773193359375,-2.166748046875
9.469999900000001,-9.861717224121094,-1.3623007535934448,2.5498247146606445,-3.2501220703125,5.859375,-11.90185546875
9.4899999,-10.474632263183594,-1.403002142906189,1.5729905366897583,9.7808837890625,-4.8980712890625,-18.5546875
9.5099999,-10.690110206604004,-1.41257905960083,0.7733271718025208,22.6898193359375,-6.34765625,-14.5721435546875
9.5299999,-10.515334129333496,-1.4844050407409668,0.31603461503982544,26.9927978515625,1.190185546875,-13.4735107421875
9.549999900000001,-10.074800491333008,-1.3766659498214722,0.2944868206977844,25.4364013671875,7.2479248046875,-11.5203857421875
9.569999900000001,-9.588777542114258,-1.3024457693099976,0.569819986820221,19.7601318359375,7.659912109375,-2.8228759765625
9.5899999,-9.057265281677246,-1.0534487962722778,1.1252747774124146,10.711669921875,11.871337890625,11.5966796875
9.6099999,-8.631096839904785,-0.9193734526634216,1.6160861253738403,-9.8724365234375,27.2216796875,23.3001708984375
9.629999900000001,-8.427590370178223,-0.7757213711738586,1.9297266006469727,-25.421142578125,49.4537353515625,19.0582275390625
9.649999900000001,-8.573636054992676,-0.8571242094039917,1.8100165128707886,-22.064208984375,43.3197021484375,8.148193359375
9.6699999,-8.947132110595703,-1.115697979927063,1.3431471586227417,-7.5225830078125,5.2947998046875,3.1280517578125
9.6899999,-9.327810287475586,-1.4748282432556152,0.7541735172271729,11.53564453125,-20.660400390625,3.23486328125
9.709999900000001,-9.485827445983887,-1.8171991109848022,0.3519476354122162,27.2979736328125,-15.960693359375,4.45556640625
9.729999900000001,-9.435548782348633,-1.9847931861877441,0.29209262132644653,33.935546875,-2.655029296875,5.767822265625
9.7499999,-9.330204010009766,-1.9321208000183105,0.5530605912208557,30.487060546875,0.1983642578125,1.89208984375
9.7699999,-9.284713745117188,-1.7118542194366455,0.9696516990661621,20.81298828125,-4.180908203125,-9.9029541015625
9.7899999,-9.296685218811035,-1.4532804489135742,1.414973258972168,10.101318359375,-8.9263916015625,-20.416259765625
9.809999900000001,-9.299078941345215,-1.2545616626739502,1.7573440074920654,1.983642578125,-6.561279296875,-21.728515625
9.8299999,-9.217676162719727,-1.2210428714752197,1.9177556037902832,-2.6397705078125,-0.8087158203125,-15.5792236328125
9.8499999,-9.124302864074707,-1.3096283674240112,1.8962076902389526,-3.90625,-0.0152587890625,-5.8441162109375
9.8699999,-9.14585018157959,-1.4317326545715332,1.7310078144073486,-3.814697265625,-3.5858154296875,0.5035400390625
9.889999900000001,-9.222464561462402,-1.5610195398330688,1.5155296325683594,-5.035400390625,-11.8865966796875,1.556396484375
9.9099999,-9.459490776062012,-1.577778935432434,1.3694833517074585,-6.8817138671875,-20.32470703125,5.584716796875
9.9299999,-9.581595420837402,-1.5921441316604614,1.3096283674240112,-11.90185546875,-18.7530517578125,3.753662109375
9.9499999,-9.739612579345703,-1.5729905366897583,1.3287819623947144,-15.106201171875,8.636474609375,-9.9334716796875
9.969999900000001,-9.84495735168457,-1.6065093278884888,1.2832920551300049,-14.129638671875,31.8603515625,-22.5830078125
9.9899999,-9.96945571899414,-1.6687586307525635,1.161187767982483,-10.3607177734375,26.641845703125,-23.25439453125
10.0099999,-10.0580415725708,-1.742978811264038,0.9792284965515137,-6.6680908203125,3.5247802734375,-11.1846923828125
10.0299999,-10.105925559997559,-1.7501614093780518,0.8092401623725891,-3.875732421875,-7.354736328125,3.1585693359375
10.049999900000001,-10.041281700134277,-1.6711528301239014,0.7852981686592102,-1.6632080078125,-6.16455078125,8.9111328125
10.069999900000001,-9.938331604003906,-1.534683346748352,0.8427590131759644,-0.0457763671875,2.105712890625,7.904052734375
10.0899999,-9.86650562286377,-1.381454348564148,0.9648633003234863,1.708984375,4.2572021484375,7.2784423828125
10.1099999,-9.8784761428833,-1.290474772453308,1.048660397529602,3.3721923828125,-2.74658203125,3.173828125
10.129999900000001,-9.897629737854004,-1.3694833517074585,1.0534487962722778,8.087158203125,-9.09423828125,-7.87353515625
10.149999900000001,-9.892841339111328,-1.5849615335464478,1.070208191871643,13.916015625,-17.7154541015625,-11.1236572265625
10.1699999,-9.813833236694336,-1.9081788063049316,1.0989385843276978,15.2740478515625,-18.5699462890625,-4.7760009765625
10.1899999,-9.66539192199707,-2.2146365642547607,1.194706678390503,12.8021240234375,-13.885498046875,1.220703125
10.209999900000001,-9.490615844726562,-2.3726539611816406,1.3670891523361206,7.904052734375,-8.7127685546875,3.72314453125
10.229999900000001,-9.406818389892578,-2.3104045391082764,1.5275006294250488,0.4730224609375,-1.1749267578125,4.547119140625
10.2499999,-9.363722801208496,-2.0590133666992188,1.656787633895874,-7.87353515625,1.52587890625,2.1514892578125
10.2699999,-9.363722801208496,-1.7118542194366455,1.7094600200653076,-15.228271484375,2.5482177734375,-1.8768310546875
10.2899999,-9.375694274902344,-1.400607943534851,1.6615760326385498,-19.775390625,6.2408447265625,-0.4119873046875
10.309999900000001,-9.406818389892578,-1.1683704853057861,1.5418659448623657,-20.3399658203125,7.2479248046875,7.293701171875
10.3299999,-9.445125579833984,-1.036689281463623,1.400607943534851,-18.1732177734375,5.6610107421875,12.8936767578125
10.3499999,-9.548076629638672,-0.9696516990661621,1.2689268589019775,-16.17431640625,4.8675537109375,15.7623291015625
10.3699999,-9.701305389404297,-0.933738648891449,1.1659762859344482,-13.7176513671875,1.251220703125,20.9197998046875
10.389999900000001,-9.837775230407715,-0.8762778043746948,1.137245774269104,-10.07080078125,-7.2784423828125,26.8096923828125
10.4099999,-9.897629737854004,-0.8212111592292786,1.1492167711257935,-8.6212158203125,-5.0201416015625,27.28271484375
10.4299999,-9.883264541625977,-0.7565677165985107,1.2090718746185303,-10.1318359375,3.7841796875,29.4952392578125
10.4499999,-9.864110946655273,-0.6416460275650024,1.3192051649093628,-13.7176513671875,5.615234375,33.3251953125
10.469999900000001,-10.271124839782715,-0.6105214357376099,1.3886369466781616,-18.8446044921875,5.645751953125,17.15087890625
10.4899999,-10.553641319274902,-0.5961562395095825,1.403002142906189,-20.7366943359375,-7.0343017578125,-17.242431640625
10.5099999,-10.936713218688965,-0.7637503147125244,1.314416766166687,-16.11328125,-17.913818359375,-16.9677734375
10.5299999,-11.092336654663086,-0.9720458984375,1.1635819673538208,-6.988525390625,-12.542724609375,-5.2642822265625
10.549999900000001,-10.78348445892334,-1.2018892765045166,1.0582371950149536,0.823974609375,-13.0462646484375,-5.37109375
10.569999900000001,-10.350133895874023,-1.357512354850769,1.0558429956436157,1.861572265625,-10.5438232421875,-14.7552490234375
10.5899999,-9.947908401489258,-1.381454348564148,1.1683704853057861,1.4801025390625,-2.655029296875,-17.4560546875
10.6099999,-9.59596061706543,-1.3886369466781616,1.3096283674240112,5.06591796875,-12.8326416015625,-6.6986083984375
10.629999900000001,-9.516951560974121,-1.3407529592514038,1.4628572463989258,8.8958740234375,-7.7362060546875,1.8463134765625
10.649999900000001,-9.567230224609375,-1.3646949529647827,1.558625340461731,8.392333984375,-4.8675537109375,6.195068359375
10.6699999,-9.672574996948242,-1.4293384552001953,1.5705963373184204,6.5765380859375,-3.173828125,8.97216796875
10.6899999,-9.780313491821289,-1.577778935432434,1.5682021379470825,8.3770751953125,-3.4637451171875,13.427734375
10.709999900000001,-9.799467086791992,-1.742978811264038,1.6304513216018677,7.62939453125,-7.354736328125,18.585205078125
10.729999900000001,-9.765948295593262,-1.7525556087493896,1.802833914756775,-5.8746337890625,-5.79833984375,24.0478515625
10.7499999,-9.672574996948242,-1.5418659448623657,2.0925323963165283,-23.4222412109375,0.885009765625,20.8892822265625
10.7699999,-9.593565940856934,-1.170764684677124,2.3726539611816406,-32.9742431640625,5.2490234375,16.448974609375
10.7899999,-9.583989143371582,-0.790086567401886,2.473210334777832,-30.1513671875,9.1400146484375,16.6015625
10.809999900000001,-9.653421401977539,-0.4165911078453064,2.3032219409942627,-22.9034423828125,8.6212158203125,15.7470703125
10.8299999,-9.816226959228516,-0.2513911724090576,1.9249382019042969,-14.3280029296875,6.744384765625,11.505126953125
10.8499999,-9.931148529052734,-0.15083470940589905,1.6160861253738403,-7.8887939453125,3.448486328125,6.622314453125
10.8699999,-9.959878921508789,-0.08140286058187485,1.3407529592514038,-14.6331787109375,2.2430419921875,4.57763671875
10.889999900000001,-9.959878921508789,-0.1149216815829277,1.2042834758758545,-26.885986328125,4.913330078125,2.685546875
10.9099999,-9.983820915222168,-0.31364041566848755,1.1061211824417114,-24.35302734375,3.753662109375,-0.5645751953125
10.9299999,-9.952696800231934,-0.5841852426528931,0.9074024558067322,-10.1165771484375,-0.5950927734375,-0.2288818359375
10.9499999,-10.029311180114746,-1.070208191871643,0.629675030708313,7.6751708984375,-5.8135986328125,5.55419921875
10.969999900000001,-10.050858497619629,-1.3096283674240112,0.4165911078453064,28.8238525390625,-15.80810546875,10.2081298828125
10.9899999,-10.036493301391602,-1.3718775510787964,0.5482721924781799,42.0379638671875,-23.712158203125,8.3160400390625
11.0099999,-9.950302124023438,-1.1468225717544556,1.0295066833496094,32.1807861328125,-20.233154296875,3.9520263671875
11.0299999,-9.75637149810791,-0.6943184733390808,1.7334020137786865,8.3160400390625,-10.3912353515625,-0.030517578125
11.049999900000001,-9.579200744628906,-0.395043283700943,2.5234885215759277,-10.7269287109375,1.40380859375,-0.8697509765625
11.069999900000001,-9.500192642211914,-0.15083470940589905,3.028665065765381,-21.636962890625,9.735107421875,3.5247802734375
11.0899999,-9.485827445983887,-0.12449848651885986,3.1244332790374756,-25.665283203125,12.847900390625,3.90625
11.1099999,-9.682151794433594,-0.17717093229293823,2.8443117141723633,-19.53125,13.85498046875,6.5155029296875
11.129999900000001,-9.801861763000488,-0.31364041566848755,2.2673089504241943,-8.85009765625,3.9520263671875,7.049560546875
11.149999900000001,-9.962273597717285,-0.4405331015586853,1.5514427423477173,1.6326904296875,-4.1656494140625,1.1749267578125
11.1699999,-10.02691650390625,-0.6129156351089478,0.9911994934082031,9.307861328125,-7.87353515625,-3.84521484375
11.1899999,-9.986215591430664,-0.7709329724311829,0.7805097699165344,8.941650390625,-3.692626953125,-2.6397705078125
11.209999900000001,-9.907206535339355,-0.7493851184844971,0.9265560507774353,-0.8697509765625,-0.274658203125,4.8675537109375
11.229999900000001,-9.780313491821289,-0.7493851184844971,1.2258312702178955,-9.7503662109375,1.4495849609375,3.5400390625
11.2499999,-9.835380554199219,-0.6200982332229614,1.5490485429763794,-6.195068359375,1.5411376953125,5.18798828125
11.2699999,-9.84256362915039,-0.5434837937355042,1.7357962131500244,4.4403076171875,-7.38525390625,3.173828125
11.2899999,-9.93593692779541,-0.5339069962501526,1.7741034030914307,12.0849609375,-9.3994140625,0.091552734375
11.309999900000001,-9.871294021606445,-0.49799394607543945,1.8411411046981812,13.275146484375,-6.3629150390625,-7.50732421875
11.3299999,-9.825803756713867,-0.3974374830722809,2.030282974243164,7.9803466796875,3.570556640625,-5.340576171875
11.3499999,-9.627084732055664,-0.2298433631658554,2.3798365592956543,-9.4451904296875,9.5062255859375,-1.6021728515625
11.3699999,-9.583989143371582,-0.08140286058187485,2.6791117191314697,-29.8309326171875,20.3399658203125,-0.6256103515625
11.389999900000001,-9.586383819580078,-0.05506663769483566,2.7916390895843506,-36.773681640625,18.8751220703125,0.3814697265625
11.4099999,-9.701305389404297,-0.2346317619085312,2.492363929748535,-25.970458984375,12.8173828125,-4.302978515625
11.4299999,-9.801861763000488,-0.43335050344467163,1.8986018896102905,-7.049560546875,7.7667236328125,-7.2021484375
11.4499999,-9.926360130310059,-0.6991068720817566,1.2018892765045166,8.0413818359375,8.36181640625,-11.6729736328125
11.469999900000001,-10.029311180114746,-0.9433154463768005,0.6536170840263367,15.899658203125,5.0506591796875,-6.866455078125
11.4899999,-10.034099578857422,-0.9768342971801758,0.35913026332855225,15.0604248046875,0.48828125,-6.2408447265625
11.5099999,-10.110713958740234,-1.0654197931289673,0.3064578175544739,13.18359375,-4.39453125,0.91552734375
11.5299999,-10.077195167541504,-0.9265560507774353,0.5171475410461426,13.427734375,-13.1072998046875,-2.288818359375
11.549999900000001,-10.019734382629395,-0.8834604024887085,0.8810662031173706,12.6190185546875,-12.908935546875,-5.096435546875
11.569999900000001,-9.835380554199219,-0.849941611289978,1.2832920551300049,8.9111328125,-8.48388671875,-9.4146728515625
11.5899999,-9.799467086791992,-0.8044517636299133,1.7525556087493896,6.6680908203125,-0.1678466796875,-3.6163330078125
11.6099999,-9.639056205749512,-0.8403648138046265,2.126051187515259,-0.67138671875,0.9307861328125,-0.0762939453125
11.629999900000001,-9.713275909423828,-0.7829039692878723,2.3271639347076416,-12.63427734375,8.6669921875,3.0059814453125
11.649999900000001,-9.677363395690918,-0.7733271718025208,2.3032219409942627,-16.1895751953125,3.753662109375,8.026123046875
11.6699999,-9.775525093078613,-0.8044517636299133,2.118868589401245,-8.4991455078125,-2.5482177734375,5.462646484375
11.6899999,-9.744400978088379,-0.912190854549408,1.7717092037200928,0.213623046875,-4.8828125,-0.54931640625
11.709999900000001,-9.821015357971191,-0.9241618514060974,1.4437036514282227,5.0811767578125,1.5106201171875,-2.9144287109375
11.729999900000001,-9.84256362915039,-0.8762778043746948,1.2761094570159912,9.1400146484375,-0.18310546875,2.2125244140625
11.7499999,-9.830592155456543,-0.6560112833976746,1.41257905960083,4.69970703125,-0.518798828125,0.5035400390625
11.7699999,-9.890447616577148,-0.3926490843296051,1.778891921043396,-14.0838623046875,5.9661865234375,5.1422119140625
11.7899999,-9.821015357971191,-0.1843535304069519,2.190694570541382,-33.99658203125,8.6669921875,1.6326904296875
11.809999900000001,-9.852140426635742,-0.24181437492370605,2.3343467712402344,-32.745361328125,9.429931640625,-1.6326904296875
11.8299999,-9.797073364257812,-0.45489832758903503,1.9823989868164062,-10.19287109375,6.9427490234375,-7.2174072265625
11.8499999,-9.916783332824707,-0.8475474119186401,1.381454348564148,16.3116455078125,4.2877197265625,-1.1138916015625
11.8699999,-9.876082420349121,-1.2401964664459229,0.6871358752250671,27.40478515625,-6.4544677734375,0.42724609375
11.889999900000001,-10.019734382629395,-1.2832920551300049,0.38307225704193115,26.336669921875,-6.3934326171875,4.21142578125
11.9099999,-9.93354320526123,-1.161187767982483,0.5386953949928284,18.6767578125,-12.9241943359375,5.9967041015625
11.9299999,-9.926360130310059,-0.7613561153411865,1.161187767982483,1.5716552734375,-9.8114013671875,1.77001953125
11.9499999,-9.730035781860352,-0.36152446269989014,1.9369091987609863,-20.843505859375,-0.0762939453125,-4.547119140625
11.969999900000001,-9.612719535827637,-0.1149216815829277,2.497152328491211,-30.1361083984375,14.83154296875,-6.7901611328125
11.9899999,-9.593565940856934,-0.15322890877723694,2.6815059185028076,-21.5301513671875,14.83154296875,-0.1678466796875
12.0099999,-9.605537414550781,-0.33518823981285095,2.403778553009033,-14.3585205078125,10.528564453125,-0.762939453125
12.0299999,-9.785101890563965,-0.7230489253997803,1.9033904075622559,-11.749267578125,10.25390625,6.072998046875
12.049999900000001,-9.921571731567383,-0.9552865028381348,1.3670891523361206,-5.462646484375,1.495361328125,6.0882568359375
12.069999900000001,-10.038887977600098,-1.1851298809051514,0.9768342971801758,6.622314453125,-5.889892578125,2.3040771484375
12.0899999,-9.99100399017334,-1.2042834758758545,0.7206547260284424,14.9993896484375,-7.3394775390625,-6.317138671875
12.1099999,-10.065223693847656,-1.0414776802062988,0.768538773059845,15.350341796875,-0.1983642578125,-2.7923583984375
12.129999900000001,-9.876082420349121,-0.8834604024887085,0.9864110946655273,6.591796875,-2.1209716796875,0.1983642578125
12.149999900000001,-9.897629737854004,-0.5171475410461426,1.3742717504501343,-6.0882568359375,3.7078857421875,0.457763671875
12.1699999,-9.792284965515137,-0.38307225704193115,1.7525556087493896,-14.6636962890625,1.800537109375,2.8076171875
12.1899999,-9.799467086791992,-0.304063618183136,1.9847931861877441,-16.78466796875,2.044677734375,1.007080078125
12.209999900000001,-9.739612579345703,-0.4812345504760742,1.9943699836730957,-9.9639892578125,1.495361328125,-1.89208984375
12.229999900000001,-9.758766174316406,-0.706289529800415,1.7860745191574097,3.5247802734375,3.7384033203125,-6.6680908203125
12.2499999,-9.797073364257812,-0.9026140570640564,1.5155296325683594,13.61083984375,3.814697265625,-0.396728515625
12.2699999,-9.797073364257812,-0.9289502501487732,1.256955862045288,7.9193115234375,0.640869140625,-1.0986328125
12.289999900000002,-9.921571731567383,-0.8523358106613159,1.161187767982483,-2.8839111328125,3.47900390625,2.166748046875
12.309999900000001,-9.952696800231934,-0.6943184733390808,1.237802267074585,-6.4544677734375,-3.72314453125,2.5177001953125
12.3299999,-9.974244117736816,-0.5961562395095825,1.4317326545715332,-6.7901611328125,-3.4332275390625,0.5340576171875
12.3499999,-9.86889934539795,-0.5961562395095825,1.6184803247451782,-8.3770751953125,-0.518798828125,-6.0272216796875
12.3699999,-9.818621635437012,-0.6991068720817566,1.7310078144073486,-5.3253173828125,8.1939697265625,-6.3629150390625
12.389999900000001,-9.739612579345703,-0.8331822156906128,1.7477672100067139,0.48828125,6.072998046875,0.701904296875
12.4099999,-9.72285270690918,-0.912190854549408,1.6208745241165161,-1.739501953125,5.3863525390625,0.2288818359375
12.4299999,-9.864110946655273,-0.8954314589500427,1.414973258972168,-4.974365234375,4.5318603515625,3.7078857421875
12.4499999,-9.947908401489258,-0.8188169598579407,1.1971008777618408,-0.091552734375,-4.69970703125,2.3956298828125
12.469999900000001,-10.065223693847656,-0.7948749661445618,0.9792284965515137,10.0860595703125,-10.8795166015625,0.2288818359375
12.4899999,-10.017339706420898,-0.8307880163192749,0.8307880163192749,17.913818359375,-14.22119140625,-8.0108642578125
12.5099999,-10.017339706420898,-0.8523358106613159,0.9696516990661621,19.1192626953125,-6.1187744140625,-5.1422119140625
12.5299999,-9.780313491821289,-0.811634361743927,1.3479355573654175,6.4239501953125,-3.7841796875,0.6256103515625
12.549999900000001,-9.725247383117676,-0.6799532771110535,1.7764976024627686,-13.763427734375,4.6234130859375,1.0986328125
12.569999900000001,-9.670180320739746,-0.6177040338516235,2.126051187515259,-22.979736328125,4.6539306640625,4.57763671875
12.5899999,-9.694122314453125,-0.5291185975074768,2.2649147510528564,-16.90673828125,1.5869140625,2.9449462890625
12.6099999,-9.758766174316406,-0.6392518281936646,2.1308395862579346,-6.866455078125,0.274658203125,1.0528564453125
12.629999900000001,-9.773131370544434,-0.7613561153411865,1.8076223134994507,1.434326171875,1.6326904296875,-7.0648193359375
12.649999900000001,-9.904812812805176,-0.828393816947937,1.4532804489135742,13.5650634765625,4.2572021484375,-3.143310546875
12.6699999,-9.854534149169922,-0.9026140570640564,1.1827356815338135,18.06640625,-3.7689208984375,-1.8310546875
12.6899999,-9.955090522766113,-0.8044517636299133,1.036689281463623,9.7198486328125,-0.4119873046875,-2.593994140625
12.709999900000001,-9.952696800231934,-0.6943184733390808,1.1324573755264282,-0.6866455078125,-2.25830078125,-0.5340576171875
12.729999900000001,-9.940725326538086,-0.6129156351089478,1.3311761617660522,-3.4637451171875,-5.4931640625,-1.46484375
12.7499999,-9.923966407775879,-0.6727706789970398,1.556231141090393,0.0152587890625,-5.218505859375,-1.2359619140625
12.7699999,-9.761159896850586,-0.8236053586006165,1.721431016921997,2.105712890625,-4.5623779296875,-6.2408447265625
12.789999900000002,-9.718064308166504,-0.9792284965515137,1.9081788063049316,4.5013427734375,4.5166015625,-3.84521484375
12.809999900000001,-9.603142738342285,-0.9792284965515137,2.1308395862579346,-1.2054443359375,6.8511962890625,2.86865234375
12.8299999,-9.617507934570312,-0.7972691655158997,2.296039342880249,-22.430419921875,12.3291015625,0.823974609375
12.8499999,-9.713275909423828,-0.6248866319656372,2.3056161403656006,-38.2232666015625,17.5323486328125,4.5623779296875
12.8699999,-9.837775230407715,-0.5817909836769104,1.9632453918457031,-31.0821533203125,9.857177734375,3.7384033203125
12.889999900000001,-10.007762908935547,-0.7015010714530945,1.338358759880066,-4.6844482421875,-0.3509521484375,1.6632080078125
12.9099999,-10.029311180114746,-0.9600749015808105,0.5889736413955688,21.42333984375,-11.688232421875,-7.01904296875
12.9299999,-10.144232749938965,-1.173158884048462,0.08140286058187485,38.26904296875,-11.0015869140625,-5.67626953125
12.9499999,-10.053253173828125,-1.1348515748977661,0.1388636976480484,35.614013671875,-14.2669677734375,-1.0528564453125
12.969999900000001,-9.923966407775879,-0.9002198576927185,0.6655880808830261,11.3983154296875,-9.21630859375,-2.044677734375
12.9899999,-9.86889934539795,-0.6440402865409851,1.4724340438842773,-15.9759521484375,-0.79345703125,0.30517578125
13.0099999,-9.742006301879883,-0.43095630407333374,2.207453966140747,-25.5279541015625,0,0.8392333984375
13.0299999,-9.715670585632324,-0.4165911078453064,2.647987127304077,-18.9208984375,2.01416015625,2.1820068359375
13.049999900000001,-9.607931137084961,-0.6823474764823914,2.6647465229034424,-10.894775390625,1.678466796875,-3.60107421875
13.069999900000001,-9.646238327026367,-0.8164227604866028,2.4444799423217773,-3.2501220703125,9.70458984375,-5.340576171875
13.0899999,-9.658209800720215,-1.0462661981582642,2.1332337856292725,2.532958984375,9.4451904296875,1.556396484375
13.1099999,-9.66299819946289,-0.9409212470054626,1.8052281141281128,-4.547119140625,8.392333984375,-0.42724609375
13.129999900000001,-9.835380554199219,-0.8690952062606812,1.5298948287963867,-13.36669921875,11.23046875,1.312255859375
13.149999900000001,-9.909601211547852,-0.7996633648872375,1.2186486721038818,-9.2010498046875,2.044677734375,-0.1068115234375
13.1699999,-10.04846477508545,-0.7757213711738586,0.9576807022094727,7.080078125,-4.3792724609375,-0.2899169921875
13.1899999,-10.041281700134277,-0.9624691009521484,0.790086567401886,16.7694091796875,-10.5438232421875,-5.43212890625
13.209999900000001,-10.02452278137207,-1.070208191871643,0.7709329724311829,17.6544189453125,-3.6773681640625,-6.7291259765625
13.229999900000001,-9.895236015319824,-1.0821791887283325,1.0606313943862915,11.444091796875,-0.7476806640625,-0.6866455078125
13.2499999,-9.787496566772461,-0.9600749015808105,1.4437036514282227,-3.4942626953125,1.0223388671875,-0.732421875
13.2699999,-9.768342971801758,-0.8020575642585754,1.7836803197860718,-17.669677734375,5.0201416015625,2.99072265625
13.289999900000002,-9.801861763000488,-0.7038952708244324,1.9536685943603516,-20.3704833984375,0.6866455078125,3.4637451171875
13.309999900000001,-9.86650562286377,-0.8020575642585754,1.889025092124939,-9.2926025390625,-1.3275146484375,3.173828125
13.3299999,-9.84256362915039,-1.036689281463623,1.5825673341751099,6.53076171875,-7.5836181640625,-1.28173828125
13.3499999,-9.856928825378418,-1.1420341730117798,1.2976573705673218,16.9525146484375,-4.0283203125,-2.5634765625
13.3699999,-9.852140426635742,-1.216254472732544,1.2018892765045166,16.815185546875,-3.60107421875,3.2806396484375
13.389999900000001,-9.821015357971191,-0.6967126727104187,1.6424223184585571,-17.791748046875,5.9661865234375,2.2735595703125
13.4099999,-9.799467086791992,-0.44771572947502136,1.9608511924743652,-24.2767333984375,2.5177001953125,2.044677734375
13.4299999,-9.825803756713867,-0.4692635238170624,1.9800047874450684,-16.571044921875,1.9989013671875,1.8768310546875
13.4499999,-9.799467086791992,-0.6584054827690125,1.7836803197860718,-0.1983642578125,-3.7841796875,-3.4637451171875
13.469999900000001,-9.854534149169922,-0.8643068075180054,1.482010841369629,17.486572265625,-2.25830078125,-8.148193359375
13.4899999,-9.84495735168457,-0.993593692779541,1.3407529592514038,23.98681640625,-1.77001953125,-2.44140625
13.5099999,-9.828198432922363,-0.9552865028381348,1.3503297567367554,9.246826171875,-1.739501953125,-2.13623046875
13.5299999,-9.840168952941895,-0.8020575642585754,1.556231141090393,-8.697509765625,5.6915283203125,-0.732421875
13.549999900000001,-9.804255485534668,-0.6991068720817566,1.745373010635376,-13.0615234375,0.1068115234375,0.1983642578125
13.569999900000001,-9.849745750427246,-0.7326257228851318,1.8411411046981812,-7.32421875,-0.54931640625,0.3814697265625
13.5899999,-9.80904483795166,-0.8236053586006165,1.7381904125213623,1.5411376953125,-4.638671875,-2.9296875
13.6099999,-9.856928825378418,-0.9888052940368652,1.558625340461731,11.871337890625,-2.6702880859375,-8.0718994140625
13.629999900000001,-9.847352027893066,-1.072602391242981,1.4317326545715332,17.0745849609375,-1.007080078125,-1.708984375
13.649999900000001,-9.780313491821289,-1.0438719987869263,1.4221558570861816,6.6680908203125,-3.875732421875,0.2899169921875
13.6699999,-9.832986831665039,-1.0630255937576294,1.4748282432556152,-8.9874267578125,3.23486328125,2.01416015625
13.6899999,-9.794678688049316,-0.9720458984375,1.6280571222305298,-10.284423828125,-1.8768310546875,4.5623779296875
13.709999900000001,-9.861717224121094,-0.9720458984375,1.6974890232086182,-2.6397705078125,-4.8980712890625,4.7760009765625
13.729999900000001,-9.921571731567383,-0.9888052940368652,1.6903064250946045,3.35693359375,-8.697509765625,2.1209716796875
13.7499999,-9.907206535339355,-0.9169792532920837,1.623268723487854,9.82666015625,-6.9732666015625,-5.645751953125
13.7699999,-9.959878921508789,-0.8667010068893433,1.656787633895874,14.984130859375,-0.54931640625,-2.166748046875
13.789999900000002,-9.883264541625977,-0.6536170840263367,1.8100165128707886,5.5084228515625,-2.4261474609375,-0.396728515625
13.809999900000001,-9.931148529052734,-0.5506663918495178,2.0207061767578125,-14.068603515625,5.9356689453125,-0.640869140625
13.8299999,-9.876082420349121,-0.40940847992897034,2.315192937850952,-21.9268798828125,5.828857421875,2.0904541015625
13.8499999,-9.8784761428833,-0.4836287498474121,2.470816135406494,-19.2413330078125,5.6304931640625,-0.2899169921875
13.8699999,-9.84495735168457,-0.5937620401382446,2.3989901542663574,-13.763427734375,7.3089599609375,-1.495361328125
13.889999900000001,-9.744400978088379,-1.0223240852355957,1.886630892753601,-6.1798095703125,7.904052734375,-6.500244140625
13.9099999,-9.785101890563965,-1.1994950771331787,1.4221558570861816,17.364501953125,5.9356689453125,-4.3487548828125
13.9299999,-9.706093788146973,-1.4101848602294922,0.9816226959228516,41.8853759765625,-5.7220458984375,-3.3721923828125
13.9499999,-9.746794700622559,-1.2425906658172607,1.0414776802062988,33.7677001953125,-2.9449462890625,-4.6844482421875
13.969999900000001,-9.727641105651855,-0.8690952062606812,1.4700398445129395,8.4381103515625,6.6375732421875,-6.317138671875
13.9899999,-9.684545516967773,-0.5195417404174805,2.0422539710998535,-10.894775390625,14.2059326171875,-6.2255859375
14.0099999,-9.636661529541016,-0.35913026332855225,2.3702597618103027,-20.1873779296875,18.4173583984375,-6.2713623046875
14.0299999,-9.703699111938477,-0.44532153010368347,2.3247697353363037,-19.134521484375,19.683837890625,-4.6234130859375
14.049999900000001,-9.837775230407715,-0.7541735172271729,1.9536685943603516,-9.4757080078125,13.73291015625,-3.96728515625
14.069999900000001,-10.134655952453613,-1.0893617868423462,1.4484920501708984,3.9215087890625,8.514404296875,-1.0223388671875
14.0899999,-10.54645824432373,-1.3407529592514038,1.0031704902648926,14.9078369140625,13.519287109375,2.2125244140625
14.1099999,-10.989385604858398,-1.4317326545715332,0.706289529800415,20.5841064453125,17.3492431640625,-4.5928955078125
14.129999900000001,-11.346121788024902,-1.3455413579940796,0.6105214357376099,24.8870849609375,11.7950439453125,-15.2740478515625
14.149999900000001,-11.417947769165039,-1.1683704853057861,0.6919242739677429,28.289794921875,6.1187744140625,-21.3165283203125
14.1699999,-11.171344757080078,-0.9433154463768005,0.8858546018600464,27.5115966796875,11.6729736328125,-19.2413330078125
14.1899999,-10.56800651550293,-0.7398083209991455,1.161187767982483,24.017333984375,16.6473388671875,-13.336181640625
14.209999900000001,-9.770736694335938,-0.5770025849342346,1.4628572463989258,19.256591796875,11.8865966796875,-4.9591064453125
14.229999900000001,-8.980650901794434,-0.4572925269603729,1.7286136150360107,14.1448974609375,4.5928955078125,5.4779052734375
14.2499999,-8.362946510314941,-0.38546648621559143,1.9345149993896484,7.843017578125,1.220703125,13.702392578125
14.2699999,-8.008605003356934,-0.38546648621559143,2.075772762298584,-0.701904296875,1.2969970703125,14.9688720703125
14.289999900000002,-7.972691535949707,-0.47165772318840027,2.1116859912872314,-8.7432861328125,-0.9918212890625,13.12255859375
14.309999900000001,-8.178592681884766,-0.6248866319656372,2.0446481704711914,-13.8092041015625,-8.6212158203125,12.4664306640625
14.3299999,-8.480262756347656,-0.8619126081466675,1.8555063009262085,-15.3045654296875,-12.1002197265625,11.4288330078125
14.3499999,-8.803479194641113,-1.1180921792984009,1.580173134803772,-12.6800537109375,-10.650634765625,12.664794921875
14.3699999,-9.062053680419922,-1.3479355573654175,1.2976573705673218,-7.110595703125,-12.359619140625,16.29638671875
14.389999900000001,-9.327810287475586,-1.50355863571167,1.0630255937576294,-2.38037109375,-10.6048583984375,17.791748046875
14.4099999,-9.619902610778809,-1.5394717454910278,0.912190854549408,-1.251220703125,-2.349853515625,11.41357421875
14.4299999,-9.895236015319824,-1.4963760375976562,0.8427590131759644,0.8544921875,1.861572265625,0.4425048828125
14.4499999,-10.101137161254883,-1.3910311460494995,0.828393816947937,4.1961669921875,-1.373291015625,-2.6397705078125
14.469999900000001,-10.168174743652344,-1.2641384601593018,0.8355764150619507,5.645751953125,-5.0048828125,3.7841796875
14.4899999,-10.086771965026855,-1.1563993692398071,0.8619126081466675,6.04248046875,-5.6304931640625,9.6588134765625
14.5099999,-9.916783332824707,-1.048660397529602,0.912190854549408,6.89697265625,-5.828857421875,12.420654296875
14.5299999,-10.230423927307129,-0.993593692779541,1.0247182846069336,5.9967041015625,-3.5247802734375,11.749267578125
14.549999900000001,-10.412383079528809,-0.9289502501487732,1.0773907899856567,0.7781982421875,5.4473876953125,-12.939453125
14.569999900000001,-10.8505220413208,-0.9313444495201111,1.1037269830703735,-1.953125,3.9825439453125,-4.5928955078125
14.5899999,-10.94150161743164,-0.8427590131759644,1.072602391242981,-1.312255859375,1.64794921875,6.500244140625
14.6099999,-10.687716484069824,-0.8212111592292786,0.9840168952941895,-0.9002685546875,-0.1678466796875,1.3885498046875
14.629999900000001,-10.362105369567871,-0.8379706144332886,0.9217676520347595,2.38037109375,0.3204345703125,2.4261474609375
14.649999900000001,-9.99339771270752,-0.9050082564353943,0.950498104095459,8.3160400390625,-6.77490234375,2.1209716796875
14.6699999,-9.821015357971191,-1.0199298858642578,1.0797849893569946,12.8936767578125,-7.6904296875,5.0048828125
14.6899999,-9.6989107131958,-1.072602391242981,1.2617442607879639,12.8021240234375,-4.1656494140625,7.904052734375
14.709999900000001,-9.674968719482422,-0.9481038451194763,1.436521053314209,8.758544921875,-1.861572265625,8.6517333984375
14.729999900000001,-9.6989107131958,-0.6727706789970398,1.5705963373184204,3.6773681640625,-3.0517578125,6.0882568359375
14.7499999,-9.75637149810791,-0.33039984107017517,1.6280571222305298,-4.33349609375,-4.058837890625,3.3721923828125
14.7699999,-9.832986831665039,-0.038307227194309235,1.6519991159439087,-12.4969482421875,-2.5634765625,1.983642578125
14.789999900000002,-9.873687744140625,0.08140286058187485,1.6496049165725708,-15.31982421875,-1.3427734375,0.8392333984375
14.809999900000001,-9.876082420349121,0.06703764945268631,1.6304513216018677,-13.031005859375,-1.7852783203125,-1.3427734375
14.8299999,-9.880870819091797,-0.08858546614646912,1.5705963373184204,-9.2926025390625,-2.2735595703125,-3.4332275390625
14.8499999,-9.888052940368652,-0.33518823981285095,1.414973258972168,-4.730224609375,-2.655029296875,-3.0059814453125
14.8699999,-9.914389610290527,-0.6033388376235962,1.2856862545013428,2.349853515625,-5.8135986328125,-1.068115234375
14.889999900000001,-9.90241813659668,-0.8403648138046265,1.2737152576446533,7.080078125,-8.8043212890625,1.1138916015625
14.9099999,-9.854534149169922,-0.9193734526634216,1.479616641998291,1.678466796875,-6.591796875,3.173828125
14.9299999,-9.782708168029785,-0.8427590131759644,1.7549498081207275,-13.824462890625,1.922607421875,3.11279296875
14.9499999,-9.739612579345703,-0.7445967197418213,1.9800047874450684,-22.125244140625,5.8746337890625,2.227783203125
14.969999900000001,-9.780313491821289,-0.6033388376235962,1.98958158493042,-18.7835693359375,1.8157958984375,3.173828125
14.9899999,-9.801861763000488,-0.6320692300796509,1.6376339197158813,-9.6282958984375,-1.190185546875,4.2724609375
15.0099999,-9.983820915222168,-0.6536170840263367,1.158793568611145,5.035400390625,-6.3934326171875,5.615234375
15.0299999,-10.041281700134277,-0.6584054827690125,0.7398083209991455,21.5606689453125,-19.2718505859375,5.218505859375
15.049999900000001,-10.074800491333008,-0.5410895943641663,0.6248866319656372,26.336669921875,-25.177001953125,1.708984375
15.069999900000001,-10.050858497619629,-0.33758243918418884,0.9145850539207458,16.876220703125,-22.5830078125,-1.6937255859375
15.0899999,-9.854534149169922,-0.13168109953403473,1.534683346748352,2.685546875,-15.4266357421875,-8.72802734375
15.1099999,-9.715670585632324,-0.021547814831137657,2.3535003662109375,-6.5765380859375,-3.3111572265625,-8.3160400390625
15.129999900000001,-9.57201862335205,-0.0694318488240242,3.07415509223938,-13.73291015625,5.9661865234375,-1.129150390625
15.149999900000001,-9.452308654785156,-0.2513911724090576,3.529053211212158,-20.111083984375,14.0838623046875,0.9613037109375
15.1699999,-9.493009567260742,-0.45250412821769714,3.603273630142212,-20.4620361328125,22.9949951171875,4.82177734375
15.1899999,-9.519346237182617,-0.5578489899635315,3.2776620388031006,-15.899658203125,17.9595947265625,5.4473876953125
15.209999900000001,-9.655815124511719,-0.5722141861915588,2.6862943172454834,-13.3514404296875,14.9383544921875,2.044677734375
15.229999900000001,-9.765948295593262,-0.5171475410461426,1.9297266006469727,-9.2315673828125,11.0015869140625,-4.638671875
15.2499999,-9.892841339111328,-0.40701428055763245,1.2856862545013428,-0.8697509765625,12.20703125,-9.5977783203125
15.2699999,-9.950302124023438,-0.3998316824436188,0.8882488012313843,5.3558349609375,9.6588134765625,-5.9356689453125
15.289999900000002,-9.93354320526123,-0.3208230137825012,0.7709329724311829,-3.1890869140625,7.049560546875,-6.6680908203125
15.309999900000001,-10.02691650390625,-0.4189853072166443,0.7852981686592102,-12.664794921875,11.16943359375,-2.3345947265625
15.3299999,-10.007762908935547,-0.5554547905921936,0.849941611289978,-8.48388671875,1.9073486328125,-0.701904296875
15.3499999,-10.070012092590332,-0.8331822156906128,0.7829039692878723,8.1634521484375,-7.1258544921875,-0.5645751953125
15.3699999,-10.010157585144043,-1.137245774269104,0.6775590777397156,23.8037109375,-14.7552490234375,-3.7841796875
15.389999900000001,-9.983820915222168,-1.3407529592514038,0.6320692300796509,31.55517578125,-10.711669921875,-4.4097900390625
15.4099999,-9.904812812805176,-1.2952631711959839,0.8403648138046265,30.487060546875,-11.016845703125,0.8697509765625
15.4299999,-9.806650161743164,-0.933738648891449,1.2689268589019775,15.8233642578125,-11.1846923828125,1.15966796875
15.4499999,-9.823410034179688,-0.5195417404174805,1.8267759084701538,-7.2479248046875,-3.1890869140625,5.340576171875
15.469999900000001,-9.761159896850586,-0.11252748221158981,2.27209734916687,-23.3306884765625,-2.9449462890625,3.23486328125
15.4899999,-9.794678688049316,-0.028730420395731926,2.4875755310058594,-22.064208984375,-3.2501220703125,0.2288818359375
15.5099999,-9.72285270690918,-0.12928688526153564,2.427720546722412,-11.3067626953125,-6.591796875,-5.4779052734375
15.5299999,-9.749189376831055,-0.4620809257030487,2.123656988143921,0.2288818359375,1.312255859375,-4.9896240234375
15.549999900000001,-9.72285270690918,-0.7015010714530945,1.8531121015548706,9.4757080078125,0.8697509765625,-0.732421875
15.569999900000001,-9.75637149810791,-0.8547300100326538,1.625662922859192,10.8184814453125,-1.129150390625,-1.434326171875
15.5899999,-9.861717224121094,-0.8403648138046265,1.5705963373184204,7.3089599609375,-1.2969970703125,4.6844482421875
15.6099999,-9.871294021606445,-0.7230489253997803,1.6304513216018677,3.143310546875,-4.974365234375,3.936767578125
15.629999900000001,-9.93593692779541,-0.6153098344802856,1.8148049116134644,0.79345703125,-3.814697265625,0.79345703125
15.649999900000001,-9.78989028930664,-0.5386953949928284,1.9967641830444336,-2.685546875,-3.5858154296875,-6.65283203125
15.6699999,-9.775525093078613,-0.5434837937355042,2.0877439975738525,-2.349853515625,7.354736328125,-3.5400390625
15.6899999,-9.667786598205566,-0.5339069962501526,2.145204782485962,-0.4119873046875,7.32421875,0.8392333984375
15.709999900000001,-9.701305389404297,-0.5626373887062073,2.0470423698425293,-3.90625,9.1705322265625,0.152587890625
15.729999900000001,-9.749189376831055,-0.569819986820221,1.9153614044189453,-6.805419921875,5.92041015625,5.706787109375
15.7499999,-9.821015357971191,-0.5171475410461426,1.7573440074920654,-5.43212890625,-0.6866455078125,3.692626953125
15.7699999,-9.923966407775879,-0.5722141861915588,1.6352397203445435,-2.25830078125,-2.86865234375,0.06103515625
15.789999900000002,-9.852140426635742,-0.5147533416748047,1.525106430053711,-1.9378662109375,-2.471923828125,-7.537841796875
15.809999900000001,-9.947908401489258,-0.5770025849342346,1.4867992401123047,1.8157958984375,5.5999755859375,-3.265380859375
15.8299999,-9.80904483795166,-0.6200982332229614,1.558625340461731,3.7078857421875,1.2664794921875,1.03759765625
15.8499999,-9.787496566772461,-0.629675030708313,1.6663644313812256,-5.523681640625,5.828857421875,1.8310546875
15.869999900000002,-9.749189376831055,-0.6177040338516235,1.764526605606079,-14.556884765625,5.0201416015625,4.9285888671875
15.889999900000001,-9.799467086791992,-0.5650315880775452,1.7381904125213623,-9.796142578125,-0.1678466796875,2.166748046875
15.9099999,-9.885659217834473,-0.629675030708313,1.6184803247451782,5.5389404296875,-6.256103515625,-0.274658203125
15.9299999,-9.895236015319824,-0.689530074596405,1.3431471586227417,16.2506103515625,-9.0179443359375,-7.2479248046875
15.9499999,-10.012551307678223,-0.8140285611152649,1.1516109704971313,22.7508544921875,-3.6163330078125,-3.4332275390625
15.969999900000001,-9.895236015319824,-0.8092401623725891,1.1635819673538208,21.8048095703125,-9.613037109375,-1.3580322265625
15.9899999,-9.885659217834473,-0.6919242739677429,1.400607943534851,9.368896484375,-5.0048828125,0.9307861328125
16.0099999,-9.770736694335938,-0.49320554733276367,1.8267759084701538,-6.1187744140625,-2.9144287109375,6.53076171875
16.0299999,-9.737217903137207,-0.304063618183136,2.248155355453491,-14.09912109375,-1.434326171875,3.23486328125
16.0499999,-9.718064308166504,-0.24899697303771973,2.5665841102600098,-13.9617919921875,-0.762939453125,-0.5340576171875
16.0699999,-9.648633003234863,-0.3519476354122162,2.5546131134033203,-11.260986328125,0.823974609375,-6.7596435546875
16.089999900000002,-9.782708168029785,-0.5482721924781799,2.3582887649536133,-4.0435791015625,9.521484375,-1.40380859375
16.109999900000002,-9.708487510681152,-0.6919242739677429,2.073378562927246,1.556396484375,3.5400390625,1.03759765625
16.1299999,-9.782708168029785,-0.8427590131759644,1.778891921043396,-1.9378662109375,5.096435546875,1.4801025390625
16.1499999,-9.835380554199219,-0.7206547260284424,1.5682021379470825,-6.7291259765625,1.678466796875,6.2408447265625
16.1699999,-9.873687744140625,-0.6200982332229614,1.434126853942871,-4.180908203125,-3.173828125,2.6397705078125
16.1899999,-9.959878921508789,-0.5051765441894531,1.403002142906189,2.13623046875,-6.28662109375,-1.739501953125
16.2099999,-9.859322547912598,-0.4620809257030487,1.482010841369629,6.7901611328125,-8.0413818359375,-10.6353759765625
16.2299999,-9.892841339111328,-0.42856210470199585,1.6615760326385498,9.765625,2.25830078125,-6.622314453125
16.249999900000002,-9.706093788146973,-0.4908113479614258,2.0661959648132324,3.0517578125,3.9520263671875,-1.7242431640625
16.269999900000002,-9.653421401977539,-0.5123591423034668,2.33913516998291,-13.2598876953125,11.5509033203125,-1.03759765625
16.2899999,-9.612719535827637,-0.49320554733276367,2.518700122833252,-20.93505859375,13.7786865234375,3.2958984375
16.3099999,-9.677363395690918,-0.5650315880775452,2.4588451385498047,-14.4805908203125,8.3465576171875,2.532958984375
16.3299999,-9.794678688049316,-0.5602431893348694,2.1787235736846924,-6.3323974609375,5.126953125,0.6256103515625
16.3499999,-9.825803756713867,-0.6631938815116882,1.7477672100067139,-3.143310546875,2.655029296875,-7.9803466796875
16.3699999,-9.983820915222168,-0.7589619159698486,1.338358759880066,4.39453125,8.0108642578125,-6.6375732421875
16.3899999,-9.9000244140625,-0.7398083209991455,1.0654197931289673,10.4217529296875,-0.0457763671875,-3.1585693359375
16.4099999,-9.93354320526123,-0.7924807667732239,0.9265560507774353,5.0201416015625,-0.3509521484375,-3.7078857421875
16.429999900000002,-9.940725326538086,-0.7445967197418213,1.0055646896362305,0.5645751953125,-0.030517578125,0.3814697265625
16.4499999,-9.916783332824707,-0.7422025203704834,1.1563993692398071,4.2572021484375,-6.378173828125,0.2593994140625
16.4699999,-9.974244117736816,-0.7948749661445618,1.3527239561080933,8.3465576171875,-9.124755859375,0.1983642578125
16.4899999,-9.852140426635742,-0.849941611289978,1.4748282432556152,9.765625,-12.1002197265625,-5.584716796875
16.5099999,-9.835380554199219,-0.8451532125473022,1.6831238269805908,12.3443603515625,-2.62451171875,-5.096435546875
16.5299999,-9.715670585632324,-0.7852981686592102,2.032677173614502,6.28662109375,-0.5950927734375,0.152587890625
16.5499999,-9.59835433959961,-0.5410895943641663,2.449268341064453,-15.93017578125,5.8135986328125,-0.2593994140625
16.5699999,-9.605537414550781,-0.40940847992897034,2.7988216876983643,-37.353515625,17.4407958984375,3.509521484375
16.589999900000002,-9.617507934570312,-0.3758896589279175,2.719813108444214,-37.7044677734375,14.2974853515625,2.8533935546875
16.609999900000002,-9.780313491821289,-0.5315127968788147,2.2361843585968018,-15.3350830078125,6.011962890625,1.7852783203125
16.6299999,-9.840168952941895,-0.9097966551780701,1.4460978507995605,11.90185546875,-6.3323974609375,-4.180908203125
16.6499999,-10.002974510192871,-1.1324573755264282,0.6871358752250671,33.02001953125,-5.157470703125,-5.06591796875
16.6699999,-10.014945983886719,-1.2473790645599365,0.3758896589279175,41.44287109375,-9.521484375,-0.0152587890625
16.6899999,-9.955090522766113,-0.9648633003234863,0.6057330369949341,27.3895263671875,-12.2833251953125,-1.46484375
16.7099999,-9.931148529052734,-0.5793967843055725,1.1875240802764893,-0.6561279296875,-2.7923583984375,0.152587890625
16.7299999,-9.81143856048584,-0.2346317619085312,1.941697597503662,-21.1639404296875,-0.732421875,-0.3814697265625
16.749999900000002,-9.773131370544434,-0.0071826050989329815,2.4827871322631836,-24.0631103515625,3.41796875,-2.6092529296875
16.769999900000002,-9.655815124511719,-0.2082955539226532,2.7030537128448486,-16.082763671875,0.3814697265625,-6.3629150390625
16.7899999,-9.63187313079834,-0.5530605912208557,2.5091233253479004,-4.8828125,6.744384765625,-8.72802734375
16.8099999,-9.672574996948242,-0.9433154463768005,2.1763293743133545,6.622314453125,8.9263916015625,-1.2054443359375
16.8299999,-9.682151794433594,-1.2473790645599365,1.7980455160140991,8.0413818359375,1.9378662109375,-0.30517578125
16.8499999,-9.835380554199219,-1.213860273361206,1.53707754611969,0.1983642578125,5.706787109375,3.0975341796875
16.8699999,-9.856928825378418,-1.1037269830703735,1.3551181554794312,-3.0670166015625,0.030517578125,5.1422119140625
16.8899999,-9.974244117736816,-0.8619126081466675,1.2761094570159912,2.2430419921875,-3.5858154296875,1.983642578125
16.9099999,-9.892841339111328,-0.7422025203704834,1.2880805730819702,8.3465576171875,-9.735107421875,-3.35693359375
16.929999900000002,-9.904812812805176,-0.6536170840263367,1.3407529592514038,9.33837890625,-5.92041015625,-8.9111328125
16.9499999,-9.859322547912598,-0.6871358752250671,1.5155296325683594,8.087158203125,1.9378662109375,-2.9144287109375
16.9699999,-9.75637149810791,-0.7110779285430908,1.7812861204147339,1.9683837890625,-1.6021728515625,-1.861572265625
16.9899999,-9.785101890563965,-0.6919242739677429,1.987187385559082,-7.7972412109375,4.302978515625,1.0833740234375
17.0099999,-9.701305389404297,-0.7374141216278076,2.2194249629974365,-14.892578125,3.41796875,5.9814453125
17.0299999,-9.763554573059082,-0.7230489253997803,2.1739351749420166,-13.4429931640625,2.5787353515625,3.570556640625
17.0499999,-9.780313491821289,-0.7972691655158997,2.073378562927246,-3.6468505859375,-2.25830078125,0.3509521484375
17.0699999,-9.758766174316406,-0.912190854549408,1.766920804977417,7.0343017578125,-4.0740966796875,-5.950927734375
17.089999900000002,-9.883264541625977,-0.9002198576927185,1.5083470344543457,13.885498046875,1.7242431640625,-0.9307861328125
17.109999900000002,-9.792284965515137,-0.9145850539207458,1.434126853942871,10.5133056640625,-3.082275390625,-0.0762939453125
17.1299999,-9.86889934539795,-0.7254431247711182,1.5083470344543457,-1.0833740234375,1.556396484375,-0.6866455078125
17.1499999,-9.780313491821289,-0.6224924325942993,1.7070658206939697,-8.1787109375,1.2664794921875,2.960205078125
17.1699999,-9.84256362915039,-0.47884035110473633,1.86508309841156,-6.3018798828125,-1.5716552734375,1.3275146484375
17.1899999,-9.84495735168457,-0.5793967843055725,1.965639591217041,-1.1444091796875,-2.777099609375,-0.9765625
17.2099999,-9.765948295593262,-0.7206547260284424,1.9776105880737305,3.72314453125,-4.8980712890625,-7.2021484375
17.2299999,-9.78989028930664,-0.849941611289978,1.965639591217041,6.2255859375,4.8370361328125,-3.4332275390625
17.249999900000002,-9.684545516967773,-0.9193734526634216,1.920149803161621,-8.3770751953125,6.561279296875,-0.0152587890625
17.269999900000002,-9.787496566772461,-0.8259995579719543,1.889025092124939,-12.542724609375,6.2103271484375,3.11279296875
17.2899999,-9.840168952941895,-0.7158663272857666,1.699883222579956,-6.1492919921875,-1.4190673828125,3.4332275390625
17.3099999,-9.986215591430664,-0.7326257228851318,1.5322890281677246,4.364013671875,-4.9896240234375,2.227783203125
17.3299999,-9.909601211547852,-0.7996633648872375,1.3503297567367554,12.725830078125,-11.77978515625,-5.126953125
17.3499999,-9.892841339111328,-0.8044517636299133,1.3838485479354858,15.6707763671875,-4.57763671875,-5.3863525390625
17.3699999,-9.782708168029785,-0.8355764150619507,1.5490485429763794,8.6822509765625,-0.5950927734375,0.7171630859375
17.3899999,-9.641449928283691,-0.706289529800415,1.8507179021835327,-5.1422119140625,0.5645751953125,-0.42724609375
17.409999900000003,-9.682151794433594,-0.6799532771110535,2.140416383743286,-15.5792236328125,7.2784423828125,1.4190673828125
17.429999900000002,-9.670180320739746,-0.6248866319656372,2.2816741466522217,-15.56396484375,2.3651123046875,3.082275390625
17.4499999,-9.761159896850586,-0.7254431247711182,2.2146365642547607,-8.0718994140625,2.13623046875,3.8909912109375
17.4699999,-9.773131370544434,-0.8355764150619507,2.027888774871826,2.3956298828125,-3.5858154296875,-1.5106201171875
17.4899999,-9.818621635437012,-0.9457096457481384,1.8148049116134644,11.5203857421875,0.1678466796875,-5.4168701171875
17.5099999,-9.835380554199219,-0.9600749015808105,1.6376339197158813,11.8560791015625,3.1585693359375,0.4730224609375
17.5299999,-9.775525093078613,-0.849941611289978,1.6208745241165161,1.617431640625,-0.1220703125,-0.152587890625
17.5499999,-9.86889934539795,-0.646434485912323,1.6735470294952393,-9.8114013671875,6.378173828125,-0.579833984375
17.5699999,-9.78989028930664,-0.5746083855628967,1.721431016921997,-9.5977783203125,0.4119873046875,0.8697509765625
17.589999900000002,-9.864110946655273,-0.49799394607543945,1.7549498081207275,-1.5411376953125,-2.166748046875,1.03759765625
17.609999900000002,-9.871294021606445,-0.6967126727104187,1.742978811264038,6.9122314453125,-5.706787109375,-1.2359619140625
17.6299999,-9.794678688049316,-0.849941611289978,1.7310078144073486,11.3525390625,-3.96728515625,-6.3629150390625
17.6499999,-9.837775230407715,-0.9648633003234863,1.7980455160140991,8.6669921875,4.1046142578125,-1.953125
17.6699999,-9.68933391571045,-0.9624691009521484,1.941697597503662,-3.448486328125,2.960205078125,1.5716552734375
17.6899999,-9.730035781860352,-0.8810662031173706,2.0183119773864746,-17.2271728515625,9.9334716796875,1.89208984375
17.7099999,-9.725247383117676,-0.768538773059845,2.1045033931732178,-18.7835693359375,6.9427490234375,5.035400390625
17.7299999,-9.773131370544434,-0.6799532771110535,1.965639591217041,-12.02392578125,1.2969970703125,3.753662109375
17.749999900000002,-9.921571731567383,-0.7326257228851318,1.7549498081207275,-0.8392333984375,-2.227783203125,1.52587890625
17.769999900000002,-9.885659217834473,-0.8236053586006165,1.4748282432556152,11.993408203125,-7.3089599609375,-4.9896240234375
17.7899999,-9.919178009033203,-0.8882488012313843,1.3455413579940796,21.17919921875,-1.6021728515625,-3.6773681640625
17.8099999,-9.830592155456543,-0.9241618514060974,1.41257905960083,15.960693359375,-2.38037109375,1.739501953125
17.8299999,-9.749189376831055,-0.7541735172271729,1.702277421951294,-3.5552978515625,2.25830078125,-0.30517578125
17.8499999,-9.782708168029785,-0.6943184733390808,1.9847931861877441,-16.815185546875,8.0718994140625,2.7618408203125
17.8699999,-9.758766174316406,-0.507570743560791,2.1763293743133545,-14.70947265625,1.922607421875,1.6632080078125
17.8899999,-9.864110946655273,-0.586579442024231,2.051830768585205,-3.7384033203125,-0.3509521484375,1.15966796875
17.909999900000003,-9.813833236694336,-0.7350199222564697,1.7764976024627686,9.185791015625,-7.1258544921875,-4.364013671875
17.929999900000002,-9.818621635437012,-0.8738836050033569,1.5275006294250488,18.890380859375,-3.6773681640625,-7.0648193359375
17.9499999,-9.806650161743164,-0.9840168952941895,1.4389152526855469,18.00537109375,-1.617431640625,-0.396728515625
17.9699999,-9.66539192199707,-0.8667010068893433,1.6424223184585571,4.150390625,-2.50244140625,0.5645751953125
17.9899999,-9.758766174316406,-0.6847416758537292,1.9249382019042969,-12.5274658203125,7.598876953125,1.6326904296875
18.0099999,-9.684545516967773,-0.5339069962501526,2.205059766769409,-18.890380859375,3.753662109375,2.5634765625
18.0299999,-9.780313491821289,-0.4429273009300232,2.2002713680267334,-14.7857666015625,2.2735595703125,2.166748046875
18.0499999,-9.84256362915039,-0.6177040338516235,2.070984363555908,-1.800537109375,-3.021240234375,-0.5340576171875
18.0699999,-9.84256362915039,-0.7398083209991455,1.778891921043396,10.0250244140625,-2.99072265625,-6.744384765625
18.089999900000002,-9.914389610290527,-0.9624691009521484,1.5658079385757446,13.8092041015625,2.0751953125,-2.410888671875
18.109999900000002,-9.816226959228516,-0.9696516990661621,1.522712230682373,7.965087890625,-1.5716552734375,0.8087158203125
18.1299999,-9.821015357971191,-0.9265560507774353,1.577778935432434,-3.9825439453125,2.960205078125,0.8697509765625
18.1499999,-9.799467086791992,-0.8379706144332886,1.7286136150360107,-9.5672607421875,1.739501953125,2.716064453125
18.1699999,-9.78989028930664,-0.7110779285430908,1.8411411046981812,-6.378173828125,-2.6702880859375,0.6866455078125
18.1899999,-9.895236015319824,-0.730231523513794,1.867477297782898,2.9144287109375,-4.730224609375,0.8392333984375
18.2099999,-9.761159896850586,-0.8212111592292786,1.845929503440857,11.5814208984375,-7.5836181640625,-4.7607421875
18.2299999,-9.785101890563965,-0.8355764150619507,1.8339585065841675,14.0380859375,1.739501953125,-3.4027099609375
18.249999900000002,-9.670180320739746,-0.8571242094039917,1.8818424940109253,7.8277587890625,1.678466796875,1.617431640625
18.269999900000002,-9.646238327026367,-0.6727706789970398,2.0877439975738525,-7.75146484375,3.692626953125,0.732421875
18.2899999,-9.706093788146973,-0.5099649429321289,2.2409727573394775,-22.8271484375,10.2386474609375,4.3182373046875
18.3099999,-9.732429504394531,-0.4836287498474121,2.31758713722229,-24.9481201171875,5.9051513671875,3.0517578125
18.3299999,-9.840168952941895,-0.569819986820221,2.1475989818573,-13.916015625,4.45556640625,3.5858154296875
18.3499999,-9.81143856048584,-0.8547300100326538,1.8291701078414917,2.8228759765625,-3.8604736328125,-0.732421875
18.3699999,-9.888052940368652,-1.0630255937576294,1.4077905416488647,15.0604248046875,-0.9613037109375,-3.4027099609375
18.3899999,-9.864110946655273,-1.0821791887283325,1.213860273361206,17.7459716796875,-0.30517578125,0.8697509765625
18.409999900000003,-9.801861763000488,-0.9193734526634216,1.213860273361206,9.002685546875,-4.150390625,0.0152587890625
18.429999900000002,-9.84495735168457,-0.5961562395095825,1.4987702369689941,-7.1868896484375,2.4566650390625,1.0833740234375
18.4499999,-9.75637149810791,-0.43335050344467163,1.8579005002975464,-15.0146484375,0.4119873046875,0.7781982421875
18.4699999,-9.832986831665039,-0.33997663855552673,2.0901381969451904,-11.0321044921875,0.6103515625,0.6103515625
18.4899999,-9.832986831665039,-0.6057330369949341,2.188300371170044,-2.3193359375,-2.7923583984375,0.0762939453125
18.5099999,-9.773131370544434,-0.8571242094039917,2.032677173614502,6.1187744140625,-2.7313232421875,-5.2337646484375
18.5299999,-9.830592155456543,-1.0893617868423462,1.8818424940109253,10.833740234375,5.2337646484375,-0.213623046875
18.5499999,-9.696516990661621,-1.0965443849563599,1.7884687185287476,5.37109375,2.716064453125,2.8228759765625
18.5699999,-9.75637149810791,-0.9361328482627869,1.7956513166427612,-7.0648193359375,5.37109375,1.5411376953125
18.589999900000002,-9.744400978088379,-0.730231523513794,1.8052281141281128,-12.298583984375,3.662109375,3.204345703125
18.609999900000002,-9.799467086791992,-0.5793967843055725,1.778891921043396,-6.1187744140625,-1.9378662109375,0.5645751953125
18.6299999,-9.904812812805176,-0.5937620401382446,1.647210717201233,5.2490234375,-5.706787109375,0.4119873046875
18.6499999,-9.837775230407715,-0.6967126727104187,1.5059528350830078,14.434814453125,-11.505126953125,-6.77490234375
18.6699999,-9.86889934539795,-0.7637503147125244,1.5131354331970215,18.7225341796875,-2.0294189453125,-6.16455078125
18.6899999,-9.75637149810791,-0.7541735172271729,1.6927006244659424,12.664794921875,0.1983642578125,0.06103515625
18.7099999,-9.684545516967773,-0.6440402865409851,2.10210919380188,-5.18798828125,2.74658203125,-0.1678466796875
18.7299999,-9.749189376831055,-0.524330198764801,2.4636335372924805,-22.9034423828125,11.962890625,2.5482177734375
18.749999900000002,-9.682151794433594,-0.43095630407333374,2.6623523235321045,-27.0233154296875,9.033203125,0.91552734375
18.769999900000002,-9.794678688049316,-0.5506663918495178,2.5091233253479004,-19.71435546875,8.4991455078125,1.5411376953125
18.7899999,-9.732429504394531,-0.727837324142456,2.0614075660705566,-3.35693359375,0.30517578125,-2.8228759765625
18.8099999,-9.828198432922363,-0.9433154463768005,1.534683346748352,13.1072998046875,0.946044921875,-6.6986083984375
18.8299999,-9.871294021606445,-1.113303780555725,1.1061211824417114,19.439697265625,1.220703125,-1.373291015625
18.8499999,-9.873687744140625,-1.0558429956436157,0.9457096457481384,15.045166015625,-5.157470703125,0.701904296875
18.8699999,-9.943120002746582,-0.9696516990661621,1.0319008827209473,5.859375,-1.983642578125,2.716064453125
18.8899999,-9.86889934539795,-0.7541735172271729,1.3024457693099976,0.1068115234375,-5.859375,2.0904541015625
18.909999900000003,-9.84256362915039,-0.6392518281936646,1.580173134803772,0.579833984375,-6.561279296875,-0.579833984375
18.929999900000002,-9.86889934539795,-0.5650315880775452,1.8602946996688843,3.2196044921875,-8.026123046875,-0.48828125
18.9499999,-9.710882186889648,-0.608127236366272,2.0422539710998535,7.476806640625,-7.5836181640625,-7.1563720703125
18.9699999,-9.734824180603027,-0.667982280254364,2.1547815799713135,8.7738037109375,3.84521484375,-3.814697265625
18.9899999,-9.658209800720215,-0.667982280254364,2.389413356781006,-1.3427734375,4.669189453125,0.9918212890625
19.0099999,-9.639056205749512,-0.6607996821403503,2.4612393379211426,-17.2882080078125,9.2010498046875,2.0294189453125
19.0299999,-9.72285270690918,-0.6200982332229614,2.542642116546631,-23.5595703125,12.237548828125,5.1116943359375
19.0499999,-9.758766174316406,-0.646434485912323,2.343923568725586,-17.791748046875,5.67626953125,1.2359619140625
19.0699999,-9.892841339111328,-0.7230489253997803,1.9728221893310547,-6.53076171875,2.593994140625,1.251220703125
19.089999900000002,-9.873687744140625,-0.9289502501487732,1.37906014919281,9.8419189453125,-6.1798095703125,-5.096435546875
19.109999900000002,-9.947908401489258,-0.9888052940368652,0.933738648891449,28.564453125,-4.364013671875,-6.9732666015625
19.1299999,-9.907206535339355,-1.036689281463623,0.7565677165985107,34.85107421875,-7.9345703125,-2.8533935546875
19.1499999,-9.837775230407715,-0.8188169598579407,0.9552865028381348,22.796630859375,-10.2386474609375,-2.0599365234375
19.1699999,-9.847352027893066,-0.5817909836769104,1.5753847360610962,0.518798828125,-1.1444091796875,0.42724609375
19.1899999,-9.72285270690918,-0.35913026332855225,2.2242133617401123,-15.5792236328125,-0.2593994140625,-1.617431640625
19.2099999,-9.730035781860352,-0.363918662071228,2.7269957065582275,-21.6217041015625,4.1351318359375,-1.434326171875
19.2299999,-9.658209800720215,-0.6009446382522583,2.851494312286377,-16.632080078125,2.44140625,-1.8768310546875
19.249999900000002,-9.643844604492188,-0.9983820915222168,2.583343744277954,-3.1890869140625,5.06591796875,-4.150390625
19.269999900000002,-9.725247383117676,-1.2473790645599365,2.183511972427368,7.1868896484375,8.819580078125,2.197265625
19.2899999,-9.68694019317627,-1.316810965538025,1.8267759084701538,4.1046142578125,2.9296875,3.9215087890625
19.3099999,-9.799467086791992,-1.113303780555725,1.5969325304031372,-7.568359375,6.134033203125,3.5858154296875
19.3299999,-9.797073364257812,-0.790086567401886,1.5059528350830078,-13.3514404296875,2.3651123046875,3.5552978515625
19.3499999,-9.861717224121094,-0.6033388376235962,1.4844050407409668,-7.7362060546875,-3.35693359375,-1.2969970703125
19.3699999,-9.945513725280762,-0.5099649429321289,1.4293384552001953,1.922607421875,-6.622314453125,-1.77001953125
19.3899999,-9.856928825378418,-0.6512228846549988,1.45806884765625,9.8876953125,-8.8958740234375,-7.5836181640625
19.409999900000003,-9.876082420349121,-0.811634361743927,1.5466543436050415,15.2435302734375,0.701904296875,-6.011962890625
19.429999900000002,-9.737217903137207,-0.8786720037460327,1.8076223134994507,10.3912353515625,0.9307861328125,0.3204345703125
19.4499999,-9.667786598205566,-0.8427590131759644,2.078166961669922,-6.103515625,5.0201416015625,1.2359619140625
19.4699999,-9.720458984375,-0.7398083209991455,2.3247697353363037,-16.8609619140625,8.4381103515625,3.7994384765625
19.4899999,-9.696516990661621,-0.6248866319656372,2.3726539611816406,-15.5487060546875,2.9449462890625,-0.6866455078125
19.5099999,-9.852140426635742,-0.6655880808830261,2.1547815799713135,-6.8206787109375,1.8157958984375,1.0223388671875
19.5299999,-9.832986831665039,-0.7852981686592102,1.821987509727478,5.67626953125,-5.7220458984375,-3.9825439453125
19.5499999,-9.871294021606445,-0.9696516990661621,1.4891934394836426,15.4266357421875,-1.64794921875,-6.134033203125
19.5699999,-9.859322547912598,-1.0462661981582642,1.400607943534851,16.0675048828125,0.8392333984375,0.0457763671875
19.589999900000002,-9.739612579345703,-0.9600749015808105,1.5275006294250488,4.364013671875,-0.7476806640625,2.5634765625
19.609999900000002,-9.80904483795166,-0.8427590131759644,1.7956513166427612,-11.29150390625,5.92041015625,3.4332275390625
19.6299999,-9.708487510681152,-0.6177040338516235,2.0661959648132324,-16.1895751953125,1.64794921875,1.28173828125
19.6499999,-9.794678688049316,-0.5913678407669067,2.2242133617401123,-14.312744140625,2.3040771484375,-0.0762939453125
19.6699999,-9.768342971801758,-0.6943184733390808,2.1715409755706787,-8.636474609375,0.396728515625,-1.3885498046875
19.6899999,-9.749189376831055,-0.9528923034667969,1.9800047874450684,2.1209716796875,1.129150390625,-6.591796875
19.7099999,-9.780313491821289,-1.1324573755264282,1.699883222579956,10.894775390625,6.1187744140625,-0.762939453125
19.7299999,-9.725247383117676,-1.170764684677124,1.5658079385757446,9.429931640625,0.5950927734375,2.5482177734375
19.749999900000002,-9.797073364257812,-0.9983820915222168,1.4987702369689941,0.1220703125,2.86865234375,2.0294189453125
19.769999900000002,-9.832986831665039,-0.7398083209991455,1.6160861253738403,-4.9285888671875,1.46484375,1.6937255859375
19.7899999,-9.86889934539795,-0.5506663918495178,1.7525556087493896,-2.777099609375,-2.3193359375,-2.0904541015625
19.8099999,-9.952696800231934,-0.5219359993934631,1.8315643072128296,-0.518798828125,-3.448486328125,-0.823974609375
19.8299999,-9.813833236694336,-0.7374141216278076,1.8770540952682495,1.800537109375,-4.6844482421875,-6.317138671875
19.8499999,-9.78989028930664,-0.8858546018600464,1.8602946996688843,6.9427490234375,5.06591796875,-4.8065185546875
19.8699999,-9.679757118225098,-1.1276689767837524,1.886630892753601,5.5999755859375,4.8370361328125,2.105712890625
19.8899999,-9.62947940826416,-0.9600749015808105,1.9273324012756348,-4.150390625,4.2572021484375,2.3040771484375
19.909999900000003,-9.761159896850586,-0.8906430602073669,1.922544002532959,-11.65771484375,6.8206787109375,3.814697265625
19.929999900000002,-9.792284965515137,-0.6727706789970398,1.9105730056762695,-10.223388671875,0.2288818359375,-0.8544921875
19.9499999,-9.950302124023438,-0.6153098344802856,1.7405846118927002,-2.899169921875,-1.9378662109375,-0.1068115234375
19.9699999,-9.955090522766113,-0.7589619159698486,1.5418659448623657,7.720947265625,-8.7890625,-3.5400390625
19.9899999,-9.914389610290527,-0.9050082564353943,1.3503297567367554,18.49365234375,-5.4779052734375,-7.6751708984375
20.0099999,-9.890447616577148,-0.9768342971801758,1.3982137441635132,21.6217041015625,-1.8157958984375,-2.3956298828125
20.0299999,-9.739612579345703,-0.9600749015808105,1.623268723487854,10.31494140625,-3.9520263671875,0.30517578125
20.0499999,-9.718064308166504,-0.8259995579719543,2.0183119773864746,-8.056640625,4.638671875,2.105712890625
20.0699999,-9.643844604492188,-0.6536170840263367,2.4205379486083984,-18.798828125,6.3323974609375,3.3416748046875
20.089999900000002,-9.667786598205566,-0.5985504388809204,2.5498247146606445,-20.233154296875,6.378173828125,0.0457763671875
20.109999900000002,-9.768342971801758,-0.6727706789970398,2.3942017555236816,-11.71875,3.0517578125,0.5340576171875
20.1299999,-9.761159896850586,-0.8571242094039917,1.9919757843017578,3.143310546875,-1.312255859375,-4.7760009765625
