# Time (seconds),Accel_X,Accel_Y,Accel_Z,Gyro_X,Gyro_Y,Gyro_Z
0.0099999,-4.065354347229004,-7.970297336578369,2.0805611610412598,-34.027099609375,42.205810546875,72.0672607421875
0.029999900000000003,-4.446032524108887,-8.027758598327637,1.8100165128707886,-31.1126708984375,29.8919677734375,69.366455078125
0.0499999,-4.757278919219971,-8.08043098449707,1.4891934394836426,-26.519775390625,8.4686279296875,65.704345703125
0.0699999,-4.881777286529541,-8.010998725891113,1.2258312702178955,-27.1759033203125,4.08935546875,70.037841796875
0.08999990000000001,-4.824316501617432,-7.920019149780273,1.1755530834197998,-27.2369384765625,22.3541259765625,80.5511474609375
0.10999990000000001,-4.790797710418701,-7.728483200073242,1.0773907899856567,-21.8658447265625,43.5028076171875,85.1287841796875
0.1299999,-4.831499099731445,-7.558494567871094,1.0247182846069336,-13.519287109375,34.60693359375,80.8868408203125
0.14999990000000002,-5.049371242523193,-7.402871608734131,0.8475474119186401,-7.2784423828125,17.39501953125,78.9947509765625
0.1699999,-5.281609058380127,-7.287950038909912,0.6224924325942993,0.9765625,17.852783203125,88.592529296875
0.1899999,-5.3582234382629395,-7.19936466217041,0.5123591423034668,2.9449462890625,28.778076171875,97.0916748046875
0.20999990000000002,-5.348646640777588,-7.127538681030273,0.38546648621559143,7.049560546875,43.2281494140625,103.57666015625
0.2299999,-5.348646640777588,-7.029376029968262,0.23942017555236816,15.716552734375,45.9442138671875,111.328125
0.2499999,-5.453991413116455,-6.868964672088623,0.019153613597154617,24.9176025390625,38.055419921875,118.1793212890625
0.2699999,-5.722142219543457,-6.672640323638916,-0.2513911724090576,34.423828125,30.5023193359375,119.0948486328125
0.28999990000000003,-6.141127586364746,-6.44279670715332,-0.4908113479614258,45.257568359375,21.2249755859375,113.983154296875
0.3099999,-6.574477672576904,-6.232107162475586,-0.5937620401382446,55.145263671875,9.1400146484375,106.9488525390625
0.3299999,-6.916848659515381,-6.114790916442871,-0.5434837937355042,61.614990234375,2.8228759765625,99.7314453125
0.34999990000000003,-7.1490864753723145,-6.078877925872803,-0.33997663855552673,66.5435791015625,5.9967041015625,93.7957763671875
0.3699999,-7.261613845825195,-6.076483726501465,-0.035913024097681046,83.8470458984375,21.575927734375,90.118408203125
0.3899999,-7.29034423828125,-5.9519853591918945,0.090979665517807,101.593017578125,34.1644287109375,86.0748291015625
0.40999990000000003,-7.357381820678711,-5.8657941818237305,0.6871358752250671,122.9400634765625,40.1611328125,75.3021240234375
0.4299999,-7.63989782333374,-5.736507415771484,0.7948749661445618,115.1885986328125,63.812255859375,72.9217529296875
0.4499999,-8.111555099487305,-5.60722017288208,1.3431471586227417,93.75,49.01123046875,76.6754150390625
0.4699999,-8.7268648147583,-5.458779811859131,1.5538369417190552,65.673828125,61.0198974609375,87.7685546875
0.4899999,-9.35654067993164,-5.202600479125977,1.6974890232086182,51.1932373046875,57.6019287109375,82.794189453125
0.5099999,-9.90241813659668,-4.865017890930176,1.7166426181793213,38.1927490234375,48.553466796875,76.751708984375
0.5299999,-10.256759643554688,-4.443638324737549,1.6663644313812256,26.30615234375,41.4886474609375,73.455810546875
0.5499999,-10.445901870727539,-4.089296340942383,1.5729905366897583,16.326904296875,30.4412841796875,61.859130859375
0.5699999,-10.512939453125,-3.7924153804779053,1.41257905960083,7.415771484375,19.8211669921875,50.4150390625
0.5899998999999999,-10.409989356994629,-3.512293815612793,1.2114660739898682,-3.753662109375,10.92529296875,47.4395751953125
0.6099998999999999,-10.14902114868164,-3.318363666534424,1.036689281463623,-4.974365234375,-0.3662109375,44.3878173828125
0.6299999,-9.806650161743164,-3.1316158771514893,0.8930372595787048,-4.1046142578125,-1.129150390625,40.679931640625
0.6499999,-9.440337181091309,-2.937685489654541,0.8044517636299133,-5.3253173828125,8.087158203125,41.68701171875
0.6699999,-9.129091262817383,-2.7126305103302,0.7757213711738586,-7.080078125,11.1846923828125,44.281005859375
0.6899999,-8.954314231872559,-2.4636335372924805,0.7565677165985107,-9.3994140625,10.80322265625,42.17529296875
0.7099999,-8.96149730682373,-2.188300371170044,0.706289529800415,-10.4217529296875,16.2353515625,32.77587890625
0.7299998999999999,-9.107542991638184,-1.9584569931030273,0.6512228846549988,-11.077880859375,23.2086181640625,22.9339599609375
0.7499998999999999,-9.406818389892578,-1.7693150043487549,0.5339069962501526,-11.4593505859375,24.5819091796875,18.98193359375
0.7699999,-9.761159896850586,-1.6759412288665771,0.3878606855869293,-10.5438232421875,17.51708984375,15.350341796875
0.7899999,-10.098742485046387,-1.6615760326385498,0.20350714027881622,-8.209228515625,10.19287109375,10.162353515625
0.8099999,-10.323798179626465,-1.7142484188079834,0.031124621629714966,-3.7994384765625,7.9803466796875,10.5438232421875
0.8299999,-10.467450141906738,-1.8171991109848022,-0.12928688526153564,-0.701904296875,6.04248046875,16.0369873046875
0.8499998999999999,-10.548852920532227,-1.920149803161621,-0.2513911724090576,1.312255859375,-0.762939453125,18.0816650390625
0.8699998999999999,-10.60391902923584,-2.0254945755004883,-0.3208230137825012,3.2196044921875,-7.6751708984375,11.77978515625
0.8899999,-10.66137981414795,-2.1045033931732178,-0.3447650372982025,4.39453125,-8.3465576171875,5.0506591796875
0.9099999,-10.711658477783203,-2.145204782485962,-0.30885201692581177,4.1351318359375,-4.45556640625,2.1820068359375
0.9299999,-10.711658477783203,-2.1739351749420166,-0.2585737705230713,2.8228759765625,-3.570556640625,-3.7689208984375
0.9499999,-10.457873344421387,-2.164358377456665,-0.13407529890537262,0.6256103515625,-5.43212890625,-12.87841796875
0.9699998999999999,-10.163386344909668,-2.1092917919158936,-0.09816227108240128,-0.7781982421875,2.25830078125,-9.6588134765625
0.9899998999999999,-9.804255485534668,-2.0183119773864746,-0.07182604819536209,-2.0904541015625,6.561279296875,-6.591796875
1.0099999,-9.500192642211914,-1.889025092124939,-0.05985504388809204,-3.3111572265625,5.950927734375,-1.220703125
1.0299999,-9.339780807495117,-1.7046716213226318,-0.05506663769483566,-3.875732421875,4.1961669921875,6.0882568359375
1.0499999,-9.294290542602539,-1.5083470344543457,-0.047884032130241394,-2.685546875,1.0528564453125,8.8653564453125
1.0699999,-9.346963882446289,-1.2880805730819702,-0.004788403399288654,-1.1749267578125,-3.204345703125,8.97216796875
1.0899999,-9.464279174804688,-1.1013327836990356,0.040701430290937424,-2.1820068359375,-4.5928955078125,11.4593505859375
1.1099999,-9.615114212036133,-0.9313444495201111,0.11252748221158981,-4.0130615234375,-6.317138671875,13.4735107421875
1.1299999,-9.763554573059082,-0.828393816947937,0.19153612852096558,-5.67626953125,-5.4931640625,9.6588134765625
1.1499999,-9.9000244140625,-0.7637503147125244,0.26575639843940735,-8.056640625,-1.0223388671875,5.4168701171875
1.1699998999999999,-9.998186111450195,-0.7254431247711182,0.3208230137825012,-10.894775390625,2.3345947265625,7.6141357421875
1.1899998999999999,-10.050858497619629,-0.727837324142456,0.3064578175544739,-12.420654296875,-1.0223388671875,10.7574462890625
1.2099999,-10.014945983886719,-0.7493851184844971,0.2849099934101105,-10.4522705078125,-11.566162109375,13.8397216796875
1.2299999,-9.959878921508789,-0.7805097699165344,0.23702596127986908,-7.4615478515625,-13.8702392578125,21.6827392578125
1.2499999,-9.909601211547852,-0.7709329724311829,0.22026655077934265,-6.28662109375,-10.6353759765625,29.693603515625
1.2699999,-9.914389610290527,-0.6991068720817566,0.21787235140800476,-8.209228515625,-10.2081298828125,29.4189453125
1.2899999,-9.940725326538086,-0.5985504388809204,0.24420857429504395,-10.833740234375,-14.434814453125,20.5230712890625
1.3099999,-9.974244117736816,-0.47644615173339844,0.2849099934101105,-13.48876953125,-14.007568359375,14.2974853515625
1.3299999,-9.928754806518555,-0.3926490843296051,0.3280056416988373,-16.143798828125,-0.640869140625,16.021728515625
1.3499999,-9.825803756713867,-0.3495534360408783,0.3423708379268646,-17.9290771484375,10.9100341796875,16.693115234375
1.3699999,-9.68694019317627,-0.3280056416988373,0.2992752194404602,-16.204833984375,11.932373046875,18.1884765625
1.3899999,-9.904812812805176,-0.3064578175544739,0.20111294090747833,-12.7410888671875,8.11767578125,24.4598388671875
1.4099999,-10.26394271850586,-0.3734954595565796,0.07900865375995636,-10.43701171875,4.852294921875,15.106201171875
1.4299998999999999,-10.551246643066406,-0.4118026793003082,0.002394201699644327,-10.2081298828125,-0.274658203125,-5.279541015625
1.4499999,-10.927136421203613,-0.5889736413955688,-0.031124621629714966,-11.6729736328125,3.2501220703125,9.765625
1.4699999,-10.78587818145752,-0.6703764796257019,-0.009576806798577309,-13.4124755859375,6.4697265625,17.242431640625
1.4899999,-10.56800651550293,-0.6967126727104187,-0.002394201699644327,-14.2822265625,5.7373046875,18.1884765625
1.5099999,-10.249577522277832,-0.6751648783683777,0.031124621629714966,-13.2904052734375,3.2806396484375,13.18359375
1.5299999,-9.921571731567383,-0.5650315880775452,0.043095629662275314,-11.810302734375,2.0599365234375,11.2762451171875
1.5499999,-9.718064308166504,-0.4620809257030487,0.0694318488240242,-11.810302734375,4.2266845703125,12.4359130859375
1.5699999,-9.674968719482422,-0.4141969084739685,0.07422025501728058,-14.0380859375,5.8135986328125,11.0015869140625
1.5899999,-9.744400978088379,-0.4213795065879822,0.021547814831137657,-13.6566162109375,3.7994384765625,9.002685546875
1.6099999,-9.895236015319824,-0.3758896589279175,-0.043095629662275314,-7.843017578125,-2.349853515625,10.7574462890625
1.6299999,-10.029311180114746,-0.2849099934101105,-0.07900865375995636,-2.0294189453125,-0.8544921875,15.7318115234375
1.6499999,-10.062829971313477,-0.038307227194309235,-0.040701430290937424,-2.1514892578125,3.35693359375,12.9547119140625
1.6699999,-10.0580415725708,0.2585737705230713,0.08619125932455063,-6.3629150390625,4.058837890625,6.072998046875
1.6899998999999999,-10.034099578857422,0.5746083855628967,0.22505496442317963,-10.772705078125,6.5765380859375,1.953125
1.7099999,-10.012551307678223,0.8164227604866028,0.3016694188117981,-13.18359375,9.6893310546875,-0.6561279296875
1.7299999,-9.988609313964844,0.9002198576927185,0.2561795711517334,-13.397216796875,10.19287109375,-5.462646484375
1.7499999,-9.988609313964844,0.8619126081466675,0.16759411990642548,-12.2833251953125,8.97216796875,-9.8724365234375
1.7699999,-9.96945571899414,0.7422025203704834,0.08619125932455063,-14.8773193359375,9.2315673828125,-10.2386474609375
1.7899999,-9.964667320251465,0.5339069962501526,-0.009576806798577309,-23.9410400390625,11.41357421875,-9.5977783203125
1.8099999,-9.981427192687988,0.2322375625371933,-0.08140286058187485,-28.1982421875,11.322021484375,-11.199951171875
1.8299999,-9.983820915222168,-0.13168109953403473,-0.20350714027881622,-24.0936279296875,8.819580078125,-9.82666015625
1.8499999,-9.964667320251465,-0.48602294921875,-0.35434186458587646,-18.2952880859375,8.1787109375,-4.913330078125
1.8699999,-9.96945571899414,-0.9481038451194763,-0.5961562395095825,-10.833740234375,6.7901611328125,-1.2359619140625
1.8899999,-9.962273597717285,-1.2234370708465576,-0.8834604024887085,4.180908203125,0.701904296875,1.3427734375
1.9099999,-10.022128105163574,-1.436521053314209,-1.1468225717544556,19.2108154296875,-4.1961669921875,8.3160400390625
1.9299998999999999,-10.06043529510498,-1.2689268589019775,-1.235408067703247,21.4385986328125,-7.6904296875,15.5487060546875
1.9499999,-10.113107681274414,-0.9433154463768005,-1.237802267074585,11.3677978515625,-6.805419921875,16.326904296875
1.9699999,-10.132261276245117,-0.4596867263317108,-1.0821791887283325,4.08935546875,-10.5743408203125,11.566162109375
1.9899999,-10.144232749938965,0.047884032130241394,-0.8475474119186401,6.0272216796875,-20.172119140625,7.9193115234375
2.0099999,-10.103530883789062,0.3711012601852417,-0.6368576288223267,6.1187744140625,-22.8424072265625,5.2032470703125
2.0299999,-10.08437728881836,0.43095630407333374,-0.33279404044151306,4.4708251953125,-18.8751220703125,0.3662109375
2.0499999,-9.962273597717285,0.42616790533065796,0.002394201699644327,7.4005126953125,-17.974853515625,-2.38037109375
2.0699999,-9.892841339111328,0.30885201692581177,0.33997663855552673,9.3231201171875,-9.5062255859375,4.1656494140625
2.0899999,-9.856928825378418,0.272938996553421,0.6392518281936646,1.9073486328125,-1.2054443359375,2.9449462890625
2.1099999,-9.847352027893066,0.2753331959247589,0.9026140570640564,-10.894775390625,3.0364990234375,2.960205078125
2.1299999,-9.852140426635742,0.3471592366695404,1.1109095811843872,-22.430419921875,2.288818359375,4.3792724609375
2.1499999,-9.852140426635742,0.40462008118629456,1.2330138683319092,-32.9742431640625,6.65283203125,6.7291259765625
2.1699999,-9.806650161743164,0.3423708379268646,1.1563993692398071,-39.4744873046875,14.190673828125,2.3956298828125
2.1899999,-9.818621635437012,0.28730419278144836,0.8930372595787048,-35.7666015625,15.5181884765625,-4.8675537109375
2.2099999,-9.856928825378418,0.1388636976480484,0.5027823448181152,-21.1334228515625,12.14599609375,-6.7138671875
2.2299999,-9.938331604003906,0.033518824726343155,0,-7.6904296875,12.115478515625,-1.40380859375
2.2499999,-10.062829971313477,-0.019153613597154617,-0.4141969084739685,-3.5858154296875,12.8021240234375,0.457763671875
2.2699999,-10.11789608001709,0.07422025501728058,-0.6607996821403503,-7.568359375,9.033203125,0.5340576171875
2.2899999,-10.17296314239502,0.05506663769483566,-0.8619126081466675,-16.1590576171875,5.4473876953125,1.0833740234375
2.3099999,-10.170568466186523,-0.028730420395731926,-1.0199298858642578,-7.87353515625,-5.828857421875,-1.5411376953125
2.3299999,-10.1753568649292,-0.29209262132644653,-1.1252747774124146,9.521484375,-12.87841796875,-0.152587890625
2.3499999,-10.139444351196289,-0.569819986820221,-1.2497732639312744,19.9127197265625,-17.486572265625,1.89208984375
2.3699999,-10.163386344909668,-0.7565677165985107,-1.2210428714752197,29.327392578125,-18.49365234375,3.72314453125
2.3899999,-10.062829971313477,-0.6847416758537292,-0.9744400978088379,35.0189208984375,-22.5372314453125,6.591796875
2.4099999,-9.983820915222168,-0.24899697303771973,-0.507570743560791,22.94921875,-18.280029296875,11.3983154296875
2.4299999,-9.940725326538086,0.2825157940387726,0.06464344263076782,-2.3040771484375,-10.92529296875,7.8582763671875
2.4499999,-9.876082420349121,0.8882488012313843,0.7709329724311829,-18.0206298828125,-8.6517333984375,3.11279296875
2.4699999,-9.837775230407715,1.256955862045288,1.278503656387329,-24.1546630859375,-5.67626953125,-3.1280517578125
2.4899999,-9.797073364257812,1.2641384601593018,1.625662922859192,-28.2745361328125,-0.6103515625,-6.0577392578125
2.5099999,-9.715670585632324,0.9528923034667969,1.678335428237915,-29.541015625,10.040283203125,-6.805419921875
2.5299999,-9.742006301879883,0.545877993106842,1.599326729774475,-23.223876953125,14.617919921875,-5.7830810546875
2.5499999,-9.684545516967773,0.1412578970193863,1.2832920551300049,-24.2767333984375,20.843505859375,-2.7923583984375
2.5699999,-9.804255485534668,-0.18914192914962769,0.8667010068893433,-25.054931640625,24.0631103515625,2.3193359375
2.5899999,-9.895236015319824,-0.2944868206977844,0.3711012601852417,-17.2576904296875,21.78955078125,1.4190673828125
2.6099999,-9.962273597717285,-0.363918662071228,-0.23702596127986908,-6.7901611328125,14.83154296875,1.0528564453125
2.6299999,-10.182539939880371,-0.2561795711517334,-0.7398083209991455,5.2642822265625,5.9051513671875,1.617431640625
2.6499999,-10.189722061157227,-0.08140286058187485,-1.1324573755264282,10.284423828125,3.021240234375,-0.2593994140625
2.6699999,-10.251971244812012,0.1412578970193863,-1.2449848651885986,13.092041015625,-2.6092529296875,-9.5062255859375
2.6899999,-10.218452453613281,0.26575639843940735,-1.2449848651885986,14.9078369140625,-11.3067626953125,-16.7388916015625
2.7099999,-10.127472877502441,0.26815059781074524,-0.9792284965515137,19.8974609375,-8.85009765625,-14.5721435546875
2.7299999,-10.091560363769531,0.1604115068912506,-0.5386953949928284,19.073486328125,-5.401611328125,-5.950927734375
2.7499999,-9.964667320251465,0.05746084079146385,-0.0454898327589035,2.960205078125,2.899169921875,-6.622314453125
2.7699999,-9.904812812805176,-0.05985504388809204,0.395043283700943,-12.0086669921875,8.5296630859375,-3.5400390625
2.7899999,-9.897629737854004,-0.16759411990642548,0.5913678407669067,-13.5040283203125,8.1024169921875,0.335693359375
2.8099999,-9.945513725280762,-0.38067805767059326,0.40940847992897034,1.7852783203125,-0.5035400390625,0.335693359375
2.8299999,-10.012551307678223,-0.5291185975074768,-0.031124621629714966,21.1639404296875,-3.11279296875,1.0528564453125
2.8499999,-10.113107681274414,-0.689530074596405,-0.5386953949928284,33.660888671875,-6.6375732421875,2.838134765625
2.8699999,-10.127472877502441,-0.6153098344802856,-0.828393816947937,34.2864990234375,-13.8397216796875,-0.54931640625
2.8899999,-10.093954086303711,-0.4213795065879822,-0.7805097699165344,26.0467529296875,-15.472412109375,-2.685546875
2.9099999,-10.029311180114746,-0.090979665517807,-0.3878606855869293,10.8642578125,-10.0555419921875,-1.2054443359375
2.9299999,-9.914389610290527,0.2825157940387726,0.2537853717803955,-11.4898681640625,-1.0528564453125,1.190185546875
2.9499999,-9.880870819091797,0.5482721924781799,0.7613561153411865,-32.53173828125,9.307861328125,0.1983642578125
2.9699999,-9.861717224121094,0.49320554733276367,0.9050082564353943,-29.72412109375,9.0484619140625,0.7781982421875
2.9899999,-9.947908401489258,0.1604115068912506,0.629675030708313,-1.9378662109375,1.312255859375,1.495361328125
3.0099999,-10.041281700134277,-0.31364041566848755,0.05746084079146385,30.1055908203125,-4.425048828125,2.62451171875
3.0299999,-10.120290756225586,-0.6272808313369751,-0.40940847992897034,43.365478515625,-9.4146728515625,7.2784423828125
3.0499999,-10.134655952453613,-0.6272808313369751,-0.5841852426528931,31.5093994140625,-10.7879638671875,5.43212890625
3.0699999,-10.077195167541504,-0.3998316824436188,-0.43095630407333374,13.7176513671875,-8.2244873046875,-1.953125
3.0899999,-9.979032516479492,0.021547814831137657,-0.004788403399288654,3.11279296875,-5.279541015625,-2.3345947265625
3.1099999,-9.8784761428833,0.3711012601852417,0.4429273009300232,-9.9029541015625,1.220703125,-0.946044921875
3.1299999,-9.871294021606445,0.608127236366272,0.8044517636299133,-25.6805419921875,8.11767578125,-0.518798828125
3.1499999,-9.911994934082031,0.6057330369949341,0.828393816947937,-28.8848876953125,14.58740234375,1.8463134765625
3.1699999,-10.000580787658691,0.3208230137825012,0.5386953949928284,-8.4991455078125,6.866455078125,2.50244140625
3.1899999,-10.101137161254883,-0.0694318488240242,-0.043095629662275314,19.1192626953125,-2.532958984375,-1.0833740234375
3.2099999,-10.168174743652344,-0.5027823448181152,-0.5985504388809204,36.8194580078125,-8.8958740234375,1.1138916015625
3.2299999,-10.122684478759766,-0.667982280254364,-0.8810662031173706,36.56005859375,-13.9007568359375,4.4403076171875
3.2499999,-10.137049674987793,-0.6177040338516235,-0.7709329724311829,23.5443115234375,-13.97705078125,1.190185546875
3.2699999,-9.986215591430664,-0.3495534360408783,-0.3495534360408783,9.3536376953125,-12.02392578125,-0.1068115234375
3.2899999,-9.938331604003906,0.028730420395731926,0.24660277366638184,-5.6304931640625,-3.997802734375,2.9296875
3.3099999,-9.888052940368652,0.31124621629714966,0.7422025203704834,-18.4478759765625,4.2266845703125,0.579833984375
3.3299999000000002,-9.864110946655273,0.4884171485900879,1.0462661981582642,-21.0418701171875,8.0108642578125,4.0740966796875
3.3499999,-9.981427192687988,0.4572925269603729,0.9385270476341248,-13.1988525390625,9.3536376953125,6.9427490234375
3.3699999,-10.079588890075684,0.2801215946674347,0.5889736413955688,7.1258544921875,4.364013671875,4.1961669921875
3.3899999,-10.163386344909668,-0.07422025501728058,-0.12210428714752197,27.9693603515625,-5.126953125,0.396728515625
3.4099999,-10.249577522277832,-0.35434186458587646,-0.6919242739677429,55.2215576171875,-15.13671875,0.457763671875
3.4299999,-10.213664054870605,-0.5123591423034668,-1.0319008827209473,71.2738037109375,-21.6064453125,3.265380859375
3.4499999,-10.163386344909668,-0.35434186458587646,-0.9696516990661621,62.1337890625,-21.820068359375,3.11279296875
3.4699999,-10.065223693847656,0.028730420395731926,-0.4836287498474121,42.90771484375,-19.073486328125,-1.0833740234375
3.4899999,-9.96945571899414,0.4596867263317108,0.1412578970193863,24.261474609375,-15.3045654296875,-3.509521484375
3.5099999,-9.911994934082031,0.7038952708244324,0.6871358752250671,12.115478515625,-11.749267578125,-3.936767578125
3.5299999,-9.9000244140625,0.6751648783683777,0.9959878921508789,9.307861328125,-11.1541748046875,-1.2359619140625
3.5499999,-9.974244117736816,0.40462008118629456,1.0319008827209473,15.289306640625,-10.19287109375,6.6986083984375
3.5699999,-10.251971244812012,0.09816227108240128,0.8475474119186401,28.4576416015625,-5.462646484375,8.7432861328125
3.5899999,-10.584765434265137,-0.16759411990642548,0.5578489899635315,44.9981689453125,-15.9149169921875,3.5858154296875
3.6099999,-11.12346076965332,-0.26815059781074524,0.2825157940387726,59.8297119140625,-22.6287841796875,1.6021728515625
3.6299999,-11.425130844116211,-0.181959331035614,0.09816227108240128,71.3043212890625,-33.7677001953125,-0.579833984375
3.6499999,-11.592724800109863,0.05506663769483566,0.06703764945268631,78.1097412109375,-52.8411865234375,11.77978515625
3.6699999,-11.408370971679688,0.35913026332855225,0.2322375625371933,79.376220703125,-61.6912841796875,18.157958984375
3.6899999,-11.025299072265625,0.6871358752250671,0.5003881454467773,77.45361328125,-59.02099609375,14.9688720703125
3.7099999,-10.5344877243042,0.9552865028381348,0.9409212470054626,72.9217529296875,-61.6455078125,2.2735595703125
3.7299999,-10.046070098876953,1.1324573755264282,1.3718775510787964,66.6351318359375,-49.530029296875,-9.765625
3.7499999,-9.610325813293457,1.194706678390503,1.800439715385437,59.0667724609375,-40.2679443359375,-19.6380615234375
3.7699999,-9.275136947631836,1.170764684677124,2.145204782485962,50.6134033203125,-47.3480224609375,-22.5830078125
3.7899999,-9.01895809173584,1.0582371950149536,2.3487119674682617,42.2210693359375,-60.1043701171875,-21.026611328125
3.8099999,-8.731653213500977,0.8762778043746948,2.557007312774658,36.07177734375,-60.72998046875,-16.1590576171875
3.8299999000000002,-8.434772491455078,0.7015010714530945,2.7102363109588623,30.6396484375,-36.4837646484375,-8.3465576171875
3.8499999,-8.17141056060791,0.5267243981361389,2.8874073028564453,24.7802734375,-10.284423828125,-4.8980712890625
3.8699999,-8.08043098449707,0.4213795065879822,2.956839084625244,22.88818359375,-1.1749267578125,-2.349853515625
3.8899999,-8.219294548034668,0.38546648621559143,2.9257144927978516,22.674560546875,-6.0272216796875,1.3427734375
3.9099999,-8.578424453735352,0.4141969084739685,2.782062292098999,22.125244140625,-10.8489990234375,3.5552978515625
3.9299999,-9.02135181427002,0.47884035110473633,2.612074136734009,22.125244140625,-16.754150390625,2.899169921875
3.9499999,-9.404424667358398,0.5530605912208557,2.4851813316345215,22.52197265625,-28.8543701171875,0.885009765625
3.9699999,-9.619902610778809,0.6105214357376099,2.4684219360351562,20.56884765625,-38.2080078125,-1.6937255859375
3.9899999,-9.667786598205566,0.6536170840263367,2.557007312774658,15.7470703125,-33.99658203125,-6.0577392578125
4.0099999,-9.588777542114258,0.646434485912323,2.7222073078155518,11.41357421875,-22.216796875,-13.0615234375
4.029999900000001,-9.461885452270508,0.6033388376235962,2.8850131034851074,12.298583984375,-17.852783203125,-18.035888671875
4.0499999,-9.337387084960938,0.5219359993934631,3.021482467651367,11.7034912109375,-21.7132568359375,-19.0582275390625
4.069999900000001,-9.208099365234375,0.4118026793003082,3.114856481552124,6.561279296875,-21.331787109375,-17.88330078125
4.0899999000000005,-9.050082206726074,0.30885201692581177,3.2178070545196533,1.8157958984375,-13.275146484375,-14.1448974609375
4.1099999,-8.901641845703125,0.2322375625371933,3.35667085647583,-4.913330078125,-4.486083984375,-8.6517333984375
4.1299999000000005,-8.793902397155762,0.18914192914962769,3.4739866256713867,-11.65771484375,2.288818359375,-3.96728515625
4.1499999,-8.769960403442383,0.17477671802043915,3.557783842086792,-16.7236328125,6.40869140625,-0.2899169921875
4.1699999000000005,-8.868123054504395,0.21308395266532898,3.5482068061828613,-24.6124267578125,11.0626220703125,3.23486328125
4.1899999,-8.990227699279785,0.2777273952960968,3.550601005554199,-31.6162109375,14.5416259765625,5.615234375
4.209999900000001,-9.138668060302734,0.3878606855869293,3.531447410583496,-41.351318359375,20.2789306640625,4.0740966796875
4.2299999,-9.260771751403809,0.5195417404174805,3.603273630142212,-56.4727783203125,33.5845947265625,-2.0904541015625
4.249999900000001,-9.390059471130371,0.6033388376235962,3.598485231399536,-71.4874267578125,52.5054931640625,-10.3912353515625
4.2699999,-9.497797966003418,0.5889736413955688,3.5242648124694824,-77.6824951171875,61.70654296875,-16.2506103515625
4.289999900000001,-9.567230224609375,0.48602294921875,3.375824451446533,-84.41162109375,62.4237060546875,-17.15087890625
4.3099999,-9.576807022094727,0.2825157940387726,3.1316158771514893,-96.8017578125,73.516845703125,-17.608642578125
4.329999900000001,-9.57201862335205,-0.002394201699644327,2.782062292098999,-103.02734375,86.4715576171875,-18.37158203125
4.3499999,-9.605537414550781,-0.24181437492370605,2.403778553009033,-95.001220703125,80.596923828125,-16.1895751953125
4.369999900000001,-9.667786598205566,-0.4692635238170624,1.9847931861877441,-88.1195068359375,71.0906982421875,-14.0228271484375
4.3899999,-9.797073364257812,-0.6943184733390808,1.4915876388549805,-86.1968994140625,69.51904296875,-12.3138427734375
4.409999900000001,-9.897629737854004,-0.8786720037460327,1.0534487962722778,-72.20458984375,55.084228515625,-4.82177734375
4.4299999,-9.916783332824707,-1.0558429956436157,0.6775590777397156,-54.779052734375,28.4423828125,6.77490234375
4.449999900000001,-9.883264541625977,-1.213860273361206,0.3758896589279175,-42.9534912109375,16.357421875,14.2822265625
4.4699999,-9.847352027893066,-1.278503656387329,0.181959331035614,-33.0352783203125,9.3231201171875,18.1121826171875
4.489999900000001,-9.761159896850586,-1.2330138683319092,0.14844051003456116,-20.6451416015625,-8.6517333984375,21.5911865234375
4.5099999,-9.655815124511719,-1.0845733880996704,0.2059013396501541,-12.26806640625,-21.3165283203125,23.3001708984375
4.529999900000001,-9.493009567260742,-0.8643068075180054,0.3519476354122162,-8.5296630859375,-15.6097412109375,23.406982421875
4.5499999,-9.308655738830566,-0.586579442024231,0.545877993106842,-7.1563720703125,0.1983642578125,23.6663818359375
4.569999900000001,-9.188945770263672,-0.3208230137825012,0.7326257228851318,-7.8277587890625,9.6893310546875,22.2930908203125
4.5899999000000005,-9.287108421325684,-0.07661445438861847,0.9026140570640564,-12.664794921875,11.4593505859375,15.5181884765625
4.609999900000001,-9.641449928283691,0.08858546614646912,0.993593692779541,-20.0958251953125,16.510009765625,2.01416015625
4.6299999000000005,-10.132261276245117,0.12928688526153564,1.0678139925003052,-25.299072265625,19.10400390625,-11.383056640625
4.6499999,-10.673351287841797,0.05267243832349777,1.0678139925003052,-29.541015625,17.8985595703125,-16.815185546875
4.6699999000000005,-11.075576782226562,-0.1604115068912506,1.0007762908935547,-31.79931640625,15.56396484375,-16.693115234375
4.6899999,-11.24795913696289,-0.4405331015586853,0.8355764150619507,-31.097412109375,13.580322265625,-14.434814453125
4.709999900000001,-11.154585838317871,-0.7422025203704834,0.5961562395095825,-25.421142578125,10.6048583984375,-10.101318359375
4.7299999,-10.843339920043945,-0.9816226959228516,0.31603461503982544,-17.8985595703125,8.30078125,-3.2806396484375
4.749999900000001,-10.38604736328125,-1.1420341730117798,0.033518824726343155,-9.1400146484375,7.110595703125,2.105712890625
4.7699999,-9.490615844726562,-1.137245774269104,-0.33758243918418884,8.2244873046875,2.3345947265625,11.932373046875
4.789999900000001,-9.567230224609375,-1.0079588890075684,-0.3711012601852417,11.566162109375,3.1280517578125,12.5885009765625
4.8099999,-9.703699111938477,-0.7757213711738586,-0.22744916379451752,15.3656005859375,-5.18798828125,0.244140625
4.829999900000001,-10.144232749938965,-0.5626373887062073,0.002394201699644327,13.2293701171875,-9.0789794921875,4.69970703125
4.8499999,-10.383652687072754,-0.2849099934101105,0.31124621629714966,8.026123046875,-6.3629150390625,8.331298828125
4.869999900000001,-10.407594680786133,-0.05746084079146385,0.6129156351089478,0.9307861328125,-5.7525634765625,7.32421875
4.8899999,-10.273519515991211,0.14844051003456116,0.8762778043746948,-4.852294921875,-2.899169921875,6.16455078125
4.909999900000001,-10.103530883789062,0.24899697303771973,1.072602391242981,-8.9569091796875,0.213623046875,2.1209716796875
4.9299999,-10.038887977600098,0.26575639843940735,1.2042834758758545,-9.4146728515625,3.387451171875,1.2664794921875
4.949999900000001,-10.029311180114746,0.1364694982767105,1.2258312702178955,-12.5732421875,10.1318359375,-0.6866455078125
4.9699999,-10.065223693847656,-0.08619125932455063,1.1492167711257935,-15.9149169921875,21.0418701171875,-7.171630859375
4.989999900000001,-10.105925559997559,-0.33518823981285095,0.9624691009521484,-15.8233642578125,21.8048095703125,-8.1329345703125
5.0099999,-10.144232749938965,-0.5554547905921936,0.6967126727104187,-13.9007568359375,15.625,-5.645751953125
5.029999900000001,-10.113107681274414,-0.7134721279144287,0.4213795065879822,-9.979248046875,7.1563720703125,-4.608154296875
5.0499999,-10.038887977600098,-0.7661445140838623,0.20350714027881622,-5.7373046875,1.2359619140625,-2.593994140625
5.069999900000001,-9.931148529052734,-0.6991068720817566,0.08379705995321274,-1.6326904296875,0.244140625,0.79345703125
5.0899999000000005,-9.840168952941895,-0.5434837937355042,0.08140286058187485,1.4801025390625,0.91552734375,3.7384033203125
5.109999900000001,-9.830592155456543,-0.33279404044151306,0.181959331035614,4.6539306640625,-2.62451171875,8.819580078125
5.1299999000000005,-9.940725326538086,-0.08140286058187485,0.35913026332855225,4.8370361328125,-9.9945068359375,15.655517578125
5.1499999,-10.093954086303711,0.1412578970193863,0.5674257874488831,1.3885498046875,-12.75634765625,17.9443359375
5.1699999000000005,-10.230423927307129,0.3519476354122162,0.7589619159698486,-3.5858154296875,-12.1612548828125,16.4794921875
5.1899999,-10.268731117248535,0.5434837937355042,0.8882488012313843,-9.0789794921875,-12.115478515625,14.7552490234375
5.209999900000001,-10.189722061157227,0.6727706789970398,0.9074024558067322,-14.1448974609375,-8.1329345703125,10.955810546875
5.2299999,-9.99339771270752,0.6991068720817566,0.8188169598579407,-14.8468017578125,-0.3204345703125,7.5836181640625
5.249999900000001,-9.739612579345703,0.6033388376235962,0.6224924325942993,-12.1307373046875,2.9144287109375,10.8642578125
5.2699999,-9.50498104095459,0.4141969084739685,0.395043283700943,-9.7198486328125,-0.2899169921875,15.9759521484375
5.289999900000001,-9.366117477416992,0.19393034279346466,0.15562310814857483,-7.598876953125,2.01416015625,11.6119384765625
5.3099999,-9.299078941345215,-0.026336219161748886,-0.026336219161748886,-3.8909912109375,9.765625,1.434326171875
5.329999900000001,-9.318233489990234,-0.18914192914962769,-0.12449848651885986,-3.7078857421875,16.1590576171875,-0.457763671875
5.3499999,-9.390059471130371,-0.29209262132644653,-0.15322890877723694,-5.2032470703125,21.6217041015625,5.0201416015625
5.369999900000001,-9.469067573547363,-0.3447650372982025,-0.14604631066322327,-4.2877197265625,21.97265625,6.500244140625
5.3899999,-9.531316757202148,-0.35434186458587646,-0.11971008777618408,-1.0223388671875,11.5509033203125,7.9803466796875
5.409999900000001,-9.821015357971191,-0.28730419278144836,-0.09816227108240128,1.2359619140625,-2.3193359375,12.63427734375
5.4299999,-10.249577522277832,-0.28730419278144836,-0.0933738648891449,2.227783203125,-9.2315673828125,-1.8768310546875
5.449999900000001,-10.680533409118652,-0.272938996553421,-0.0694318488240242,2.9754638671875,-5.859375,-33.02001953125
5.4699999,-10.99656867980957,-0.31842881441116333,-0.038307227194309235,5.828857421875,-4.7454833984375,-20.050048828125
5.489999900000001,-11.006145477294922,-0.35434186458587646,0.05985504388809204,6.3629150390625,-7.2174072265625,-11.993408203125
5.5099999,-10.711658477783203,-0.3974374830722809,0.22026655077934265,4.669189453125,-7.4920654296875,-9.490966796875
5.529999900000001,-10.359710693359375,-0.40222588181495667,0.43335050344467163,0.9918212890625,-5.096435546875,-6.4239501953125
5.5499999,-10.139444351196289,-0.3998316824436188,0.7326257228851318,-2.9449462890625,-1.922607421875,-4.69970703125
5.569999900000001,-9.916783332824707,-0.38307225704193115,1.015141487121582,-9.7808837890625,-3.387451171875,-7.293701171875
5.5899999000000005,-9.921571731567383,-0.40940847992897034,1.278503656387329,-17.3492431640625,-4.150390625,-9.490966796875
5.609999900000001,-9.883264541625977,-0.4572925269603729,1.4317326545715332,-20.8892822265625,-2.2430419921875,-7.5531005859375
5.6299999000000005,-9.8784761428833,-0.5602431893348694,1.4413094520568848,-21.820068359375,-2.4261474609375,-4.241943359375
5.6499999,-9.761159896850586,-0.6392518281936646,1.2832920551300049,-21.942138671875,2.0599365234375,-0.18310546875
5.6699999000000005,-9.512163162231445,-0.6607996821403503,0.9983820915222168,-20.782470703125,8.453369140625,4.0435791015625
5.6899999,-9.160215377807617,-0.5530605912208557,0.646434485912323,-17.5323486328125,7.38525390625,10.467529296875
5.709999900000001,-9.27034854888916,-0.3998316824436188,0.26575639843940735,-15.0909423828125,6.683349609375,10.8642578125
5.7299999,-9.476250648498535,-0.21547815203666687,-0.043095629662275314,-11.1236572265625,16.693115234375,-9.7198486328125
5.749999900000001,-9.981427192687988,-0.10534487664699554,-0.33039984107017517,-4.1046142578125,14.6331787109375,-1.77001953125
5.7699999,-10.429142951965332,-0.07900865375995636,-0.5147533416748047,2.0751953125,7.2784423828125,5.523681640625
5.789999900000001,-10.560823440551758,-0.1173158809542656,-0.6416460275650024,6.2255859375,1.2969970703125,1.4190673828125
5.8099999,-10.491392135620117,-0.1604115068912506,-0.6943184733390808,9.613037109375,-1.5869140625,-0.0762939453125
5.829999900000001,-10.359710693359375,-0.20350714027881622,-0.6272808313369751,12.237548828125,-5.889892578125,-2.1820068359375
5.8499999,-10.192116737365723,-0.20111294090747833,-0.395043283700943,9.2010498046875,-8.85009765625,-2.197265625
5.869999900000001,-10.077195167541504,-0.1867477297782898,-0.05985504388809204,-3.204345703125,-6.2408447265625,1.220703125
5.8899999,-9.998186111450195,-0.11971008777618408,0.29209262132644653,-12.6190185546875,-4.241943359375,1.5716552734375
5.909999900000001,-9.943120002746582,-0.05267243832349777,0.5410895943641663,-13.519287109375,-5.2490234375,-4.1656494140625
5.9299999,-9.904812812805176,-0.17477671802043915,0.6272808313369751,-8.880615234375,-5.2337646484375,-6.40869140625
5.949999900000001,-9.871294021606445,-0.2944868206977844,0.586579442024231,-3.60107421875,-3.1280517578125,-0.457763671875
5.9699999,-9.880870819091797,-0.5674257874488831,0.4213795065879822,2.6397705078125,-2.74658203125,2.4261474609375
5.989999900000001,-9.943120002746582,-0.8212111592292786,0.1867477297782898,11.2762451171875,-4.6844482421875,5.340576171875
6.0099999,-10.043676376342773,-0.8930372595787048,-0.014365210197865963,19.2413330078125,-8.087158203125,13.36669921875
6.029999900000001,-10.091560363769531,-0.7733271718025208,-0.12210428714752197,21.8505859375,-15.93017578125,14.1754150390625
6.0499999,-10.139444351196289,-0.4692635238170624,-0.12449848651885986,17.333984375,-18.9208984375,6.6375732421875
6.069999900000001,-10.038887977600098,-0.05027823522686958,0.07900865375995636,11.3983154296875,-17.2119140625,-1.373291015625
6.0899999000000005,-10.000580787658691,0.4165911078453064,0.47405192255973816,2.5177001953125,-11.138916015625,-3.84521484375
6.109999900000001,-9.859322547912598,0.7805097699165344,1.015141487121582,-11.3067626953125,-5.2490234375,-5.4473876953125
6.1299999000000005,-9.859322547912598,0.8954314589500427,1.5179238319396973,-24.566650390625,6.34765625,-4.7149658203125
6.149999900000001,-9.818621635437012,0.8236053586006165,1.8722656965255737,-25.146484375,9.5672607421875,-2.1820068359375
6.1699999000000005,-9.780313491821289,0.5793967843055725,2.099714994430542,-22.03369140625,7.4005126953125,-3.875732421875
6.1899999,-9.761159896850586,0.28969839215278625,2.070984363555908,-26.3519287109375,16.815185546875,-9.82666015625
6.209999900000001,-9.718064308166504,0.08379705995321274,1.9297266006469727,-30.6243896484375,27.2674560546875,-14.923095703125
6.2299999,-9.68694019317627,-0.047884032130241394,1.656787633895874,-30.7769775390625,31.707763671875,-14.7552490234375
6.249999900000001,-9.797073364257812,-0.10773907601833344,1.1204863786697388,-33.3099365234375,34.24072265625,-11.3983154296875
6.2699999,-9.90241813659668,-0.33758243918418884,0.4213795065879822,-29.4342041015625,28.7322998046875,-3.8604736328125
6.289999900000001,-10.038887977600098,-0.6057330369949341,-0.3519476354122162,-18.096923828125,17.39501953125,-4.5013427734375
6.3099999,-10.139444351196289,-1.1180921792984009,-1.0606313943862915,0.7171630859375,7.843017578125,-6.0272216796875
6.329999900000001,-10.182539939880371,-1.4700398445129395,-1.5658079385757446,18.1121826171875,-1.0528564453125,-2.0599365234375
6.3499999,-10.165780067443848,-1.7717092037200928,-1.7573440074920654,27.5421142578125,-6.04248046875,3.753662109375
6.369999900000001,-10.182539939880371,-1.577778935432434,-1.6639702320098877,27.4200439453125,-6.04248046875,6.3934326171875
6.3899999,-10.1753568649292,-1.2521674633026123,-1.3096283674240112,24.139404296875,-13.48876953125,12.176513671875
6.409999900000001,-10.163386344909668,-0.5817909836769104,-0.7374141216278076,17.5018310546875,-20.8740234375,12.1307373046875
6.4299999,-10.132261276245117,-0.1149216815829277,-0.1628057211637497,5.6610107421875,-18.7530517578125,0.9918212890625
6.449999900000001,-10.022128105163574,0.2585737705230713,0.4405331015586853,-3.3111572265625,-12.237548828125,-4.1046142578125
6.4699999,-9.931148529052734,0.35434186458587646,0.9552865028381348,-8.392333984375,-3.4637451171875,-1.556396484375
6.489999900000001,-9.780313491821289,0.3280056416988373,1.3072341680526733,-14.2059326171875,1.7242431640625,-0.30517578125
6.5099999,-9.854534149169922,0.11013327538967133,1.3239935636520386,-16.78466796875,7.26318359375,3.90625
6.529999900000001,-9.823410034179688,-0.12449848651885986,1.192312479019165,-6.9580078125,1.2664794921875,6.927490234375
6.5499999,-9.914389610290527,-0.2825157940387726,0.8810662031173706,0.9002685546875,-1.40380859375,0.244140625
6.569999900000001,-9.931148529052734,-0.4836287498474121,0.5339069962501526,1.4495849609375,-2.105712890625,-5.218505859375
6.5899999000000005,-9.976638793945312,-0.5339069962501526,0.22266076505184174,1.7242431640625,1.8157958984375,-3.6773681640625
6.609999900000001,-9.923966407775879,-0.5506663918495178,0.10534487664699554,3.72314453125,2.0751953125,0.7476806640625
6.6299999000000005,-10.043676376342773,-0.4884171485900879,-0.004788403399288654,-0.8544921875,3.265380859375,5.3558349609375
6.649999900000001,-9.979032516479492,-0.3495534360408783,0.0454898327589035,-5.3253173828125,-2.227783203125,6.6375732421875
6.6699999000000005,-10.065223693847656,-0.2753331959247589,0.09816227108240128,-7.293701171875,-4.8370361328125,1.495361328125
6.6899999,-9.96945571899414,-0.14365209639072418,0.2801215946674347,-5.615234375,-5.1422119140625,-3.84521484375
6.709999900000001,-9.852140426635742,0.0454898327589035,0.629675030708313,-14.6484375,1.0833740234375,-5.5999755859375
6.7299999,-9.770736694335938,0.2106897532939911,1.0893617868423462,-37.109375,12.0086669921875,-4.0283203125
6.749999900000001,-9.703699111938477,0.24181437492370605,1.3287819623947144,-53.5430908203125,20.7672119140625,-1.556396484375
6.7699999,-9.825803756713867,0.1628057211637497,1.3048399686813354,-43.0755615234375,22.5677490234375,0.0457763671875
6.789999900000001,-9.945513725280762,-0.2346317619085312,0.6823474764823914,-19.6075439453125,10.4217529296875,-1.4190673828125
6.8099999,-10.15141487121582,-0.7637503147125244,-0.14365209639072418,5.43212890625,1.434326171875,-1.0833740234375
6.829999900000001,-10.244789123535156,-1.2521674633026123,-1.0654197931289673,30.0445556640625,-5.3558349609375,-2.197265625
6.8499999,-10.326191902160645,-1.5490485429763794,-1.6352397203445435,51.7578125,-13.031005859375,1.800537109375
6.869999900000001,-10.285490036010742,-1.4101848602294922,-1.7477672100067139,54.8553466796875,-19.012451171875,6.8206787109375
6.8899999,-10.29746150970459,-1.0558429956436157,-1.4628572463989258,32.989501953125,-18.6614990234375,11.322021484375
6.909999900000001,-10.132261276245117,-0.47884035110473633,-0.849941611289978,22.03369140625,-25.9246826171875,8.4075927734375
6.9299999,-10.079588890075684,0,-0.14844051003456116,24.1241455078125,-27.7099609375,3.326416015625
6.949999900000001,-9.93354320526123,0.20111294090747833,0.4381389021873474,22.0794677734375,-25.32958984375,-0.2288818359375
6.9699999,-9.832986831665039,0.2513911724090576,0.9097966551780701,18.5699462890625,-17.5323486328125,-3.6163330078125
6.989999900000001,-9.727641105651855,0.31603461503982544,1.436521053314209,13.6871337890625,-11.23046875,-0.3204345703125
7.0099999,-9.691728591918945,0.33758243918418884,1.8483237028121948,-6.53076171875,-3.570556640625,4.974365234375
7.029999900000001,-9.751583099365234,0.3447650372982025,2.0638017654418945,-25.146484375,4.974365234375,4.0740966796875
7.0499999,-9.81143856048584,0.2513911724090576,2.0039467811584473,-18.1121826171875,2.13623046875,-0.274658203125
7.069999900000001,-9.916783332824707,-0.004788403399288654,1.6639702320098877,-2.8076171875,-0.3814697265625,-2.62451171875
7.0899999000000005,-9.93593692779541,-0.21787235140800476,1.3263877630233765,5.584716796875,2.2430419921875,-4.82177734375
7.109999900000001,-9.892841339111328,-0.19393034279346466,1.3215993642807007,-1.0833740234375,11.1236572265625,-2.13623046875
7.1299999000000005,-9.799467086791992,0.043095629662275314,1.4700398445129395,-29.2816162109375,22.7203369140625,-2.655029296875
7.149999900000001,-9.81143856048584,0.35673606395721436,1.5849615335464478,-53.0242919921875,32.3333740234375,-3.9520263671875
7.1699999000000005,-9.818621635437012,0.4668693244457245,1.3503297567367554,-46.142578125,25.4364013671875,-6.8206787109375
7.1899999,-9.95748519897461,0.15562310814857483,0.6320692300796509,-22.1099853515625,16.2200927734375,-10.101318359375
7.209999900000001,-9.99100399017334,-0.4572925269603729,-0.35434186458587646,5.2337646484375,5.828857421875,-9.613037109375
7.2299999,-10.110713958740234,-1.070208191871643,-1.0630255937576294,27.3895263671875,-0.3509521484375,-3.11279296875
7.249999900000001,-10.043676376342773,-1.3646949529647827,-1.3479355573654175,25.115966796875,-6.1187744140625,4.7760009765625
7.2699999,-10.062829971313477,-1.3311761617660522,-1.1563993692398071,-3.4942626953125,-3.5552978515625,11.1083984375
7.289999900000001,-10.050858497619629,-0.9026140570640564,-0.5099649429321289,-18.4326171875,-5.4779052734375,11.2762451171875
7.3099999,-10.019734382629395,-0.3208230137825012,0.20111294090747833,-25.5584716796875,-6.744384765625,5.2337646484375
7.329999900000001,-9.988609313964844,0.0933738648891449,0.7757213711738586,-34.7900390625,-0.8087158203125,-2.044677734375
7.3499999,-9.873687744140625,0.28969839215278625,1.1851298809051514,-28.533935546875,4.791259765625,-6.5460205078125
7.369999900000001,-9.888052940368652,0.05985504388809204,1.1683704853057861,-16.7236328125,10.9405517578125,-2.9296875
7.3899999,-9.775525093078613,-0.4118026793003082,0.8595184087753296,-1.617431640625,11.0626220703125,3.0517578125
7.409999900000001,-10.034099578857422,-1.036689281463623,0.2537853717803955,19.7601318359375,4.0283203125,12.542724609375
7.4299999,-10.08198356628418,-1.4700398445129395,-0.4692635238170624,42.144775390625,-12.5579833984375,15.533447265625
7.449999900000001,-10.29746150970459,-1.534683346748352,-0.9097966551780701,55.816650390625,-18.707275390625,17.2882080078125
7.4699999,-10.201693534851074,-1.1204863786697388,-0.9433154463768005,47.2869873046875,-22.1099853515625,12.3748779296875
7.489999900000001,-10.127472877502441,-0.3758896589279175,-0.5602431893348694,23.7884521484375,-20.1568603515625,5.462646484375
7.5099999,-9.926360130310059,0.49320554733276367,0.2753331959247589,-0.1220703125,-10.68115234375,1.312255859375
7.529999900000001,-9.84495735168457,1.1492167711257935,1.0606313943862915,-24.4903564453125,0.0762939453125,0.030517578125
7.5499999,-9.794678688049316,1.3646949529647827,1.7070658206939697,-37.9791259765625,3.5858154296875,4.2572021484375
7.569999900000001,-9.830592155456543,1.0773907899856567,1.8531121015548706,-31.0211181640625,3.11279296875,0.885009765625
7.5899999000000005,-9.895236015319824,0.47405192255973816,1.6304513216018677,-7.1563720703125,4.974365234375,0.091552734375
7.609999900000001,-9.909601211547852,-0.15322890877723694,1.1779472827911377,11.932373046875,0.6866455078125,2.716064453125
7.6299999000000005,-9.955090522766113,-0.5554547905921936,0.6919242739677429,15.3656005859375,0.9307861328125,1.5106201171875
7.649999900000001,-9.926360130310059,-0.5961562395095825,0.49559974670410156,9.27734375,5.157470703125,1.9378662109375
7.6699999000000005,-9.96945571899414,-0.28730419278144836,0.5003881454467773,-6.40869140625,12.3291015625,3.631591796875
7.6899999,-9.914389610290527,0.06224924325942993,0.6057330369949341,-17.8985595703125,8.8043212890625,5.1422119140625
7.709999900000001,-9.995792388916016,0.3447650372982025,0.6488286852836609,-20.0042724609375,4.8675537109375,-0.396728515625
7.7299999,-10.02691650390625,0.363918662071228,0.5099649429321289,-9.613037109375,5.9967041015625,-3.570556640625
7.749999900000001,-10.062829971313477,0.24899697303771973,0.3423708379268646,3.8604736328125,0.6103515625,-5.6610107421875
7.7699999,-10.086771965026855,0.009576806798577309,0.17238251864910126,10.101318359375,0.0762939453125,-6.1798095703125
7.789999900000001,-10.010157585144043,-0.11013327538967133,0.17717093229293823,6.04248046875,4.39453125,-1.922607421875
7.8099999,-10.014945983886719,-0.1604115068912506,0.2849099934101105,-3.7078857421875,8.1024169921875,2.86865234375
7.829999900000001,-9.907206535339355,-0.1388636976480484,0.42616790533065796,-6.8511962890625,1.678466796875,4.3182373046875
7.8499999,-9.964667320251465,-0.07900865375995636,0.524330198764801,-8.514404296875,-0.946044921875,2.62451171875
7.869999900000001,-9.955090522766113,-0.09576806426048279,0.545877993106842,-5.7525634765625,1.7852783203125,-0.091552734375
7.8899999,-9.99100399017334,-0.15083470940589905,0.4812345504760742,0.091552734375,0.2288818359375,-3.631591796875
7.909999900000001,-9.983820915222168,-0.1843535304069519,0.4620809257030487,6.561279296875,1.7547607421875,-3.692626953125
7.9299999,-9.959878921508789,-0.11971008777618408,0.4884171485900879,3.9520263671875,5.5694580078125,0.5340576171875
7.949999900000001,-10.02452278137207,0.014365210197865963,0.6057330369949341,-7.049560546875,10.7879638671875,3.96728515625
7.9699999,-9.914389610290527,0.17956513166427612,0.6919242739677429,-13.763427734375,7.38525390625,0.762939453125
7.989999900000001,-10.036493301391602,0.2753331959247589,0.6129156351089478,-13.0615234375,5.767822265625,-2.3956298828125
8.0099999,-9.964667320251465,0.2825157940387726,0.545877993106842,-6.9732666015625,3.7841796875,-3.8604736328125
8.0299999,-9.99100399017334,0.19153612852096558,0.4189853072166443,-7.293701171875,3.387451171875,-9.7198486328125
8.049999900000001,-9.99339771270752,0.05746084079146385,0.31364041566848755,-6.561279296875,9.796142578125,-10.4522705078125
8.069999900000001,-9.979032516479492,-0.10773907601833344,0.2777273952960968,-4.425048828125,12.6953125,-4.33349609375
8.0899999,-10.014945983886719,-0.3495534360408783,0.13407529890537262,-1.1444091796875,9.246826171875,2.2125244140625
8.1099999,-9.974244117736816,-0.5339069962501526,-0.038307227194309235,4.608154296875,0.67138671875,2.960205078125
8.129999900000001,-10.043676376342773,-0.608127236366272,-0.26336219906806946,10.2081298828125,-1.77001953125,2.3651123046875
8.149999900000001,-10.04846477508545,-0.5913678407669067,-0.3711012601852417,14.58740234375,-6.9427490234375,1.617431640625
8.1699999,-10.062829971313477,-0.40462008118629456,-0.31842881441116333,10.0250244140625,-9.002685546875,-2.0904541015625
8.1899999,-10.050858497619629,-0.21308395266532898,-0.07900865375995636,1.8310546875,-2.9449462890625,-3.265380859375
8.2099999,-9.99100399017334,-0.002394201699644327,0.24660277366638184,-8.11767578125,4.119873046875,-0.396728515625
8.229999900000001,-9.971850395202637,0.0694318488240242,0.5315127968788147,-11.260986328125,4.913330078125,4.425048828125
8.2499999,-9.943120002746582,-0.004788403399288654,0.5363011956214905,-4.7454833984375,-3.0059814453125,3.7078857421875
8.2699999,-9.99100399017334,-0.1412578970193863,0.3878606855869293,5.3863525390625,-4.2266845703125,2.899169921875
8.2899999,-9.976638793945312,-0.26575639843940735,0.22026655077934265,14.9993896484375,-6.378173828125,3.5552978515625
8.309999900000001,-9.971850395202637,-0.23942017555236816,0.19153612852096558,10.467529296875,-6.6986083984375,-0.244140625
8.3299999,-9.931148529052734,-0.10534487664699554,0.30885201692581177,-0.9765625,0.274658203125,-3.143310546875
8.3499999,-9.926360130310059,0.09576806426048279,0.47165772318840027,-10.101318359375,6.89697265625,-1.77001953125
8.3699999,-10.000580787658691,0.1867477297782898,0.5626373887062073,-9.0179443359375,5.523681640625,3.326416015625
8.389999900000001,-10.002974510192871,0.17956513166427612,0.4884171485900879,-1.7547607421875,-3.1585693359375,1.7242431640625
8.4099999,-10.110713958740234,0.06464344263076782,0.3519476354122162,6.2255859375,-2.8533935546875,0.18310546875
8.4299999,-10.022128105163574,-0.06703764945268631,0.22744916379451752,12.451171875,-3.448486328125,-0.6103515625
8.4499999,-10.012551307678223,-0.1364694982767105,0.22505496442317963,10.1318359375,-3.1280517578125,-4.9285888671875
8.469999900000001,-9.931148529052734,-0.1412578970193863,0.2849099934101105,3.387451171875,1.5716552734375,-6.0577392578125
8.4899999,-9.955090522766113,-0.07900865375995636,0.363918662071228,-2.74658203125,6.439208984375,-3.11279296875
8.5099999,-9.998186111450195,-0.05985504388809204,0.3687070608139038,-0.4119873046875,3.662109375,2.4871826171875
8.5299999,-10.031704902648926,-0.12210428714752197,0.28730419278144836,4.7607421875,-5.462646484375,1.068115234375
8.549999900000001,-10.103530883789062,-0.12689268589019775,0.1628057211637497,9.70458984375,-5.401611328125,-0.79345703125
8.569999900000001,-10.010157585144043,-0.1604115068912506,0.10773907601833344,11.1541748046875,-7.26318359375,-1.8310546875
8.5899999,-9.904812812805176,-0.002394201699644327,0.4405331015586853,-7.4310302734375,2.1820068359375,-6.8817138671875
8.6099999,-9.8784761428833,0.05746084079146385,0.6751648783683777,-14.3585205078125,9.1552734375,-2.2735595703125
8.629999900000001,-9.916783332824707,-0.08140286058187485,0.7326257228851318,-7.232666015625,6.1798095703125,2.655029296875
8.649999900000001,-9.962273597717285,-0.35434186458587646,0.524330198764801,7.7056884765625,-3.3416748046875,3.0059814453125
8.6699999,-10.065223693847656,-0.6416460275650024,0.18914192914962769,22.430419921875,-6.866455078125,5.3863525390625
8.6899999,-10.070012092590332,-0.7613561153411865,-0.023942016065120697,25.177001953125,-10.9710693359375,7.3699951171875
8.709999900000001,-10.053253173828125,-0.5410895943641663,0.028730420395731926,10.43701171875,-7.6751708984375,3.72314453125
8.729999900000001,-9.971850395202637,-0.19393034279346466,0.2801215946674347,-11.53564453125,1.0986328125,-0.4425048828125
8.7499999,-9.892841339111328,0.22266076505184174,0.6536170840263367,-22.369384765625,6.988525390625,2.1514892578125
8.7699999,-9.888052940368652,0.38067805767059326,0.7661445140838623,-17.7001953125,2.5177001953125,7.32421875
8.7899999,-9.93593692779541,0.3232172429561615,0.6248866319656372,-5.31005859375,-4.6539306640625,2.1514892578125
8.809999900000001,-10.02691650390625,0.16998831927776337,0.4620809257030487,11.53564453125,-5.4168701171875,1.129150390625
8.8299999,-9.983820915222168,0.13407529890537262,0.3711012601852417,12.8021240234375,-7.0037841796875,1.861572265625
8.8499999,-9.931148529052734,0.33039984107017517,0.7038952708244324,-8.1634521484375,-0.030517578125,-4.852294921875
8.8699999,-9.775525093078613,0.5123591423034668,1.0534487962722778,-39.3218994140625,16.0064697265625,-10.711669921875
8.889999900000001,-9.751583099365234,0.7182605266571045,1.3766659498214722,-52.1087646484375,23.8494873046875,-7.2174072265625
8.9099999,-9.746794700622559,0.44532153010368347,1.2282254695892334,-45.8221435546875,17.5933837890625,-3.662109375
8.9299999,-9.801861763000488,0.021547814831137657,0.7374141216278076,-25.87890625,9.429931640625,-1.953125
8.9499999,-10.125079154968262,-0.5913678407669067,-0.08379705995321274,-3.60107421875,9.8419189453125,2.7618408203125
8.969999900000001,-10.17296314239502,-1.0247182846069336,-0.7996633648872375,10.650634765625,-8.7738037109375,4.57763671875
8.9899999,-10.273519515991211,-1.3503297567367554,-1.3766659498214722,19.9127197265625,-20.5841064453125,2.2735595703125
9.0099999,-10.326191902160645,-1.5083470344543457,-1.6735470294952393,52.06298828125,-21.7437744140625,3.90625
9.0299999,-10.120290756225586,-1.335964560508728,-1.3479355573654175,74.21875,-25.5584716796875,12.054443359375
9.049999900000001,-10.110713958740234,-1.0414776802062988,-0.8595184087753296,59.50927734375,-22.39990234375,20.538330078125
9.069999900000001,-9.952696800231934,-0.2753331959247589,0.24660277366638184,36.3616943359375,-24.0936279296875,18.890380859375
9.0899999,-9.837775230407715,0.8259995579719543,1.5442601442337036,-2.8076171875,-11.9781494140625,8.1634521484375
9.1099999,-9.708487510681152,1.7357962131500244,2.5522189140319824,-50.3082275390625,12.0849609375,-4.1656494140625
9.129999900000001,-9.674968719482422,2.3774423599243164,3.181894063949585,-70.25146484375,22.613525390625,-12.39013671875
9.149999900000001,-9.57201862335205,2.2002713680267334,3.07415509223938,-62.8814697265625,24.993896484375,-13.61083984375
9.1699999,-9.674968719482422,1.4245500564575195,2.293645143508911,-42.938232421875,29.3121337890625,-10.0860595703125
9.1899999,-9.823410034179688,0.2106897532939911,1.1420341730117798,-19.195556640625,28.3355712890625,-0.1373291015625
9.209999900000001,-9.928754806518555,-1.01753568649292,-0.18914192914962769,14.3280029296875,9.8114013671875,7.7972412109375
9.229999900000001,-10.182539939880371,-1.6687586307525635,-1.2330138683319092,43.5028076171875,-7.01904296875,11.6424560546875
9.2499999,-10.228029251098633,-1.5825673341751099,-1.5514427423477173,42.8619384765625,-13.18359375,13.1378173828125
9.2699999,-10.204087257385254,-0.7469909191131592,-1.0797849893569946,2.3040771484375,-5.55419921875,6.1798095703125
9.2899999,-10.017339706420898,0.42377370595932007,-0.05985504388809204,-43.5791015625,6.8511962890625,-6.16455078125
9.309999900000001,-9.90241813659668,1.2665326595306396,0.9385270476341248,-64.0716552734375,20.751953125,-10.833740234375
9.3299999,-9.830592155456543,1.381454348564148,1.3766659498214722,-54.5654296875,25.6195068359375,-7.049560546875
9.3499999,-9.818621635437012,0.7757213711738586,1.0558429956436157,-18.49365234375,12.908935546875,-2.6092529296875
9.3699999,-10.005369186401367,-0.16759411990642548,0.2298433631658554,26.031494140625,1.4190673828125,2.0904541015625
9.389999900000001,-10.065223693847656,-0.730231523513794,-0.5410895943641663,49.8809814453125,-10.498046875,9.9945068359375
9.4099999,-10.141838073730469,-0.8331822156906128,-1.01753568649292,37.567138671875,-12.14599609375,5.950927734375
9.4299999,-10.108319282531738,-0.36152446269989014,-0.751779317855835,10.406494140625,-10.711669921875,-7.8887939453125
9.4499999,-10.017339706420898,0.2059013396501541,-0.17717093229293823,-18.6004638671875,1.46484375,-10.8489990234375
9.469999900000001,-9.943120002746582,0.4620809257030487,0.49320554733276367,-29.632568359375,10.3759765625,-2.3040771484375
9.4899999,-9.890447616577148,0.3016694188117981,0.7469909191131592,-14.95361328125,2.6702880859375,5.9661865234375
9.5099999,-9.943120002746582,-0.17717093229293823,0.5482721924781799,9.1400146484375,-5.157470703125,4.8675537109375
9.5299999,-10.062829971313477,-0.5482721924781799,0.08140286058187485,31.06689453125,-9.6282958984375,6.7901611328125
9.549999900000001,-10.079588890075684,-0.4836287498474121,-0.17956513166427612,37.6129150390625,-16.0064697265625,10.3759765625
9.569999900000001,-10.11550235748291,-0.043095629662275314,0.004788403399288654,13.1683349609375,-10.92529296875,1.4190673828125
9.5899999,-9.928754806518555,0.569819986820221,0.507570743560791,-23.6358642578125,4.57763671875,-10.284423828125
9.6099999,-9.852140426635742,0.9026140570640564,0.9983820915222168,-39.0625,18.3868408203125,-6.4849853515625
9.629999900000001,-9.80904483795166,0.7637503147125244,1.1204863786697388,-21.42333984375,9.2926025390625,3.0059814453125
9.649999900000001,-9.883264541625977,0.27054479718208313,0.7134721279144287,4.8828125,-1.861572265625,1.7852783203125
9.6699999,-10.077195167541504,-0.2968810200691223,0.031124621629714966,25.57373046875,-5.1422119140625,1.03759765625
9.6899999,-10.06043529510498,-0.3423708379268646,-0.2944868206977844,34.2864990234375,-13.36669921875,5.7220458984375
9.709999900000001,-10.017339706420898,-0.08140286058187485,-0.12449848651885986,14.129638671875,-10.43701171875,-1.7852783203125
9.729999900000001,-9.876082420349121,0.3902548849582672,0.3016694188117981,-24.84130859375,8.7432861328125,-12.8631591796875
9.7499999,-9.787496566772461,0.7757213711738586,1.0103530883789062,-41.4276123046875,18.12744140625,-5.859375
9.7699999,-9.651026725769043,0.8236053586006165,1.4173674583435059,-42.724609375,13.397216796875,2.3345947265625
9.7899999,-9.732429504394531,0.6009446382522583,1.3455413579940796,-44.677734375,14.46533203125,-1.4801025390625
9.809999900000001,-9.8784761428833,0.15562310814857483,0.8212111592292786,-44.921875,20.4315185546875,-3.143310546875
9.8299999,-10.113107681274414,-0.26575639843940735,0.14365209639072418,-32.623291015625,5.096435546875,4.119873046875
9.8499999,-10.218452453613281,-0.45250412821769714,-0.4572925269603729,-11.90185546875,-10.711669921875,4.3792724609375
9.8699999,-10.309432983398438,-0.7254431247711182,-0.9816226959228516,6.7901611328125,-5.1422119140625,-5.401611328125
9.889999900000001,-10.261548042297363,-0.6655880808830261,-0.8834604024887085,27.557373046875,-0.48828125,-9.613037109375
9.9099999,-10.160991668701172,-0.7733271718025208,-0.8212111592292786,34.7900390625,-3.8299560546875,6.7138671875
9.9299999,-10.072406768798828,-0.7182605266571045,-0.5961562395095825,36.3311767578125,-12.664794921875,11.688232421875
9.9499999,-10.098742485046387,-0.5674257874488831,-0.35913026332855225,41.595458984375,-16.1590576171875,5.401611328125
9.969999900000001,-9.952696800231934,-0.05267243832349777,-0.026336219161748886,36.07177734375,-12.908935546875,2.9754638671875
9.9899999,-9.926360130310059,0.6655880808830261,0.5051765441894531,11.0321044921875,-7.4310302734375,-3.387451171875
10.0099999,-9.854534149169922,1.3694833517074585,1.2258312702178955,-20.050048828125,-0.9918212890625,-12.4053955078125
10.0299999,-9.713275909423828,1.6759412288665771,1.8602946996688843,-51.9866943359375,18.096923828125,-19.0582275390625
10.049999900000001,-9.691728591918945,1.37906014919281,2.1068975925445557,-67.2149658203125,29.72412109375,-10.6658935546875
10.069999900000001,-9.713275909423828,0.4357447028160095,1.6304513216018677,-45.745849609375,22.5677490234375,0.9765625
10.0899999,-9.890447616577148,-0.730231523513794,0.5674257874488831,1.5716552734375,7.4310302734375,6.6986083984375
10.1099999,-10.14902114868164,-1.5442601442337036,-0.7637503147125244,41.50390625,-5.0811767578125,13.031005859375
10.129999900000001,-10.287884712219238,-1.5083470344543457,-1.659181833267212,51.2847900390625,-17.486572265625,11.871337890625
10.149999900000001,-10.326191902160645,-0.7350199222564697,-1.6903064250946045,31.73828125,-22.76611328125,-0.9918212890625
10.1699999,-10.14902114868164,0.304063618183136,-0.9026140570640564,-8.8653564453125,-13.458251953125,-13.2598876953125
10.1899999,-9.959878921508789,1.0342950820922852,0.2992752194404602,-44.43359375,7.9193115234375,-15.0604248046875
10.209999900000001,-9.799467086791992,0.9600749015808105,1.1563993692398071,-44.9066162109375,13.275146484375,-0.579833984375
10.229999900000001,-9.734824180603027,0.26815059781074524,1.3479355573654175,-10.009765625,3.47900390625,6.53076171875
10.2499999,-9.931148529052734,-0.5937620401382446,0.8020575642585754,31.9671630859375,-5.2032470703125,8.8043212890625
10.2699999,-9.931148529052734,-1.048660397529602,0.17956513166427612,54.9774169921875,-13.0615234375,10.6201171875
10.2899999,-10.110713958740234,-0.7182605266571045,-0.05267243832349777,43.0908203125,-9.9334716796875,7.6446533203125
10.309999900000001,-9.911994934082031,0.17238251864910126,0.4189853072166443,-1.8463134765625,-1.28173828125,-2.86865234375
10.3299999,-9.847352027893066,1.094150185585022,1.072602391242981,-57.647705078125,23.37646484375,-17.7001953125
10.3499999,-9.785101890563965,1.460463047027588,1.5203180313110352,-72.3724365234375,29.5562744140625,-12.237548828125
10.3699999,-9.734824180603027,0.8930372595787048,1.1420341730117798,-43.15185546875,17.9595947265625,-1.2664794921875
10.389999900000001,-10.029311180114746,-0.2106897532939911,0.004788403399288654,10.772705078125,1.9378662109375,1.312255859375
10.4099999,-10.17296314239502,-1.2952631711959839,-1.2449848651885986,60.699462890625,-18.3563232421875,9.2620849609375
10.4299999,-10.340557098388672,-1.5873557329177856,-2.0159177780151367,81.2225341796875,-28.8543701171875,14.068603515625
10.4499999,-10.261548042297363,-0.9792284965515137,-1.577778935432434,61.5234375,-29.1900634765625,6.072998046875
10.469999900000001,-10.019734382629395,0.17477671802043915,-0.3280056416988373,-5.2490234375,-10.3912353515625,-6.40869140625
10.4899999,-9.744400978088379,1.2258312702178955,1.2641384601593018,-66.95556640625,19.5465087890625,-11.0626220703125
10.5099999,-9.62947940826416,1.5418659448623657,2.2170307636260986,-74.3408203125,26.1688232421875,-0.8544921875
10.5299999,-9.696516990661621,1.0127472877502441,2.0398597717285156,-38.330078125,13.763427734375,2.8076171875
10.549999900000001,-9.983820915222168,0.090979665517807,1.036689281463623,7.537841796875,2.3651123046875,3.997802734375
10.569999900000001,-10.201693534851074,-0.6943184733390808,-0.29209262132644653,41.50390625,-13.5040283203125,8.4991455078125
10.5899999,-10.362105369567871,-0.8619126081466675,-0.9911994934082031,51.3153076171875,-19.1802978515625,8.026123046875
10.6099999,-10.268731117248535,-0.38307225704193115,-0.811634361743927,29.754638671875,-14.892578125,-1.4495849609375
10.629999900000001,-10.098742485046387,0.33758243918418884,0.040701430290937424,-14.2974853515625,5.8441162109375,-10.406494140625
10.649999900000001,-9.950302124023438,0.8068459630012512,0.9552865028381348,-38.6505126953125,19.59228515625,-5.6610107421875
10.6699999,-9.86889934539795,0.7182605266571045,1.3215993642807007,-25.57373046875,15.3350830078125,2.7313232421875
10.6899999,-9.883264541625977,0.011971008032560349,0.8547300100326538,4.791259765625,2.38037109375,5.3558349609375
10.709999900000001,-9.998186111450195,-0.7733271718025208,-0.11252748221158981,43.5028076171875,-10.467529296875,7.62939453125
10.729999900000001,-10.050858497619629,-1.2066776752471924,-0.727837324142456,75.347900390625,-21.1639404296875,9.82666015625
10.7499999,-10.050858497619629,-0.9983820915222168,-0.7038952708244324,61.8133544921875,-17.7001953125,13.3819580078125
10.7699999,-9.955090522766113,-0.18914192914962769,0.05027823522686958,15.472412109375,-2.1514892578125,11.3677978515625
10.7899999,-9.86889934539795,0.7374141216278076,0.9361328482627869,-24.932861328125,13.580322265625,2.7008056640625
10.809999900000001,-9.749189376831055,1.4077905416488647,1.4891934394836426,-33.6151123046875,16.3726806640625,-3.5552978515625
10.8299999,-9.816226959228516,1.482010841369629,1.400607943534851,-22.88818359375,14.09912109375,-1.495361328125
10.8499999,-9.849745750427246,1.0773907899856567,0.8954314589500427,-7.2174072265625,5.2490234375,-3.35693359375
10.8699999,-9.911994934082031,0.48602294921875,0.35434186458587646,8.056640625,2.197265625,0.0152587890625
10.889999900000001,-9.967061996459961,-0.014365210197865963,0.026336219161748886,13.7786865234375,1.251220703125,1.190185546875
10.9099999,-10.007762908935547,-0.24660277366638184,-0.035913024097681046,5.9814453125,2.8228759765625,0.79345703125
10.9299999,-10.031704902648926,-0.19871874153614044,0.08619125932455063,-4.45556640625,6.4544677734375,2.3040771484375
10.9499999,-10.038887977600098,0.009576806798577309,0.23942017555236816,-6.6070556640625,7.5836181640625,1.46484375
10.969999900000001,-10.029311180114746,0.1867477297782898,0.31603461503982544,-2.1514892578125,5.79833984375,-2.74658203125
10.9899999,-10.062829971313477,0.26336219906806946,0.26575639843940735,4.0435791015625,4.8980712890625,-3.0059814453125
11.0099999,-10.481815338134766,0.2322375625371933,0.16759411990642548,7.8582763671875,3.60107421875,-0.335693359375
11.0299999,-11.221623420715332,0.06703764945268631,0.026336219161748886,8.2550048828125,-1.4495849609375,-7.2174072265625
11.049999900000001,-12.050017356872559,0.011971008032560349,-0.1867477297782898,7.1563720703125,-3.90625,-14.8162841796875
11.069999900000001,-12.808979034423828,-0.004788403399288654,-0.4596867263317108,10.7421875,-6.683349609375,-2.99072265625
11.0899999,-13.055582046508789,0.19632454216480255,-0.6991068720817566,17.242431640625,-17.822265625,-10.8642578125
11.1099999,-12.76109504699707,0.40701428055763245,-0.8092401623725891,20.477294921875,-29.3121337890625,-27.64892578125
11.129999900000001,-12.030863761901855,0.569819986820221,-0.6799532771110535,19.5159912109375,-26.5350341796875,-39.61181640625
11.149999900000001,-10.967838287353516,0.6631938815116882,-0.27054479718208313,16.754150390625,-16.6778564453125,-18.4783935546875
11.1699999,-9.854534149169922,0.6943184733390808,0.22505496442317963,7.8887939453125,5.645751953125,5.55419921875
11.1899999,-8.856152534484863,0.7134721279144287,0.6416460275650024,-5.2032470703125,24.444580078125,3.814697265625
11.209999900000001,-8.073247909545898,0.751779317855835,0.8690952062606812,-14.2669677734375,21.6827392578125,-4.6844482421875
11.229999900000001,-7.553706169128418,0.689530074596405,0.8547300100326538,-15.7928466796875,16.082763671875,-6.1187744140625
11.2499999,-7.230489253997803,0.5099649429321289,0.6200982332229614,-10.0860595703125,20.7672119140625,-1.434326171875
11.2699999,-7.036558628082275,0.17717093229293823,0.33518823981285095,-0.335693359375,14.068603515625,3.204345703125
11.2899999,-7.101202011108398,-0.15083470940589905,0.0694318488240242,10.3607177734375,3.47900390625,12.1002197265625
11.309999900000001,-7.438784599304199,-0.42616790533065796,-0.05027823522686958,17.7001953125,-3.7384033203125,11.932373046875
11.3299999,-7.9415669441223145,-0.608127236366272,0.023942016065120697,20.56884765625,-4.21142578125,2.38037109375
11.3499999,-8.547300338745117,-0.6751648783683777,0.2777273952960968,19.9432373046875,-2.166748046875,-0.579833984375
11.3699999,-9.11233139038086,-0.6368576288223267,0.6153098344802856,14.678955078125,-3.35693359375,7.2021484375
11.389999900000001,-9.53849983215332,-0.5147533416748047,0.9361328482627869,6.927490234375,-4.2877197265625,12.63427734375
11.4099999,-9.837775230407715,-0.33758243918418884,1.1779472827911377,-0.4730224609375,-1.0833740234375,8.7432861328125
11.4299999,-10.050858497619629,-0.12928688526153564,1.290474772453308,-7.293701171875,2.7923583984375,6.134033203125
11.4499999,-10.180145263671875,0.023942016065120697,1.2617442607879639,-13.97705078125,3.0364990234375,7.354736328125
11.469999900000001,-10.254365921020508,0.09576806426048279,1.1013327836990356,-17.0440673828125,-1.2969970703125,8.5906982421875
11.4899999,-10.283096313476562,0.08858546614646912,0.849941611289978,-14.8773193359375,-6.5155029296875,12.6495361328125
11.5099999,-10.311826705932617,0.033518824726343155,0.569819986820221,-11.383056640625,-10.07080078125,17.8375244140625
11.5299999,-10.338163375854492,-0.0454898327589035,0.304063618183136,-8.8348388671875,-11.2152099609375,14.9688720703125
11.549999900000001,-10.32858657836914,-0.12449848651885986,0.12449848651885986,-5.5999755859375,-10.650634765625,4.5318603515625
11.569999900000001,-10.292673110961914,-0.1867477297782898,0.009576806798577309,-3.3111572265625,-5.2947998046875,-1.495361328125
11.5899999,-10.220847129821777,-0.2298433631658554,-0.0454898327589035,-2.471923828125,-0.0762939453125,1.40380859375
11.6099999,-10.139444351196289,-0.24181437492370605,-0.05746084079146385,-1.6021728515625,1.9683837890625,2.3651123046875
11.629999900000001,-10.091560363769531,-0.2346317619085312,-0.035913024097681046,0.5340576171875,4.94384765625,-3.4332275390625
11.649999900000001,-10.096348762512207,-0.20111294090747833,0.016759412363171577,2.9449462890625,8.2244873046875,-5.279541015625
11.6699999,-10.14902114868164,-0.12689268589019775,0.07900865375995636,3.7841796875,8.6822509765625,-2.8533935546875
11.6899999,-10.192116737365723,-0.043095629662275314,0.1412578970193863,5.0048828125,4.791259765625,-6.195068359375
11.709999900000001,-10.17296314239502,0.0454898327589035,0.21547815203666687,7.7362060546875,-2.38037109375,-8.4991455078125
11.729999900000001,-10.273519515991211,0.10773907601833344,0.2753331959247589,9.674072265625,-5.096435546875,-1.9378662109375
11.7499999,-10.273519515991211,0.19632454216480255,0.33997663855552673,10.4827880859375,-6.3323974609375,-5.096435546875
11.7699999,-10.503362655639648,0.18914192914962769,0.38546648621559143,10.6048583984375,-2.899169921875,-3.1585693359375
11.7899999,-10.57040023803711,0.304063618183136,0.4118026793003082,10.4217529296875,-1.190185546875,4.8980712890625
11.809999900000001,-10.541669845581055,0.40462008118629456,0.3974374830722809,7.99560546875,-3.0517578125,4.638671875
11.8299999,-10.342951774597168,0.5267243981361389,0.38067805767059326,4.45556640625,-3.72314453125,-1.983642578125
11.8499999,-10.067618370056152,0.5985504388809204,0.3711012601852417,2.38037109375,-3.84521484375,-6.622314453125
11.8699999,-9.895236015319824,0.5410895943641663,0.4118026793003082,2.1820068359375,-4.6844482421875,-7.049560546875
11.889999900000001,-9.832986831665039,0.3687070608139038,0.4620809257030487,0.213623046875,-3.5858154296875,-3.0975341796875
11.9099999,-9.859322547912598,0.20111294090747833,0.5291185975074768,-1.5106201171875,-1.0528564453125,-0.3814697265625
11.9299999,-9.904812812805176,0.12449848651885986,0.667982280254364,-0.7476806640625,-0.946044921875,-2.4871826171875
11.9499999,-9.921571731567383,0.08140286058187485,0.7924807667732239,-7.9345703125,0.5645751953125,-4.3487548828125
11.969999900000001,-9.909601211547852,0.10534487664699554,0.9576807022094727,-22.27783203125,4.1656494140625,-3.72314453125
11.9899999,-9.888052940368652,0.13168109953403473,1.0989385843276978,-31.7840576171875,8.97216796875,-0.4425048828125
12.0099999,-9.861717224121094,-0.0454898327589035,0.9433154463768005,-29.60205078125,9.5977783203125,-0.396728515625
12.0299999,-9.916783332824707,-0.1628057211637497,0.6560112833976746,-17.8070068359375,7.0343017578125,1.5716552734375
12.049999900000001,-10.02452278137207,-0.3495534360408783,0.21787235140800476,-10.6658935546875,4.1351318359375,10.8489990234375
12.069999900000001,-10.108319282531738,-0.3280056416988373,-0.1388636976480484,-7.99560546875,-0.732421875,15.899658203125
12.0899999,-10.20887565612793,-0.19393034279346466,-0.4572925269603729,-2.0294189453125,-8.97216796875,6.28662109375
12.1099999,-10.165780067443848,-0.10295066982507706,-0.5722141861915588,9.8419189453125,-13.0767822265625,-3.6468505859375
12.129999900000001,-10.146626472473145,0.21308395266532898,-0.395043283700943,18.798828125,-14.5416259765625,-2.227783203125
12.149999900000001,-9.911994934082031,0.5578489899635315,0.0694318488240242,7.01904296875,-7.0648193359375,0.640869140625
12.1699999,-9.952696800231934,0.933738648891449,0.6847416758537292,-14.5263671875,3.9215087890625,-3.0517578125
12.1899999,-9.78989028930664,1.259350061416626,1.2761094570159912,-18.463134765625,2.3193359375,-13.031005859375
12.209999900000001,-9.792284965515137,1.2737152576446533,1.6903064250946045,-13.00048828125,5.2032470703125,-18.73779296875
12.229999900000001,-9.876082420349121,0.8690952062606812,1.778891921043396,-12.451171875,15.2435302734375,-20.6756591796875
12.2499999,-9.763554573059082,0.4405331015586853,1.702277421951294,-11.932373046875,23.681640625,-15.0299072265625
12.2699999,-9.938331604003906,-0.090979665517807,1.359906554222107,-11.3983154296875,30.8685302734375,-3.6773681640625
12.289999900000002,-9.897629737854004,-0.3926490843296051,0.8259995579719543,-7.3089599609375,18.280029296875,-3.5400390625
12.309999900000001,-10.012551307678223,-0.6392518281936646,0.24660277366638184,-1.6326904296875,9.09423828125,-10.92529296875
12.3299999,-10.08437728881836,-0.8092401623725891,-0.395043283700943,1.2664794921875,10.7421875,-13.092041015625
12.3499999,-10.194510459899902,-0.8786720037460327,-1.0749965906143188,4.119873046875,3.0975341796875,6.8359375
12.3699999,-10.15141487121582,-0.7230489253997803,-1.0989385843276978,4.4708251953125,-8.7432861328125,9.246826171875
12.389999900000001,-10.20887565612793,-0.6607996821403503,-1.0007762908935547,7.7667236328125,-11.77978515625,1.0833740234375
12.4099999,-10.160991668701172,-0.5003881454467773,-0.6584054827690125,12.7716064453125,-12.87841796875,-3.0059814453125
12.4299999,-9.99100399017334,-0.2561795711517334,-0.21547815203666687,7.5836181640625,-10.2386474609375,4.180908203125
12.4499999,-10.019734382629395,-0.08858546614646912,0.13168109953403473,-7.659912109375,-1.190185546875,7.8125
12.469999900000001,-9.895236015319824,0.07422025501728058,0.5291185975074768,-9.9639892578125,-5.2032470703125,7.3699951171875
12.4899999,-9.974244117736816,0.1843535304069519,0.8140285611152649,-4.82177734375,-8.544921875,6.5155029296875
12.5099999,-9.832986831665039,0.1604115068912506,0.933738648891449,-7.4462890625,-4.3182373046875,-0.3509521484375
12.5299999,-9.782708168029785,0.1843535304069519,1.1228805780410767,-14.2669677734375,4.9285888671875,-1.5869140625
12.549999900000001,-9.72285270690918,0.3208230137825012,1.170764684677124,-28.7017822265625,13.24462890625,2.3040771484375
12.569999900000001,-9.643844604492188,0.4692635238170624,1.2234370708465576,-38.9862060546875,15.31982421875,5.4168701171875
12.5899999,-9.773131370544434,0.7398083209991455,1.0893617868423462,-41.4581298828125,11.8560791015625,-0.6866455078125
12.6099999,-9.804255485534668,0.6584054827690125,0.8547300100326538,-43.5943603515625,14.70947265625,-12.6190185546875
12.629999900000001,-9.9000244140625,0.48602294921875,0.48602294921875,-31.2652587890625,20.1873779296875,-17.51708984375
12.649999900000001,-10.086771965026855,-0.22505496442317963,-0.12449848651885986,-10.7574462890625,16.3726806640625,-5.9814453125
12.6699999,-10.292673110961914,-1.036689281463623,-0.9696516990661621,19.8974609375,6.1492919921875,8.1787109375
12.6899999,-10.393229484558105,-1.7525556087493896,-1.8171991109848022,62.591552734375,-13.85498046875,13.2293701171875
12.709999900000001,-10.453084945678711,-2.011129379272461,-2.3582887649536133,90.240478515625,-32.2418212890625,10.6658935546875
12.729999900000001,-10.369287490844727,-1.6041151285171509,-2.341529369354248,87.493896484375,-33.7371826171875,6.8206787109375
12.7499999,-10.105925559997559,-0.5578489899635315,-1.3431471586227417,55.908203125,-26.2451171875,7.354736328125
12.7699999,-10.062829971313477,0.6224924325942993,-0.10055647045373917,0,-12.7105712890625,4.0435791015625
12.789999900000002,-9.847352027893066,1.5418659448623657,1.292868971824646,-38.3758544921875,-8.4991455078125,-1.3427734375
12.809999900000001,-9.825803756713867,1.946485996246338,2.126051187515259,-44.7998046875,-1.28173828125,-6.7901611328125
12.8299999,-9.744400978088379,1.5873557329177856,2.255337953567505,-31.9976806640625,2.0751953125,-14.7857666015625
12.8499999,-9.708487510681152,0.7493851184844971,1.9608511924743652,-12.603759765625,7.7667236328125,-9.2926025390625
12.8699999,-9.801861763000488,-0.1388636976480484,1.3455413579940796,-3.5400390625,11.1846923828125,4.94384765625
12.889999900000001,-9.823410034179688,-0.8786720037460327,0.667982280254364,4.5013427734375,5.4168701171875,13.4735107421875
12.9099999,-10.04846477508545,-1.1085153818130493,0.21787235140800476,16.265869140625,-1.6937255859375,9.7808837890625
12.9299999,-9.919178009033203,-0.8523358106613159,0.05506663769483566,14.556884765625,-5.1727294921875,-0.1373291015625
12.9499999,-10.067618370056152,-0.21547815203666687,0.13407529890537262,-3.326416015625,4.547119140625,-7.1868896484375
12.969999900000001,-9.928754806518555,0.44532153010368347,0.40462008118629456,-23.284912109375,12.481689453125,-6.4849853515625
12.9899999,-9.923966407775879,0.7781155705451965,0.5147533416748047,-26.9622802734375,10.101318359375,-3.2196044921875
13.0099999,-10.029311180114746,0.7733271718025208,0.3423708379268646,-9.7808837890625,0.0762939453125,-8.6822509765625
13.0299999,-10.019734382629395,0.2298433631658554,0,12.5885009765625,-5.706787109375,-10.6964111328125
13.049999900000001,-10.144232749938965,-0.38067805767059326,-0.3758896589279175,31.3720703125,-4.0435791015625,-7.4462890625
13.069999900000001,-10.050858497619629,-0.7206547260284424,-0.3974374830722809,35.5377197265625,-5.2947998046875,1.6021728515625
13.0899999,-10.079588890075684,-0.7972691655158997,-0.090979665517807,15.5487060546875,-4.9285888671875,8.4075927734375
13.1099999,-9.967061996459961,-0.3663128614425659,0.47165772318840027,-11.9171142578125,-3.0364990234375,3.1585693359375
13.129999900000001,-9.8784761428833,0.10295066982507706,1.0630255937576294,-35.552978515625,4.302978515625,-3.0059814453125
13.149999900000001,-9.763554573059082,0.5602431893348694,1.479616641998291,-46.3714599609375,10.162353515625,-9.8114013671875
13.1699999,-9.744400978088379,0.7182605266571045,1.3910311460494995,-51.3916015625,19.5770263671875,-9.674072265625
13.1899999,-9.861717224121094,0.26575639843940735,0.9385270476341248,-42.0989990234375,20.233154296875,-4.638671875
13.209999900000001,-10.038887977600098,-0.42616790533065796,0.014365210197865963,2.7008056640625,5.2642822265625,6.3629150390625
13.229999900000001,-10.251971244812012,-1.2306196689605713,-0.828393816947937,47.9583740234375,-9.70458984375,10.1165771484375
13.2499999,-10.302249908447266,-1.7070658206939697,-1.6160861253738403,68.7103271484375,-21.8505859375,4.5928955078125
13.2699999,-10.182539939880371,-1.482010841369629,-1.5921441316604614,72.4029541015625,-20.8740234375,4.8370361328125
13.289999900000002,-10.144232749938965,-0.6536170840263367,-1.0031704902648926,44.952392578125,-15.472412109375,6.2103271484375
13.309999900000001,-9.988609313964844,0.2801215946674347,-0.06224924325942993,2.9296875,-12.5274658203125,3.5552978515625
13.3299999,-9.955090522766113,1.036689281463623,0.9888052940368652,-14.0228271484375,-9.796142578125,-5.401611328125
13.3499999,-9.835380554199219,1.2737152576446533,1.558625340461731,-17.181396484375,-3.96728515625,-11.199951171875
13.3699999,-9.816226959228516,1.0582371950149536,1.8339585065841675,-12.2528076171875,2.7008056640625,-10.986328125
13.389999900000001,-9.751583099365234,0.47884035110473633,1.7525556087493896,-10.07080078125,11.016845703125,-1.678466796875
13.4099999,-9.801861763000488,-0.15322890877723694,1.4197616577148438,-13.885498046875,12.9852294921875,8.3160400390625
13.4299999,-9.9000244140625,-0.6320692300796509,0.9648633003234863,-4.33349609375,3.9215087890625,7.965087890625
13.4499999,-9.921571731567383,-0.8690952062606812,0.5746083855628967,6.927490234375,-0.18310546875,8.148193359375
13.469999900000001,-9.962273597717285,-0.5530605912208557,0.4405331015586853,-2.410888671875,2.25830078125,1.5411376953125
13.4899999,-9.914389610290527,-0.002394201699644327,0.40701428055763245,-27.0538330078125,15.07568359375,-5.06591796875
13.5099999,-9.955090522766113,0.4572925269603729,0.5841852426528931,-41.50390625,18.1121826171875,-3.90625
13.5299999,-9.976638793945312,0.667982280254364,0.31124621629714966,-31.2347412109375,6.011962890625,-5.462646484375
13.549999900000001,-10.105925559997559,0.30885201692581177,-0.05506663769483566,-3.143310546875,-1.678466796875,-5.7220458984375
13.569999900000001,-10.134655952453613,-0.33997663855552673,-0.5626373887062073,20.99609375,-8.3770751953125,-7.110595703125
13.5899999,-10.086771965026855,-0.9050082564353943,-0.8643068075180054,36.43798828125,-8.331298828125,0.091552734375
13.6099999,-10.113107681274414,-1.2641384601593018,-0.7230489253997803,33.660888671875,-7.38525390625,12.939453125
13.629999900000001,-9.959878921508789,-1.113303780555725,-0.2346317619085312,17.08984375,-14.4500732421875,15.2740478515625
13.649999900000001,-9.952696800231934,-0.4429273009300232,0.6057330369949341,-7.5836181640625,-7.3699951171875,7.8277587890625
13.6699999,-9.727641105651855,0.38546648621559143,1.4389152526855469,-40.7257080078125,4.913330078125,0.1220703125
13.6899999,-9.567230224609375,1.2330138683319092,2.008735179901123,-65.185546875,18.00537109375,-8.8653564453125
13.709999900000001,-9.732429504394531,1.400607943534851,1.987187385559082,-76.2176513671875,27.5726318359375,-9.8724365234375
13.729999900000001,-9.6989107131958,0.9169792532920837,1.1851298809051514,-56.1065673828125,17.3797607421875,-4.4097900390625
13.7499999,-10.199298858642578,-0.14604631066322327,-0.15083470940589905,2.8533935546875,1.678466796875,0.579833984375
13.7699999,-10.362105369567871,-1.237802267074585,-1.4867992401123047,65.8111572265625,-19.6380615234375,7.5531005859375
13.789999900000002,-10.450690269470215,-1.8938134908676147,-2.209848165512085,98.4954833984375,-32.012939453125,5.5084228515625
13.809999900000001,-10.395624160766602,-1.6735470294952393,-2.0901381969451904,93.8720703125,-26.79443359375,0.7476806640625
13.8299999,-10.251971244812012,-0.9696516990661621,-1.0247182846069336,61.004638671875,-20.294189453125,8.23974609375
13.8499999,-9.921571731567383,0.2082955539226532,0.47644615173339844,19.3023681640625,-17.5628662109375,6.7291259765625
13.8699999,-9.821015357971191,1.2066776752471924,1.802833914756775,-22.918701171875,-4.180908203125,-4.425048828125
13.889999900000001,-9.615114212036133,1.7908629179000854,2.801215887069702,-51.6204833984375,9.979248046875,-12.298583984375
13.9099999,-9.528923034667969,1.766920804977417,2.920926094055176,-65.00244140625,22.6287841796875,-15.44189453125
13.9299999,-9.720458984375,1.0869675874710083,2.293645143508911,-51.025390625,23.590087890625,-4.2572021484375
13.9499999,-9.799467086791992,-0.10773907601833344,1.0773907899856567,-8.60595703125,6.16455078125,8.11767578125
13.969999900000001,-10.067618370056152,-1.1468225717544556,-0.1364694982767105,33.8287353515625,-5.3863525390625,11.5814208984375
13.9899999,-10.132261276245117,-1.6615760326385498,-0.9002198576927185,49.3927001953125,-14.0838623046875,10.43701171875
14.0099999,-9.983820915222168,-1.3958195447921753,-0.8140285611152649,36.0260009765625,-10.1470947265625,6.0882568359375
14.0299999,-10.04846477508545,-0.5746083855628967,-0.181959331035614,0.579833984375,3.082275390625,2.4871826171875
14.049999900000001,-9.840168952941895,0.3926490843296051,0.727837324142456,-28.5186767578125,2.5177001953125,2.3956298828125
14.069999900000001,-9.976638793945312,1.0055646896362305,1.314416766166687,-42.4652099609375,7.0648193359375,-3.631591796875
14.0899999,-9.90241813659668,1.1420341730117798,1.558625340461731,-37.0330810546875,9.796142578125,-5.7220458984375
14.1099999,-9.823410034179688,0.9385270476341248,1.3646949529647827,-24.810791015625,13.3209228515625,-4.82177734375
14.129999900000001,-9.873687744140625,0.49320554733276367,1.0678139925003052,-21.30126953125,16.876220703125,-5.035400390625
14.149999900000001,-9.713275909423828,-0.06703764945268631,0.6488286852836609,-22.705078125,13.4429931640625,3.7384033203125
14.1699999,-9.90241813659668,-0.304063618183136,0.1604115068912506,-18.4478759765625,11.9171142578125,8.1787109375
14.1899999,-10.11550235748291,-0.4118026793003082,-0.23702596127986908,-12.26806640625,0.7781982421875,4.8370361328125
14.209999900000001,-10.103530883789062,-0.35673606395721436,-0.5123591423034668,-13.4124755859375,-12.1612548828125,-9.4757080078125
14.229999900000001,-10.378864288330078,-0.47165772318840027,-0.629675030708313,-3.021240234375,-2.8839111328125,-16.0064697265625
14.2499999,-10.292673110961914,-0.6919242739677429,-0.5985504388809204,26.55029296875,-5.9356689453125,5.706787109375
14.2699999,-10.211270332336426,-1.0342950820922852,-0.4213795065879822,55.7708740234375,-12.725830078125,17.303466796875
14.289999900000002,-10.141838073730469,-0.9169792532920837,-0.21547815203666687,62.8204345703125,-15.380859375,7.1563720703125
14.309999900000001,-10.014945983886719,-0.21308395266532898,0.4141969084739685,40.5731201171875,-9.94873046875,3.570556640625
14.3299999,-9.701305389404297,0.689530074596405,1.2330138683319092,-7.232666015625,9.1552734375,-9.063720703125
14.3499999,-9.81143856048584,1.3623007535934448,1.867477297782898,-49.346923828125,25.054931640625,-15.2587890625
14.3699999,-9.593565940856934,1.4652514457702637,1.9800047874450684,-53.4515380859375,20.08056640625,-5.0506591796875
14.389999900000001,-9.921571731567383,0.8331822156906128,1.2665326595306396,-24.627685546875,13.4124755859375,-0.54931640625
14.4099999,-9.955090522766113,0.035913024097681046,0.3447650372982025,9.4757080078125,-5.126953125,-0.0152587890625
14.4299999,-10.031704902648926,-0.667982280254364,-0.4884171485900879,22.3236083984375,-6.8817138671875,-1.4190673828125
14.4499999,-10.20887565612793,-1.0438719987869263,-0.8068459630012512,18.280029296875,-1.28173828125,-1.0223388671875
14.469999900000001,-10.046070098876953,-1.0821791887283325,-0.5961562395095825,12.664794921875,-6.6680908203125,11.41357421875
14.4899999,-10.132261276245117,-0.751779317855835,-0.22266076505184174,10.8642578125,-6.927490234375,12.20703125
14.5099999,-10.093954086303711,-0.12210428714752197,0.33518823981285095,5.096435546875,-6.5765380859375,2.3345947265625
14.5299999,-9.854534149169922,0.524330198764801,0.9409212470054626,-16.8609619140625,1.7242431640625,-4.8980712890625
14.549999900000001,-9.895236015319824,0.8762778043746948,1.3335703611373901,-42.388916015625,20.4315185546875,-14.0838623046875
14.569999900000001,-9.77791976928711,0.7422025203704834,1.3072341680526733,-37.9791259765625,16.0980224609375,-0.8544921875
14.5899999,-9.86889934539795,0.14365209639072418,0.6871358752250671,-7.75146484375,9.21630859375,9.521484375
14.6099999,-10.08198356628418,-0.4692635238170624,-0.10534487664699554,29.9224853515625,-7.4920654296875,6.072998046875
14.629999900000001,-10.038887977600098,-0.7350199222564697,-0.5171475410461426,37.1856689453125,-17.8375244140625,3.1280517578125
14.649999900000001,-10.0580415725708,-0.6272808313369751,-0.5434837937355042,11.8255615234375,2.13623046875,-4.7607421875
14.6699999,-10.036493301391602,-0.4118026793003082,-0.05027823522686958,-1.220703125,3.662109375,0.5035400390625
14.6899999,-9.928754806518555,-0.2513911724090576,0.31603461503982544,2.2430419921875,-3.96728515625,7.568359375
14.709999900000001,-10.007762908935547,-0.08858546614646912,0.4908113479614258,10.5133056640625,-6.561279296875,9.5672607421875
14.729999900000001,-9.945513725280762,0.22744916379451752,0.7852981686592102,6.2103271484375,-6.5460205078125,10.650634765625
14.7499999,-9.80904483795166,0.545877993106842,0.933738648891449,-22.76611328125,11.993408203125,-6.256103515625
14.7699999,-9.849745750427246,0.6631938815116882,1.1180921792984009,-35.7513427734375,18.0511474609375,-15.13671875
14.789999900000002,-9.746794700622559,0.4429273009300232,0.9385270476341248,-19.3023681640625,7.5836181640625,2.4566650390625
14.809999900000001,-10.005369186401367,-0.05985504388809204,0.272938996553421,11.627197265625,5.7373046875,12.481689453125
14.8299999,-10.127472877502441,-0.26096799969673157,-0.2106897532939911,38.330078125,-8.758544921875,7.14111328125
14.8499999,-10.086771965026855,-0.09816227108240128,-0.2753331959247589,27.191162109375,-11.444091796875,-3.11279296875
14.8699999,-10.062829971313477,0.22744916379451752,-0.0454898327589035,-10.4217529296875,9.185791015625,-19.53125
14.889999900000001,-9.93354320526123,0.3423708379268646,0.4141969084739685,-22.613525390625,13.824462890625,-9.5367431640625
14.9099999,-9.861717224121094,0.090979665517807,0.4692635238170624,-9.429931640625,2.655029296875,8.5601806640625
14.9299999,-10.038887977600098,-0.3902548849582672,0.08140286058187485,9.1400146484375,-3.4332275390625,10.5438232421875
14.9499999,-10.08437728881836,-0.3974374830722809,-0.16998831927776337,25.177001953125,-12.2528076171875,11.7034912109375
14.969999900000001,-10.062829971313477,-0.002394201699644327,0.038307227194309235,12.908935546875,-12.2528076171875,6.5765380859375
14.9899999,-9.931148529052734,0.45010992884635925,0.4620809257030487,-28.6712646484375,9.002685546875,-19.500732421875
15.0099999,-9.890447616577148,0.6416460275650024,0.9145850539207458,-40.313720703125,17.578125,-15.3045654296875
15.0299999,-9.768342971801758,0.40222588181495667,1.0079588890075684,-15.6097412109375,5.8441162109375,10.345458984375
15.049999900000001,-10.010157585144043,-0.2298433631658554,0.4118026793003082,11.3372802734375,-1.2359619140625,12.237548828125
15.069999900000001,-10.134655952453613,-0.4572925269603729,-0.1604115068912506,29.8004150390625,-7.7972412109375,8.880615234375
15.0899999,-10.11789608001709,-0.15801730751991272,-0.16759411990642548,24.688720703125,-13.092041015625,5.4931640625
15.1099999,-9.971850395202637,0.363918662071228,0.05267243832349777,-12.969970703125,2.0599365234375,-12.51220703125
15.129999900000001,-9.876082420349121,0.730231523513794,0.6416460275650024,-39.0472412109375,21.1181640625,-17.425537109375
15.149999900000001,-9.768342971801758,0.5746083855628967,0.8906430602073669,-27.252197265625,10.3912353515625,-0.030517578125
15.1699999,-9.9000244140625,-0.004788403399288654,0.4692635238170624,1.617431640625,0.9918212890625,7.9345703125
15.1899999,-10.098742485046387,-0.4668693244457245,-0.15322890877723694,30.45654296875,-6.9427490234375,11.0626220703125
15.209999900000001,-10.158597946166992,-0.38307225704193115,-0.38067805767059326,34.3017578125,-16.2200927734375,5.43212890625
15.229999900000001,-10.029311180114746,-0.026336219161748886,-0.090979665517807,-2.4871826171875,-6.3629150390625,-10.0555419921875
15.2499999,-10.043676376342773,0.3687070608139038,0.42856210470199585,-43.15185546875,16.5252685546875,-16.3726806640625
15.2699999,-9.895236015319824,0.3519476354122162,0.9002198576927185,-38.970947265625,14.8468017578125,7.8887939453125
15.289999900000002,-9.950302124023438,-0.019153613597154617,0.5602431893348694,-8.6517333984375,1.3580322265625,14.8773193359375
15.309999900000001,-10.153809547424316,-0.42616790533065796,-0.10055647045373917,24.1241455078125,-8.941650390625,6.805419921875
15.3299999,-10.14902114868164,-0.33518823981285095,-0.48602294921875,37.65869140625,-18.1427001953125,7.080078125
15.3499999,-10.06043529510498,0.0933738648891449,-0.1628057211637497,13.3514404296875,-12.725830078125,1.7547607421875
15.3699999,-9.859322547912598,0.4908113479614258,0.48602294921875,-34.5611572265625,13.580322265625,-16.0369873046875
15.389999900000001,-9.77791976928711,0.6272808313369751,1.0989385843276978,-47.088623046875,20.7061767578125,-5.279541015625
15.4099999,-9.672574996948242,0.2777273952960968,1.0127472877502441,-17.1051025390625,5.8441162109375,16.021728515625
15.4299999,-10.005369186401367,-0.038307227194309235,0.22505496442317963,20.99609375,-4.425048828125,16.0064697265625
15.4499999,-10.127472877502441,-0.10534487664699554,-0.395043283700943,39.886474609375,-16.0064697265625,1.312255859375
15.469999900000001,-10.11789608001709,0.3423708379268646,-0.2992752194404602,22.94921875,-17.9595947265625,-9.1094970703125
15.4899999,-9.981427192687988,0.6272808313369751,0.17238251864910126,-23.6053466796875,5.5389404296875,-18.646240234375
15.5099999,-9.84495735168457,0.5147533416748047,0.8762778043746948,-39.4439697265625,20.5078125,-8.1024169921875
15.5299999,-9.744400978088379,-0.10055647045373917,0.9959878921508789,-10.1318359375,7.537841796875,14.3585205078125
15.549999900000001,-9.964667320251465,-0.6344634294509888,0.4165911078453064,22.9339599609375,-3.9215087890625,19.0277099609375
15.569999900000001,-10.070012092590332,-0.6631938815116882,-0.11971008777618408,34.6221923828125,-10.9710693359375,15.411376953125
15.5899999,-10.127472877502441,0.05985504388809204,0.0071826050989329815,9.6893310546875,-10.8642578125,2.38037109375
15.6099999,-9.90241813659668,0.9002198576927185,0.6033388376235962,-47.119140625,8.23974609375,-16.2811279296875
15.629999900000001,-9.821015357971191,1.256955862045288,1.1085153818130493,-80.5206298828125,35.5072021484375,-18.6767578125
15.649999900000001,-9.682151794433594,0.8786720037460327,1.1468225717544556,-49.0875244140625,21.2860107421875,6.53076171875
15.6699999,-9.895236015319824,-0.035913024097681046,0.13407529890537262,5.1116943359375,-1.28173828125,17.7764892578125
15.6899999,-10.103530883789062,-0.5985504388809204,-0.8906430602073669,41.7938232421875,-16.693115234375,14.09912109375
15.709999900000001,-10.17296314239502,-0.38067805767059326,-1.0773907899856567,36.0260009765625,-23.895263671875,6.4544677734375
15.729999900000001,-10.005369186401367,0.47405192255973816,-0.19393034279346466,-19.8211669921875,-6.7901611328125,-7.4310302734375
15.7499999,-9.720458984375,1.2952631711959839,0.9097966551780701,-87.310791015625,29.8309326171875,-23.3154296875
15.7699999,-9.737217903137207,1.3838485479354858,1.4867992401123047,-90.8050537109375,38.7420654296875,-12.6495361328125
15.789999900000002,-9.66299819946289,0.7350199222564697,1.0845733880996704,-33.0657958984375,7.2784423828125,9.27734375
15.809999900000001,-10.043676376342773,-0.44532153010368347,-0.40462008118629456,17.51708984375,-9.8114013671875,14.129638671875
15.8299999,-10.29746150970459,-1.0654197931289673,-1.5538369417190552,45.8984375,-19.47021484375,13.24462890625
15.8499999,-10.134655952453613,-0.9576807022094727,-1.6519991159439087,41.7022705078125,-31.79931640625,7.01904296875
15.869999900000002,-10.029311180114746,-0.16519992053508759,-0.6440402865409851,-3.8299560546875,-16.0064697265625,-7.232666015625
15.889999900000001,-9.775525093078613,0.6727706789970398,0.6488286852836609,-60.4705810546875,17.730712890625,-15.411376953125
15.9099999,-9.710882186889648,1.194706678390503,1.6927006244659424,-65.7501220703125,27.52685546875,3.7689208984375
15.9299999,-9.775525093078613,0.828393816947937,1.4844050407409668,-22.03369140625,8.026123046875,6.8817138671875
15.9499999,-10.110713958740234,0.2059013396501541,0.4118026793003082,32.745361328125,-7.99560546875,-3.4332275390625
15.969999900000001,-10.256759643554688,-0.35673606395721436,-0.7493851184844971,70.80078125,-17.6544189453125,1.3580322265625
15.9899999,-10.261548042297363,-0.42616790533065796,-0.9983820915222168,74.981689453125,-27.34375,-0.67138671875
16.0099999,-10.002974510192871,0.16759411990642548,-0.028730420395731926,25.9857177734375,-11.5509033203125,-9.2620849609375
16.0299999,-9.744400978088379,0.7445967197418213,1.1228805780410767,-57.220458984375,31.0821533203125,-10.772705078125
16.0499999,-9.586383819580078,1.0845733880996704,1.900996208190918,-77.667236328125,38.87939453125,1.6021728515625
16.0699999,-9.679757118225098,0.8212111592292786,1.278503656387329,-24.932861328125,14.2822265625,5.9967041015625
16.089999900000002,-10.046070098876953,0.10295066982507706,-0.2777273952960968,32.562255859375,-18.6309814453125,-6.3934326171875
16.109999900000002,-10.194510459899902,-0.4908113479614258,-1.4413094520568848,49.62158203125,-34.48486328125,6.3323974609375
16.1299999,-9.919178009033203,-0.06464344263076782,-0.09816227108240128,-19.6990966796875,-6.988525390625,2.0751953125
16.1499999,-9.720458984375,0.33279404044151306,1.2880805730819702,-94.78759765625,35.64453125,-4.6234130859375
16.1699999,-9.526528358459473,0.6224924325942993,2.1045033931732178,-73.4405517578125,27.40478515625,10.07080078125
16.1899999,-9.813833236694336,0.2944868206977844,1.290474772453308,-6.6375732421875,2.777099609375,14.3280029296875
16.2099999,-10.005369186401367,-0.09816227108240128,-0.17238251864910126,44.2657470703125,-17.578125,1.708984375
16.2299999,-10.110713958740234,-0.0694318488240242,-1.0606313943862915,65.00244140625,-24.10888671875,-0.4119873046875
16.249999900000002,-9.8784761428833,0.47884035110473633,-0.6033388376235962,32.1807861328125,-18.6309814453125,-2.6092529296875
16.269999900000002,-9.466673851013184,1.1061211824417114,0.8451532125473022,-54.3670654296875,14.495849609375,-14.2669677734375
16.2899999,-8.652645111083984,1.3431471586227417,2.008735179901123,-111.907958984375,46.2646484375,-5.096435546875
16.3099999,-7.872135162353516,0.9624691009521484,2.030282974243164,-71.746826171875,47.7294921875,21.636962890625
16.3299999,-7.082048416137695,-0.17717093229293823,0.8044517636299133,13.9923095703125,1.190185546875,14.5416259765625
16.3499999,-6.722918510437012,-1.2545616626739502,-0.9816226959228516,71.59423828125,-22.003173828125,19.683837890625
16.3699999,-7.029376029968262,-1.556231141090393,-1.534683346748352,89.6148681640625,-24.932861328125,27.801513671875
16.3899999,-8.288725852966309,-0.6847416758537292,-0.7374141216278076,47.0733642578125,1.434326171875,33.8287353515625
16.4099999,-10.805032730102539,1.0869675874710083,-0.023942016065120697,-44.2962646484375,56.9610595703125,-4.2724609375
16.429999900000002,-13.046005249023438,2.2146365642547607,0.5003881454467773,-91.9189453125,48.8433837890625,-35.9954833984375
16.4499999,-14.465766906738281,2.4420857429504395,0.16519992053508759,-48.7823486328125,-14.923095703125,-14.6026611328125
16.4699999,-14.298172950744629,1.2952631711959839,-0.8427590131759644,27.5726318359375,-37.0025634765625,35.7208251953125
16.4899999,-12.887988090515137,0.40462008118629456,-0.751779317855835,71.0601806640625,-45.59326171875,53.6041259765625
16.5099999,-11.065999984741211,0.42377370595932007,-0.09576806426048279,31.3568115234375,-3.3416748046875,20.172119140625
16.5299999,-9.84495735168457,0.5578489899635315,0.13168109953403473,-31.585693359375,30.670166015625,-53.3447265625
16.5499999,-9.227252960205078,0.7493851184844971,0.3232172429561615,-19.8974609375,4.82177734375,-54.7637939453125
16.5699999,-9.105149269104004,0.12449848651885986,-0.17956513166427612,36.6058349609375,-25.3753662109375,9.6435546875
16.589999900000002,-9.244012832641602,-0.5219359993934631,-0.2849099934101105,54.3975830078125,-21.0723876953125,21.1181640625
16.609999900000002,-9.593565940856934,-0.7757213711738586,-0.12928688526153564,18.1732177734375,15.2435302734375,-11.29150390625
16.6299999,-9.763554573059082,-0.3926490843296051,0.40462008118629456,2.2735595703125,32.3028564453125,-23.8494873046875
16.6499999,-9.926360130310059,-0.14844051003456116,0.45489832758903503,17.669677734375,13.2598876953125,-11.7950439453125
16.6699999,-9.885659217834473,-0.031124621629714966,0.1149216815829277,34.332275390625,-3.96728515625,-4.730224609375
16.6899999,-10.055646896362305,0.043095629662275314,-0.3208230137825012,22.2320556640625,-12.8936767578125,5.0811767578125
16.7099999,-10.113107681274414,0.22266076505184174,-0.5506663918495178,-2.0751953125,-16.4794921875,1.52587890625
16.7299999,-10.223240852355957,0.5530605912208557,-0.4381389021873474,-9.6282958984375,-13.702392578125,-19.744873046875
16.749999900000002,-10.211270332336426,0.8307880163192749,-0.0933738648891449,-2.9449462890625,-3.72314453125,-33.1573486328125
16.769999900000002,-10.139444351196289,0.8978256583213806,0.272938996553421,13.6260986328125,3.021240234375,-33.3709716796875
16.7899999,-9.995792388916016,0.7254431247711182,0.6392518281936646,21.148681640625,-1.15966796875,-13.702392578125
16.8099999,-9.914389610290527,0.5267243981361389,0.9169792532920837,8.3770751953125,-3.96728515625,7.904052734375
16.8299999,-9.904812812805176,0.24181437492370605,0.9648633003234863,1.64794921875,2.4566650390625,5.5389404296875
16.8499999,-9.93354320526123,0.4189853072166443,0.9696516990661621,-20.538330078125,0.030517578125,2.8839111328125
16.8699999,-9.919178009033203,0.38067805767059326,0.727837324142456,7.9345703125,3.9520263671875,-9.09423828125
16.8899999,-9.971850395202637,0.5003881454467773,0.35673606395721436,36.8804931640625,7.0953369140625,-15.68603515625
16.9099999,-9.986215591430664,0.3926490843296051,0.11971008777618408,38.8031005859375,-3.021240234375,-8.0413818359375
16.929999900000002,-10.04846477508545,0.2298433631658554,-0.040701430290937424,33.4625244140625,-7.476806640625,-0.274658203125
16.9499999,-10.11550235748291,0.10295066982507706,-0.0454898327589035,24.2919921875,-4.39453125,0.213623046875
16.9699999,-10.125079154968262,0.06224924325942993,0.05746084079146385,13.397216796875,-4.2266845703125,-0.1068115234375
16.9899999,-10.103530883789062,0.05506663769483566,0.1867477297782898,5.2490234375,-8.6212158203125,2.3040771484375
17.0099999,-10.070012092590332,-0.026336219161748886,0.3519476354122162,7.0953369140625,-5.859375,4.7454833984375
17.0299999,-10.031704902648926,-0.1388636976480484,0.5147533416748047,13.12255859375,0.9765625,9.4146728515625
17.0499999,-9.940725326538086,-0.22266076505184174,0.5746083855628967,8.97216796875,4.2266845703125,14.09912109375
17.0699999,-9.9000244140625,-0.2585737705230713,0.5099649429321289,6.866455078125,1.9683837890625,11.6119384765625
17.089999900000002,-9.86889934539795,-0.22744916379451752,0.35913026332855225,7.50732421875,-1.5411376953125,4.5318603515625
17.109999900000002,-9.880870819091797,-0.1628057211637497,0.24660277366638184,9.765625,-0.3662109375,3.387451171875
17.1299999,-9.926360130310059,-0.009576806798577309,0.26096799969673157,4.57763671875,2.044677734375,2.7313232421875
17.1499999,-9.979032516479492,0.09816227108240128,0.23702596127986908,-2.44140625,4.8980712890625,0.1983642578125
17.1699999,-10.06043529510498,0.16519992053508759,0.181959331035614,8.056640625,2.3040771484375,-4.3182373046875
17.1899999,-10.134655952453613,0.14365209639072418,0.035913024097681046,28.6865234375,-6.072998046875,-5.0811767578125
17.2099999,-10.218452453613281,-0.021547814831137657,0.0071826050989329815,35.2783203125,-6.4849853515625,0.79345703125
17.2299999,-10.11550235748291,-0.10055647045373917,0.3208230137825012,31.6009521484375,-3.3111572265625,0.2593994140625
17.249999900000002,-10.20648193359375,0.047884032130241394,0.8044517636299133,20.233154296875,10.6658935546875,-0.06103515625
17.269999900000002,-10.395624160766602,0.26575639843940735,1.1061211824417114,2.62451171875,27.9998779296875,-6.53076171875
17.2899999,-10.441113471984863,0.40462008118629456,0.9289502501487732,-5.43212890625,22.552490234375,-11.0931396484375
17.3099999,-10.431536674499512,0.5003881454467773,0.35434186458587646,0.9002685546875,4.7760009765625,12.298583984375
17.3299999,-10.529699325561523,0.44771572947502136,-0.2777273952960968,6.7901611328125,-10.8184814453125,23.9105224609375
17.3499999,-10.496180534362793,0.42616790533065796,-0.6272808313369751,1.983642578125,-13.0615234375,-5.37109375
17.3699999,-10.955866813659668,0.5099649429321289,-0.5434837937355042,-2.3040771484375,-4.2877197265625,-20.8892822265625
17.3899999,-10.855310440063477,0.4572925269603729,-0.2849099934101105,-7.110595703125,-5.37109375,-10.1318359375
17.409999900000003,-10.369287490844727,0.1604115068912506,-0.08619125932455063,-2.44140625,-4.547119140625,6.2103271484375
17.429999900000002,-9.643844604492188,0.021547814831137657,0.22026655077934265,17.333984375,-11.8255615234375,22.5067138671875
17.4499999,-9.083600997924805,-0.12928688526153564,0.5482721924781799,17.7459716796875,-7.9498291015625,9.3994140625
17.4699999,-9.23443603515625,0.09576806426048279,0.9241618514060974,5.462646484375,10.6048583984375,-14.83154296875
17.4899999,-9.823410034179688,0.33758243918418884,1.139639973640442,-3.9520263671875,19.989013671875,-18.6767578125
17.5099999,-10.043676376342773,0.28969839215278625,0.9409212470054626,-6.5765380859375,15.350341796875,-8.056640625
17.5299999,-10.15141487121582,0.26575639843940735,0.4141969084739685,9.3994140625,8.1634521484375,17.63916015625
17.5499999,-10.134655952453613,0.05506663769483566,-0.1388636976480484,18.2037353515625,-13.763427734375,16.2353515625
17.5699999,-10.125079154968262,0.090979665517807,-0.5003881454467773,11.3983154296875,-9.521484375,-12.939453125
17.589999900000002,-10.383652687072754,0.22266076505184174,-0.45489832758903503,4.9285888671875,-1.190185546875,-11.3372802734375
17.609999900000002,-10.32858657836914,0.24660277366638184,-0.12928688526153564,-2.99072265625,-0.762939453125,0.48828125
17.6299999,-9.885659217834473,0.18914192914962769,0.181959331035614,-0.4119873046875,1.0223388671875,-0.244140625
17.6499999,-9.308655738830566,0.06703764945268631,0.44771572947502136,15.2435302734375,-2.0751953125,-2.5634765625
17.6699999,-9.315838813781738,0.002394201699644327,0.569819986820221,16.6473388671875,2.9296875,-1.0986328125
17.6899999,-9.57201862335205,0.0933738648891449,0.5841852426528931,4.3487548828125,4.8370361328125,-17.5628662109375
17.7099999,-10.515334129333496,0.26815059781074524,0.5363011956214905,-9.7808837890625,8.85009765625,-12.420654296875
17.7299999,-11.338939666748047,0.4165911078453064,0.35913026332855225,-14.9078369140625,9.2620849609375,-0.9613037109375
17.749999900000002,-11.784260749816895,0.43335050344467163,0.06224924325942993,-9.9029541015625,3.5247802734375,-12.1002197265625
17.769999900000002,-11.954249382019043,0.3256114423274994,-0.3280056416988373,0.518798828125,-3.4942626953125,-13.5345458984375
17.7899999,-11.736376762390137,0.10295066982507706,-0.6200982332229614,9.735107421875,-11.5509033203125,-14.7705078125
17.8099999,-11.384428977966309,-0.11252748221158981,-0.667982280254364,16.3116455078125,-16.7694091796875,-11.7950439453125
17.8299999,-10.951078414916992,-0.2585737705230713,-0.36152446269989014,19.9737548828125,-22.369384765625,-1.9683837890625
17.8499999,-10.563218116760254,-0.26336219906806946,0.2106897532939911,17.02880859375,-18.524169921875,-0.8392333984375
17.8699999,-10.249577522277832,-0.1628057211637497,0.9026140570640564,10.8489990234375,-9.1705322265625,-13.9923095703125
17.8899999,-9.986215591430664,-0.023942016065120697,1.482010841369629,4.364013671875,-5.035400390625,-27.191162109375
17.909999900000003,-9.768342971801758,0.20111294090747833,2.0661959648132324,-3.4027099609375,-3.692626953125,-32.0587158203125
17.929999900000002,-9.576807022094727,0.20350714027881622,2.293645143508911,-21.91162109375,3.4637451171875,-35.70556640625
17.9499999,-9.509769439697266,0.1604115068912506,2.3511061668395996,-27.2674560546875,11.7645263671875,-45.4254150390625
17.9699999,-9.524134635925293,-0.1173158809542656,2.0422539710998535,-14.6942138671875,2.288818359375,-58.6395263671875
17.9899999,-9.567230224609375,-0.5889736413955688,1.5155296325683594,-0.8087158203125,-18.3258056640625,-70.404052734375
18.0099999,-9.567230224609375,-1.1563993692398071,0.912190854549408,12.3748779296875,-28.350830078125,-71.3958740234375
18.0299999,-9.404424667358398,-1.7142484188079834,0.5123591423034668,23.7274169921875,-32.440185546875,-69.549560546875
18.0499999,-9.184157371520996,-2.118868589401245,0.38307225704193115,28.045654296875,-35.1715087890625,-80.078125
18.0699999,-8.98543930053711,-2.3295583724975586,0.5195417404174805,28.01513671875,-36.6363525390625,-100.4180908203125
18.089999900000002,-8.858546257019043,-2.408566951751709,0.8259995579719543,27.618408203125,-36.712646484375,-117.523193359375
18.109999900000002,-8.829815864562988,-2.432508945465088,1.1659762859344482,24.6124267578125,-37.8265380859375,-126.2969970703125
18.1299999,-8.803479194641113,-2.5091233253479004,1.4508862495422363,18.218994140625,-42.2821044921875,-134.7503662109375
18.1499999,-8.767566680908203,-2.6599581241607666,1.6543933153152466,9.857177734375,-46.722412109375,-145.32470703125
18.1699999,-8.698134422302246,-2.918531894683838,1.7693150043487549,0.8392333984375,-47.1038818359375,-152.0538330078125
18.1899999,-8.465897560119629,-3.294421434402466,1.8722656965255737,-10.2386474609375,-48.03466796875,-151.1383056640625
18.2099999,-8.11634349822998,-3.8067808151245117,2.0015525817871094,-20.3094482421875,-46.7529296875,-145.904541015625
18.2299999,-7.704541206359863,-4.4077253341674805,2.121262788772583,-19.2413330078125,-37.933349609375,-139.6636962890625
18.249999900000002,-7.357381820678711,-4.972756862640381,2.231395959854126,-11.4288330078125,-31.0821533203125,-130.7220458984375
18.269999900000002,-7.161057472229004,-5.406107425689697,2.2673089504241943,-2.3040771484375,-25.7415771484375,-122.8485107421875
18.2899999,-7.096413612365723,-5.652710437774658,2.207453966140747,-2.1820068359375,-21.6217041015625,-124.542236328125
18.3099999,-7.01979923248291,-5.7772088050842285,2.073378562927246,-3.96728515625,-19.378662109375,-133.9263916015625
18.3299999,-6.830657482147217,-5.858611583709717,1.9033904075622559,-3.997802734375,-19.317626953125,-140.380859375
18.3499999,-6.514622688293457,-6.004657745361328,1.7405846118927002,-2.3651123046875,-17.791748046875,-140.6402587890625
18.3699999,-6.095637321472168,-6.294356346130371,1.5753847360610962,3.9520263671875,-16.510009765625,-135.5133056640625
18.3899999,-5.66228723526001,-6.677428722381592,1.5107412338256836,7.6446533203125,-17.3797607421875,-130.6915283203125
18.409999900000003,-5.236119270324707,-7.132327079772949,1.4939818382263184,6.7138671875,-25.2838134765625,-122.86376953125
18.429999900000002,-4.845864295959473,-7.575253963470459,1.5753847360610962,3.4637451171875,-23.4222412109375,-114.8223876953125
18.4499999,-4.525041103363037,-7.967903137207031,1.7070658206939697,-1.3885498046875,-13.0767822265625,-110.8856201171875
18.4699999,-4.247313976287842,-8.274360656738281,1.8555063009262085,-5.92041015625,-3.326416015625,-106.0028076171875
18.4899999,-4.010287761688232,-8.489839553833008,1.987187385559082,-8.5906982421875,1.8768310546875,-103.8360595703125
18.5099999,-3.8115692138671875,-8.62630844116211,2.054224967956543,-12.3443603515625,7.7667236328125,-101.1505126953125
18.5299999,-3.624821424484253,-8.712499618530273,2.078166961669922,-14.7552490234375,14.068603515625,-100.03662109375
18.5499999,-3.423708438873291,-8.738836288452148,2.099714994430542,-14.892578125,21.30126953125,-99.18212890625
18.5699999,-3.1914708614349365,-8.7484130859375,2.1068975925445557,-14.9688720703125,31.3262939453125,-99.212646484375
18.589999900000002,-2.940079689025879,-8.798690795898438,2.0638017654418945,-15.5792236328125,40.6646728515625,-100.006103515625
18.609999900000002,-2.7126305103302,-8.923190116882324,1.9728221893310547,-14.495849609375,41.412353515625,-97.6715087890625
18.6299999,-2.537853717803955,-9.153033256530762,1.7741034030914307,-8.8043212890625,34.0576171875,-93.536376953125
18.6499999,-2.4444799423217773,-9.437943458557129,1.5705963373184204,-1.40380859375,23.6663818359375,-87.738037109375
18.6699999,-2.3702597618103027,-9.696516990661621,1.4532804489135742,1.4801025390625,15.1214599609375,-81.60400390625
18.6899999,-2.276885747909546,-9.909601211547852,1.4173674583435059,0.152587890625,11.4288330078125,-77.6214599609375
18.7099999,-2.094926595687866,-10.067618370056152,1.525106430053711,0.8544921875,3.631591796875,-70.709228515625
18.7299999,-1.8507179021835327,-10.232817649841309,1.7190368175506592,3.1280517578125,-4.0740966796875,-60.2874755859375
18.749999900000002,-1.577778935432434,-10.38844108581543,1.9321208000183105,3.173828125,-4.94384765625,-48.9044189453125
18.769999900000002,-1.3024457693099976,-10.500968933105469,2.1595699787139893,1.28173828125,-2.1514892578125,-39.4287109375
18.7899999,-1.1061211824417114,-10.553641319274902,2.3032219409942627,0.946044921875,3.0975341796875,-32.16552734375
18.8099999,-0.9959878921508789,-10.520122528076172,2.3558945655822754,2.9296875,2.38037109375,-23.7884521484375
18.8299999,-0.9648633003234863,-10.402806282043457,2.3104045391082764,3.570556640625,-3.41796875,-16.4947509765625
18.8499999,-0.9720458984375,-10.18493366241455,2.205059766769409,2.471923828125,-3.082275390625,-15.594482421875
18.8699999,-0.9840168952941895,-9.904812812805176,2.0614075660705566,-0.06103515625,-2.777099609375,-19.3328857421875
18.8899999,-0.912190854549408,-9.622296333312988,1.9177556037902832,-0.1220703125,-8.4075927734375,-21.8353271484375
18.909999900000003,-0.7613561153411865,-9.402029991149902,1.8411411046981812,0.6256103515625,-19.2413330078125,-24.84130859375
18.929999900000002,-0.5554547905921936,-9.284713745117188,1.8555063009262085,-4.1351318359375,-17.2882080078125,-28.4423828125
18.9499999,-0.42377370595932007,-9.528923034667969,2.049436569213867,-11.8255615234375,-4.425048828125,-32.53173828125
18.9699999,-0.3711012601852417,-9.919178009033203,2.3104045391082764,-15.5487060546875,-2.0751953125,-42.083740234375
18.9899999,-0.1149216815829277,-10.134655952453613,2.5067291259765625,-19.6533203125,-11.8865966796875,-57.647705078125
19.0099999,0.12928688526153564,-10.369287490844727,2.698265314102173,-27.679443359375,-12.5885009765625,-52.520751953125
19.0299999,0.5626373887062073,-10.067618370056152,2.6791117191314697,-34.48486328125,-8.0718994140625,-50.5828857421875
19.0499999,0.9672574996948242,-9.751583099365234,2.7246015071868896,-41.50390625,-0.640869140625,-44.8150634765625
19.0699999,1.1348515748977661,-9.425971984863281,2.7102363109588623,-47.515869140625,0.30517578125,-39.4287109375
19.089999900000002,1.2258312702178955,-9.251194953918457,2.7437551021575928,-54.5806884765625,-3.631591796875,-38.0096435546875
19.109999900000002,1.5275006294250488,-9.95748519897461,2.276885747909546,-59.661865234375,-11.1846923828125,-39.5355224609375
19.1299999,1.8914192914962769,-10.120290756225586,1.580173134803772,-27.9693603515625,-16.387939453125,-27.6336669921875
19.1499999,2.671929121017456,-10.857705116271973,0.4620809257030487,-0.2288818359375,-13.519287109375,6.4849853515625
19.1699999,2.964021682739258,-10.910377502441406,-0.6416460275650024,17.8375244140625,-12.725830078125,22.8271484375
19.1899999,2.978386878967285,-10.704475402832031,-1.4077905416488647,30.9295654296875,1.861572265625,19.1650390625
19.2099999,2.499546527862549,-10.426748275756836,-1.0869675874710083,15.289306640625,13.97705078125,-1.28173828125
19.2299999,1.7764976024627686,-9.914389610290527,-0.26096799969673157,-1.068115234375,16.326904296875,-9.7808837890625
19.249999900000002,1.1659762859344482,-9.792284965515137,0.8547300100326538,-13.3209228515625,14.16015625,-5.8441162109375
19.269999900000002,0.7206547260284424,-9.50498104095459,1.5921441316604614,7.50732421875,-8.6212158203125,-5.4473876953125
19.2899999,0.7781155705451965,-9.550470352172852,1.8818424940109253,25.909423828125,-15.5487060546875,-4.8828125
19.3099999,0.9481038451194763,-9.615114212036133,1.6280571222305298,-5.1727294921875,0.42724609375,-8.1329345703125
19.3299999,1.414973258972168,-9.715670585632324,1.4053963422775269,5.6610107421875,3.0059814453125,7.7972412109375
19.3499999,1.778891921043396,-9.694122314453125,1.357512354850769,8.6517333984375,3.2501220703125,9.3536376953125
19.3699999,1.86508309841156,-9.775525093078613,1.1563993692398071,1.2359619140625,1.03759765625,6.0272216796875
19.3899999,1.7262194156646729,-9.775525093078613,1.1061211824417114,0.1068115234375,0.42724609375,2.86865234375
19.409999900000003,1.4628572463989258,-9.739612579345703,1.1971008777618408,0.9002685546875,2.105712890625,-0.8392333984375
19.429999900000002,1.170764684677124,-9.737217903137207,1.1971008777618408,-2.1820068359375,-1.1749267578125,-1.739501953125
19.4499999,0.9983820915222168,-9.713275909423828,1.2832920551300049,-0.3204345703125,-0.9002685546875,-4.4403076171875
19.4699999,0.9624691009521484,-9.696516990661621,1.3646949529647827,-0.3814697265625,0.8392333984375,-8.0718994140625
19.4899999,1.094150185585022,-9.727641105651855,1.3192051649093628,-3.387451171875,-1.1138916015625,-6.103515625
19.5099999,1.357512354850769,-9.737217903137207,1.2832920551300049,1.373291015625,0.3814697265625,-0.823974609375
19.5299999,1.5897499322891235,-9.75397777557373,1.256955862045288,2.685546875,2.8076171875,2.38037109375
19.5499999,1.7741034030914307,-9.75637149810791,1.1994950771331787,-0.152587890625,2.2735595703125,2.044677734375
19.5699999,1.802833914756775,-9.75397777557373,1.1659762859344482,0.335693359375,1.3427734375,3.265380859375
19.589999900000002,1.7190368175506592,-9.737217903137207,1.192312479019165,3.0975341796875,1.617431640625,4.3487548828125
19.609999900000002,1.5682021379470825,-9.737217903137207,1.2258312702178955,-0.48828125,0.79345703125,1.64794921875
19.6299999,1.3982137441635132,-9.727641105651855,1.2545616626739502,-2.3040771484375,0.335693359375,-0.1983642578125
19.6499999,1.2425906658172607,-9.725247383117676,1.290474772453308,-1.5106201171875,0.396728515625,-1.0528564453125
19.6699999,1.1348515748977661,-9.715670585632324,1.2976573705673218,-1.40380859375,-0.152587890625,-2.532958984375
19.6899999,1.0989385843276978,-9.718064308166504,1.3120225667953491,-0.5645751953125,-0.1678466796875,-3.631591796875
19.7099999,1.1420341730117798,-9.710882186889648,1.3239935636520386,-0.091552734375,0.30517578125,-3.96728515625
19.7299999,1.2425906658172607,-9.727641105651855,1.2856862545013428,-0.030517578125,-0.091552734375,-2.3956298828125
19.749999900000002,1.3694833517074585,-9.732429504394531,1.2689268589019775,0.6561279296875,0.4425048828125,-1.556396484375
19.769999900000002,1.4915876388549805,-9.734824180603027,1.2545616626739502,0.06103515625,0.6561279296875,-1.4801025390625
19.7899999,1.5921441316604614,-9.751583099365234,1.2114660739898682,0.42724609375,0.5340576171875,0.244140625
19.8099999,1.6615760326385498,-9.75397777557373,1.2186486721038818,0.1678466796875,0.8392333984375,1.5869140625
19.8299999,1.623268723487854,-9.75637149810791,1.2210428714752197,-0.18310546875,0.8392333984375,1.9683837890625
19.8499999,1.5538369417190552,-9.744400978088379,1.2425906658172607,-0.030517578125,1.251220703125,1.4190673828125
19.8699999,1.4724340438842773,-9.746794700622559,1.2497732639312744,-0.885009765625,0.7781982421875,1.5869140625
