# Time (seconds),Accel_X,Accel_Y,Accel_Z,Gyro_X,Gyro_Y,Gyro_Z
0.0099999,-9.02135181427002,-1.8195933103561401,0.272938996553421,-17.5018310546875,6.9427490234375,6.2255859375
0.029999900000000003,-9.0859956741333,-1.7094600200653076,0.363918662071228,-16.7694091796875,9.4757080078125,7.4310302734375
0.0499999,-9.279925346374512,-1.5418659448623657,0.47165772318840027,-17.303466796875,5.950927734375,9.7503662109375
0.0699999,-9.514557838439941,-1.3431471586227417,0.569819986820221,-18.890380859375,-1.9378662109375,11.2457275390625
0.08999990000000001,-9.749189376831055,-1.1420341730117798,0.667982280254364,-20.8740234375,-10.040283203125,14.923095703125
0.10999990000000001,-9.950302124023438,-0.950498104095459,0.7589619159698486,-22.76611328125,-10.7574462890625,14.984130859375
0.1299999,-10.079588890075684,-0.8020575642585754,0.849941611289978,-24.1546630859375,-5.2032470703125,6.34765625
0.14999990000000002,-10.14902114868164,-0.7038952708244324,0.9169792532920837,-24.810791015625,-1.8463134765625,-0.67138671875
0.1699999,-10.134655952453613,-0.6607996821403503,0.9552865028381348,-25.115966796875,-6.3934326171875,1.8157958984375
0.1899999,-9.976638793945312,-0.6727706789970398,0.9576807022094727,-24.6124267578125,-11.3983154296875,8.2855224609375
0.20999990000000002,-9.706093788146973,-0.706289529800415,0.9361328482627869,-22.3541259765625,-8.2244873046875,15.4266357421875
0.2299999,-9.418789863586426,-0.7086837291717529,0.8858546018600464,-19.6380615234375,-1.5411376953125,24.017333984375
0.2499999,-9.188945770263672,-0.6320692300796509,0.8044517636299133,-17.8070068359375,-0.67138671875,30.029296875
0.2699999,-9.05247688293457,-0.4884171485900879,0.7182605266571045,-16.4642333984375,-4.3792724609375,31.982421875
0.28999990000000003,-9.119514465332031,-0.26336219906806946,0.6536170840263367,-16.3421630859375,-2.7313232421875,38.0706787109375
0.3099999,-9.86650562286377,-0.26096799969673157,0.5722141861915588,-18.6920166015625,4.3792724609375,32.440185546875
0.3299999,-10.563218116760254,-0.1867477297782898,0.5027823448181152,-20.01953125,7.8582763671875,1.52587890625
0.34999990000000003,-11.295844078063965,-0.43335050344467163,0.3974374830722809,-16.571044921875,3.3416748046875,18.280029296875
0.3699999,-11.563994407653809,-0.6033388376235962,0.2825157940387726,-9.1400146484375,1.5411376953125,32.8369140625
0.3899999,-11.207258224487305,-0.8523358106613159,0.1412578970193863,-1.1444091796875,-3.875732421875,30.792236328125
0.40999990000000003,-10.709263801574707,-0.9911994934082031,0.07422025501728058,4.8675537109375,-9.2010498046875,20.965576171875
0.4299999,-10.223240852355957,-0.9840168952941895,0.0694318488240242,7.8125,-10.894775390625,22.76611328125
0.4499999,-9.923966407775879,-0.7398083209991455,0.10534487664699554,7.8277587890625,-11.566162109375,19.5159912109375
0.4699999,-9.751583099365234,-0.3902548849582672,0.18914192914962769,7.0648193359375,-12.4359130859375,23.223876953125
0.4899999,-9.674968719482422,0.17477671802043915,0.28969839215278625,1.861572265625,-12.75634765625,22.7813720703125
0.5099999,-9.667786598205566,0.6967126727104187,0.33758243918418884,-6.622314453125,-13.73291015625,14.617919921875
0.5299999,-9.739612579345703,1.115697979927063,0.3902548849582672,-9.1552734375,-14.862060546875,8.6212158203125
0.5499999,-9.825803756713867,1.290474772453308,0.45250412821769714,-2.5787353515625,-17.6239013671875,1.8463134765625
0.5699999,-9.873687744140625,1.278503656387329,0.6033388376235962,4.058837890625,-18.9208984375,-0.3509521484375
0.5899998999999999,-9.928754806518555,1.094150185585022,0.7829039692878723,6.2408447265625,-17.5933837890625,-3.1585693359375
0.6099998999999999,-9.95748519897461,0.7996633648872375,1.0223240852355957,10.8795166015625,-16.1285400390625,-6.6986083984375
0.6299999,-9.938331604003906,0.5267243981361389,1.3072341680526733,13.24462890625,-14.09912109375,-5.9051513671875
0.6499999,-9.876082420349121,0.2561795711517334,1.580173134803772,4.94384765625,-8.5906982421875,-2.7923583984375
0.6699999,-9.821015357971191,0.019153613597154617,1.8124107122421265,-5.9661865234375,-0.7171630859375,-0.18310546875
0.6899999,-9.828198432922363,-0.2082955539226532,1.9249382019042969,-10.8642578125,4.5013427734375,1.7852783203125
0.7099999,-9.856928825378418,-0.2944868206977844,1.867477297782898,-10.6353759765625,5.2032470703125,6.40869140625
0.7299998999999999,-9.919178009033203,-0.26336219906806946,1.625662922859192,-9.7198486328125,2.9296875,8.7890625
0.7499998999999999,-9.971850395202637,-0.15562310814857483,1.3072341680526733,-9.5672607421875,1.708984375,5.2337646484375
0.7699999,-10.010157585144043,0.08858546614646912,0.9888052940368652,-7.26318359375,-0.244140625,1.0833740234375
0.7899999,-9.976638793945312,0.42377370595932007,0.6703764796257019,-5.9967041015625,-3.7689208984375,-2.349853515625
0.8099999,-10.002974510192871,0.6153098344802856,0.4668693244457245,-3.021240234375,-8.30078125,-5.218505859375
0.8299999,-10.014945983886719,0.727837324142456,0.3064578175544739,4.2877197265625,-12.908935546875,-7.598876953125
0.8499998999999999,-10.000580787658691,0.6560112833976746,0.35434186458587646,10.55908203125,-15.106201171875,-7.4310302734375
0.8699998999999999,-9.971850395202637,0.4668693244457245,0.5602431893348694,12.5885009765625,-16.4947509765625,-4.33349609375
0.8899999,-9.95748519897461,0.22266076505184174,0.9241618514060974,13.7481689453125,-16.510009765625,-1.861572265625
0.9099999,-9.926360130310059,0.014365210197865963,1.3024457693099976,14.007568359375,-16.54052734375,-0.7476806640625
0.9299999,-9.911994934082031,-0.1867477297782898,1.6879122257232666,10.9710693359375,-13.9923095703125,-1.129150390625
0.9499999,-9.828198432922363,-0.17717093229293823,1.9105730056762695,5.5389404296875,-8.3160400390625,-0.9765625
0.9699998999999999,-9.75397777557373,-0.1628057211637497,2.1547815799713135,-3.2501220703125,-0.946044921875,-0.396728515625
0.9899998999999999,-9.667786598205566,0.004788403399288654,2.1332337856292725,-11.65771484375,6.256103515625,0.244140625
1.0099999,-9.677363395690918,0.1604115068912506,2.0470423698425293,-12.359619140625,7.0648193359375,2.7008056640625
1.0299999,-9.78989028930664,0.2561795711517334,1.845929503440857,-5.2337646484375,2.410888671875,5.0201416015625
1.0499999,-9.876082420349121,0.28969839215278625,1.6160861253738403,0.6103515625,-1.9683837890625,4.5166015625
1.0699999,-9.921571731567383,0.33518823981285095,1.4173674583435059,2.7313232421875,-2.2125244140625,-1.678466796875
1.0899999,-9.890447616577148,0.3280056416988373,1.280897855758667,5.096435546875,-2.1209716796875,-7.50732421875
1.1099999,-9.864110946655273,0.3519476354122162,1.292868971824646,4.302978515625,-1.5411376953125,-6.3934326171875
1.1299999,-9.840168952941895,0.2801215946674347,1.3431471586227417,-2.62451171875,2.9754638671875,-3.5858154296875
1.1499999,-9.849745750427246,0.17477671802043915,1.4748282432556152,-9.0179443359375,7.0343017578125,-0.2593994140625
1.1699998999999999,-9.914389610290527,0.08379705995321274,1.534683346748352,-7.781982421875,5.4931640625,3.509521484375
1.1899998999999999,-9.959878921508789,-0.12210428714752197,1.4484920501708984,-0.4730224609375,-3.5400390625,4.57763671875
1.2099999,-10.007762908935547,-0.2059013396501541,1.256955862045288,6.500244140625,-8.72802734375,0.823974609375
1.2299999,-10.022128105163574,-0.28730419278144836,1.072602391242981,10.8184814453125,-8.4228515625,-0.1373291015625
1.2499999,-9.99100399017334,-0.31124621629714966,0.9672574996948242,11.749267578125,-9.1552734375,4.425048828125
1.2699999,-9.947908401489258,-0.24420857429504395,0.9193734526634216,11.199951171875,-10.9710693359375,6.866455078125
1.2899999,-9.919178009033203,-0.12449848651885986,0.9552865028381348,12.2222900390625,-14.2364501953125,9.033203125
1.3099999,-9.945513725280762,0.0694318488240242,1.139639973640442,11.2762451171875,-17.4407958984375,11.71875
1.3299999,-9.9000244140625,0.35913026332855225,1.434126853942871,0.6866455078125,-18.310546875,8.880615234375
1.3499999,-9.804255485534668,0.5530605912208557,1.7908629179000854,-12.939453125,-10.894775390625,2.01416015625
1.3699999,-9.68694019317627,0.6607996821403503,2.1284453868865967,-17.4407958984375,-1.983642578125,0.8087158203125
1.3899999,-9.593565940856934,0.6799532771110535,2.3558945655822754,-14.4500732421875,1.6937255859375,3.7841796875
1.4099999,-9.581595420837402,0.5722141861915588,2.4205379486083984,-11.4898681640625,2.8228759765625,4.6539306640625
1.4299998999999999,-9.653421401977539,0.5171475410461426,2.3056161403656006,-8.23974609375,3.875732421875,4.8065185546875
1.4499999,-9.782708168029785,0.4668693244457245,2.0853497982025146,-2.6397705078125,-0.8392333984375,6.011962890625
1.4699999,-9.823410034179688,0.45250412821769714,1.8579005002975464,0.7476806640625,-7.50732421875,0.18310546875
1.4899999,-9.864110946655273,0.3974374830722809,1.6543933153152466,-0.67138671875,-3.8604736328125,-4.8828125
1.5099999,-9.840168952941895,0.37828385829925537,1.5873557329177856,-2.1820068359375,0.9613037109375,-1.953125
1.5299999,-9.806650161743164,0.2944868206977844,1.5610195398330688,-1.1749267578125,1.5411376953125,1.77001953125
1.5499999,-9.758766174316406,0.27054479718208313,1.6352397203445435,-0.0762939453125,-0.5645751953125,4.33349609375
1.5699999,-9.775525093078613,0.29209262132644653,1.6496049165725708,-0.06103515625,-0.4730224609375,6.2255859375
1.5899999,-9.816226959228516,0.37828385829925537,1.764526605606079,1.8310546875,-5.401611328125,5.2642822265625
1.6099999,-9.835380554199219,0.44771572947502136,1.8315643072128296,2.960205078125,-8.1329345703125,-1.64794921875
1.6299999,-9.816226959228516,0.5003881454467773,2.0422539710998535,0.6256103515625,-2.3345947265625,-5.218505859375
1.6499999,-9.720458984375,0.5219359993934631,2.2218191623687744,-4.8828125,6.500244140625,-2.1514892578125
1.6699999,-9.619902610778809,0.586579442024231,2.408566951751709,-11.4288330078125,12.6495361328125,-1.9989013671875
1.6899998999999999,-9.619902610778809,0.5889736413955688,2.3918075561523438,-15.7470703125,15.2740478515625,-1.4801025390625
1.7099999,-9.679757118225098,0.6272808313369751,2.27209734916687,-13.8092041015625,12.847900390625,1.5106201171875
1.7299999,-9.818621635437012,0.43335050344467163,1.9369091987609863,-9.0484619140625,5.706787109375,2.777099609375
1.7499999,-9.919178009033203,0.21308395266532898,1.6304513216018677,-1.373291015625,1.5106201171875,-2.288818359375
1.7699999,-9.96945571899414,-0.07422025501728058,1.3215993642807007,11.5814208984375,-1.6937255859375,-2.899169921875
1.7899999,-9.962273597717285,-0.19153612852096558,1.0821791887283325,19.134521484375,-5.0201416015625,3.204345703125
1.8099999,-9.909601211547852,-0.10055647045373917,1.0630255937576294,13.824462890625,-3.692626953125,4.730224609375
1.8299999,-9.849745750427246,0.10295066982507706,1.192312479019165,0.0457763671875,0.4425048828125,4.9591064453125
1.8499999,-9.77791976928711,0.45010992884635925,1.4891934394836426,-10.8795166015625,1.1138916015625,5.55419921875
1.8699999,-9.758766174316406,0.6751648783683777,1.86508309841156,-15.533447265625,0.1220703125,4.21142578125
1.8899999,-9.744400978088379,0.7852981686592102,1.9967641830444336,-12.451171875,2.1209716796875,-2.288818359375
1.9099999,-9.773131370544434,0.7422025203704834,2.027888774871826,-1.2359619140625,3.0517578125,-6.2103271484375
1.9299998999999999,-9.782708168029785,0.5722141861915588,1.9393033981323242,8.7890625,1.03759765625,-1.800537109375
1.9499999,-9.816226959228516,0.40462008118629456,1.7693150043487549,7.75146484375,3.0670166015625,0.48828125
1.9699999,-9.804255485534668,0.3495534360408783,1.6831238269805908,0.7476806640625,3.5400390625,1.77001953125
1.9899999,-9.837775230407715,0.3280056416988373,1.699883222579956,-3.5247802734375,1.0833740234375,2.532958984375
2.0099999,-9.832986831665039,0.36152446269989014,1.6855180263519287,-5.2032470703125,-1.922607421875,3.6773681640625
2.0299999,-9.80904483795166,0.3519476354122162,1.623268723487854,-3.35693359375,-0.5035400390625,-1.190185546875
2.0499999,-9.837775230407715,0.2753331959247589,1.5155296325683594,5.0811767578125,-0.701904296875,-4.2877197265625
2.0699999,-9.787496566772461,0.2753331959247589,1.4700398445129395,11.199951171875,-3.448486328125,-1.556396484375
2.0899999,-9.813833236694336,0.3423708379268646,1.4652514457702637,7.2784423828125,-0.8392333984375,1.129150390625
2.1099999,-9.782708168029785,0.4836287498474121,1.6352397203445435,-2.5787353515625,1.0223388671875,2.0751953125
2.1299999,-9.792284965515137,0.5889736413955688,1.8267759084701538,-9.1400146484375,1.9378662109375,0.2899169921875
2.1499999,-9.782708168029785,0.6200982332229614,1.98958158493042,-9.7198486328125,0.06103515625,1.0223388671875
2.1699999,-9.81143856048584,0.507570743560791,1.9608511924743652,-6.0577392578125,0.79345703125,-2.4261474609375
2.1899999,-9.806650161743164,0.31364041566848755,1.9033904075622559,0.7171630859375,2.685546875,-4.547119140625
2.2099999,-9.84256362915039,0.14604631066322327,1.6615760326385498,8.4381103515625,0.67138671875,-0.701904296875
2.2299999,-9.840168952941895,0.1388636976480484,1.5155296325683594,11.3983154296875,-1.15966796875,3.6163330078125
2.2499999,-9.871294021606445,0.15562310814857483,1.4197616577148438,5.8135986328125,-1.9989013671875,5.5084228515625
2.2699999,-9.90241813659668,0.31603461503982544,1.3958195447921753,2.38037109375,-4.4097900390625,3.3416748046875
2.2899999,-9.923966407775879,0.4572925269603729,1.5394717454910278,2.288818359375,-8.5906982421875,3.72314453125
2.3099999,-9.873687744140625,0.5003881454467773,1.7118542194366455,0.640869140625,-6.866455078125,0.1373291015625
2.3299999,-9.804255485534668,0.6536170840263367,1.824381709098816,0.8392333984375,-1.4495849609375,-4.3792724609375
2.3499999,-9.758766174316406,0.6009446382522583,1.9967641830444336,2.3193359375,2.105712890625,-1.1749267578125
2.3699999,-9.720458984375,0.6919242739677429,2.03507137298584,-0.946044921875,4.425048828125,1.40380859375
2.3899999,-9.742006301879883,0.6344634294509888,2.027888774871826,-7.9803466796875,5.1727294921875,3.9825439453125
2.4099999,-9.744400978088379,0.5817909836769104,1.8722656965255737,-9.1705322265625,3.204345703125,2.197265625
2.4299999,-9.804255485534668,0.524330198764801,1.7094600200653076,-0.5645751953125,-4.0130615234375,1.46484375
2.4499999,-9.849745750427246,0.40222588181495667,1.5179238319396973,8.7890625,-10.1470947265625,-0.701904296875
2.4699999,-9.859322547912598,0.33997663855552673,1.3239935636520386,15.0146484375,-10.3607177734375,-5.43212890625
2.4899999,-9.873687744140625,0.35913026332855225,1.4053963422775269,17.02880859375,-8.11767578125,-3.4942626953125
2.5099999,-9.806650161743164,0.4596867263317108,1.5059528350830078,11.3525390625,-4.852294921875,-0.3662109375
2.5299999,-9.713275909423828,0.5817909836769104,1.7501614093780518,0.42724609375,-1.6326904296875,1.6632080078125
2.5499999,-9.670180320739746,0.6967126727104187,2.0853497982025146,-5.157470703125,0.030517578125,0.91552734375
2.5699999,-9.66299819946289,0.7422025203704834,2.346317768096924,-7.232666015625,1.0528564453125,0.7781982421875
2.5899999,-9.658209800720215,0.6416460275650024,2.537853717803955,-10.0860595703125,3.326416015625,0.2899169921875
2.6099999,-9.703699111938477,0.49559974670410156,2.5067291259765625,-8.60595703125,7.14111328125,-4.669189453125
2.6299999,-9.6989107131958,0.33518823981285095,2.3367409706115723,-3.9520263671875,9.918212890625,-3.692626953125
2.6499999,-9.773131370544434,0.3256114423274994,1.9249382019042969,1.007080078125,8.23974609375,0.335693359375
2.6699999,-9.801861763000488,0.3208230137825012,1.623268723487854,3.9520263671875,2.410888671875,1.64794921875
2.6899999,-9.859322547912598,0.4812345504760742,1.280897855758667,4.5318603515625,-2.38037109375,0.3204345703125
2.7099999,-9.921571731567383,0.545877993106842,1.2737152576446533,6.0577392578125,-7.2784423828125,-0.244140625
2.7299999,-9.928754806518555,0.5770025849342346,1.316810965538025,6.927490234375,-9.8876953125,-1.1444091796875
2.7499999,-9.880870819091797,0.5027823448181152,1.580173134803772,7.99560546875,-8.148193359375,-5.37109375
2.7699999,-9.813833236694336,0.45489832758903503,1.8794482946395874,5.2947998046875,-1.5716552734375,-6.103515625
2.7899999,-9.684545516967773,0.43095630407333374,2.1140801906585693,-0.2288818359375,5.2032470703125,-0.9765625
2.8099999,-9.660603523254395,0.45250412821769714,2.274491548538208,-6.0577392578125,7.7972412109375,1.89208984375
2.8299999,-9.639056205749512,0.49799394607543945,2.2816741466522217,-9.7808837890625,6.439208984375,1.77001953125
2.8499999,-9.727641105651855,0.5315127968788147,2.1595699787139893,-8.7890625,3.96728515625,1.434326171875
2.8699999,-9.84256362915039,0.4644751250743866,1.9273324012756348,-4.0130615234375,-1.434326171875,1.2054443359375
2.8899999,-9.873687744140625,0.33758243918418884,1.6903064250946045,3.4332275390625,-5.7525634765625,-2.3040771484375
2.9099999,-9.916783332824707,0.1867477297782898,1.4508862495422363,9.1705322265625,-5.859375,-4.5166015625
2.9299999,-9.840168952941895,0.14365209639072418,1.3455413579940796,10.6201171875,-3.96728515625,-0.5340576171875
2.9499999,-9.775525093078613,0.38546648621559143,1.5490485429763794,0.3204345703125,-3.9520263671875,4.1961669921875
2.9699999,-9.775525093078613,0.5817909836769104,1.8267759084701538,-3.5552978515625,-3.96728515625,2.4871826171875
2.9899999,-9.806650161743164,0.6847416758537292,1.968033790588379,-4.2877197265625,-6.4697265625,3.265380859375
3.0099999,-9.799467086791992,0.6248866319656372,2.097320795059204,-3.0975341796875,-7.6141357421875,0.9765625
3.0299999,-9.77791976928711,0.5267243981361389,2.140416383743286,0.42724609375,-5.0201416015625,-3.47900390625
3.0499999,-9.739612579345703,0.4189853072166443,2.2864625453948975,0.7781982421875,1.617431640625,-0.946044921875
3.0699999,-9.670180320739746,0.40940847992897034,2.293645143508911,-4.0740966796875,7.0343017578125,2.9296875
3.0899999,-9.646238327026367,0.49799394607543945,2.3295583724975586,-8.6517333984375,7.14111328125,3.2501220703125
3.1099999,-9.670180320739746,0.6033388376235962,2.212242364883423,-7.6446533203125,5.0811767578125,0.8392333984375
3.1299999,-9.72285270690918,0.768538773059845,2.099714994430542,-1.89208984375,-0.213623046875,-0.6866455078125
3.1499999,-9.832986831665039,0.7637503147125244,1.968033790588379,2.3345947265625,-4.1046142578125,-2.13623046875
3.1699999,-9.77791976928711,0.7805097699165344,1.9536685943603516,0.274658203125,-0.6561279296875,-7.4005126953125
3.1899999,-9.622296333312988,0.8379706144332886,2.27209734916687,-13.3209228515625,8.758544921875,-6.8206787109375
3.2099999,-8.53532886505127,0.8571242094039917,2.674323320388794,-50.9033203125,27.0843505859375,-3.11279296875
3.2299999,-7.577648162841797,0.3902548849582672,2.9759926795959473,-82.4127197265625,52.7496337890625,12.75634765625
3.2499999,-6.53377628326416,-0.29209262132644653,2.7748796939849854,-39.6575927734375,38.0096435546875,5.2032470703125
3.2699999,-6.629544734954834,-1.048660397529602,2.190694570541382,33.3404541015625,18.218994140625,20.1568603515625
3.2899999,-8.008605003356934,-1.3048399686813354,1.316810965538025,56.1676025390625,6.2255859375,24.3682861328125
3.3099999,-10.522516250610352,-0.4884171485900879,0.7852981686592102,33.294677734375,4.5013427734375,25.57373046875
3.3299999000000002,-12.301408767700195,0.6368576288223267,0.9768342971801758,-32.2265625,18.1121826171875,22.03369140625
3.3499999,-13.84566879272461,2.1068975925445557,1.6089035272598267,-98.69384765625,38.665771484375,31.55517578125
3.3699999,-13.778631210327148,2.669534921646118,2.073378562927246,-117.5994873046875,46.4630126953125,7.6141357421875
3.3899999,-12.634202003479004,2.9664158821105957,2.5450363159179688,-108.6578369140625,51.4678955078125,-3.7689208984375
3.4099999,-11.08994197845459,2.5043349266052246,1.9943699836730957,-129.4403076171875,63.6749267578125,10.772705078125
3.4299999,-9.579200744628906,1.5945383310317993,0.8523358106613159,-107.025146484375,61.553955078125,8.72802734375
3.4499999,-8.221688270568848,0.35434186458587646,-0.5841852426528931,-10.8489990234375,14.7705078125,-7.4005126953125
3.4699999,-7.690176010131836,-0.727837324142456,-1.680729627609253,57.18994140625,-28.717041015625,2.4261474609375
3.4899999,-7.65186882019043,-1.2090718746185303,-1.8602946996688843,43.3502197265625,-27.4200439453125,15.716552734375
3.5099999,-8.008605003356934,-0.8762778043746948,-1.0534487962722778,1.0223388671875,-0.244140625,15.0146484375
3.5299999,-8.700529098510742,0.035913024097681046,0.21787235140800476,-18.646240234375,17.822265625,5.523681640625
3.5499999,-9.624691009521484,0.8858546018600464,1.0319008827209473,-7.1563720703125,16.845703125,-3.5858154296875
3.5699999,-10.587160110473633,1.4197616577148438,1.3072341680526733,10.6353759765625,2.6092529296875,-5.7525634765625
3.5899999,-11.398794174194336,1.577778935432434,1.0797849893569946,17.578125,-9.124755859375,-5.8746337890625
3.6099999,-11.81299114227295,1.5275006294250488,0.8619126081466675,7.9345703125,-10.650634765625,-8.4991455078125
3.6299999,-11.777078628540039,1.4077905416488647,0.828393816947937,-6.8817138671875,-3.3111572265625,-8.97216796875
3.6499999,-11.329362869262695,1.2282254695892334,0.9050082564353943,-10.406494140625,3.509521484375,-8.819580078125
3.6699999,-10.66137981414795,0.9840168952941895,0.8978256583213806,-4.608154296875,1.8768310546875,-9.6282958984375
3.6899999,-9.998186111450195,0.6919242739677429,0.8236053586006165,2.166748046875,-4.5928955078125,-9.857177734375
3.7099999,-9.478644371032715,0.40462008118629456,0.6655880808830261,7.4310302734375,-6.805419921875,-7.8887939453125
3.7299999,-9.174580574035645,0.24899697303771973,0.5985504388809204,5.584716796875,-7.2174072265625,-2.4871826171875
3.7499999,-9.07641887664795,0.2585737705230713,0.5841852426528931,0.4425048828125,-3.021240234375,1.6021728515625
3.7699999,-9.239224433898926,0.395043283700943,0.6871358752250671,-2.532958984375,3.3111572265625,-0.7781982421875
3.7899999,-9.53849983215332,0.6272808313369751,0.8307880163192749,-3.7384033203125,-3.8909912109375,-9.1400146484375
3.8099999,-9.818621635437012,0.7182605266571045,0.9888052940368652,0.4119873046875,-6.0882568359375,-12.1612548828125
3.8299999000000002,-10.077195167541504,0.7637503147125244,1.1540051698684692,7.3089599609375,-8.8958740234375,-7.9345703125
3.8499999,-10.168174743652344,0.6799532771110535,1.3000515699386597,10.8642578125,-16.5863037109375,-7.415771484375
3.8699999,-10.18493366241455,0.5410895943641663,1.4077905416488647,10.6658935546875,-19.195556640625,-10.3759765625
3.8899999,-10.168174743652344,0.38546648621559143,1.5155296325683594,12.7716064453125,-16.9525146484375,-9.3231201171875
3.9099999,-10.132261276245117,0.19632454216480255,1.5490485429763794,17.9290771484375,-14.984130859375,-5.79833984375
3.9299999,-10.103530883789062,0.035913024097681046,1.5107412338256836,22.4609375,-17.15087890625,-2.716064453125
3.9499999,-9.919178009033203,-0.05985504388809204,1.41257905960083,26.275634765625,-21.942138671875,-1.15966796875
3.9699999,-9.639056205749512,0.004788403399288654,1.3455413579940796,28.0609130859375,-14.2669677734375,7.4005126953125
3.9899999,-9.251194953918457,0.2298433631658554,1.3766659498214722,21.78955078125,9.5977783203125,19.378662109375
4.0099999,-8.89445972442627,0.5889736413955688,1.3838485479354858,3.35693359375,24.993896484375,21.148681640625
4.029999900000001,-8.767566680908203,0.9457096457481384,1.3120225667953491,-10.009765625,29.998779296875,13.671875
4.0499999,-8.827422142028809,1.0965443849563599,1.0893617868423462,-8.6212158203125,22.9034423828125,4.5318603515625
4.069999900000001,-9.064447402954102,0.9600749015808105,0.7876923680305481,2.349853515625,10.55908203125,1.8768310546875
4.0899999000000005,-9.354146003723145,0.7326257228851318,0.5913678407669067,11.3983154296875,3.204345703125,2.838134765625
4.1099999,-9.739612579345703,0.6009446382522583,0.5841852426528931,11.1083984375,8.941650390625,-4.638671875
4.1299999000000005,-10.261548042297363,0.6775590777397156,0.6655880808830261,4.45556640625,14.0380859375,-17.1966552734375
4.1499999,-10.824186325073242,0.7589619159698486,0.7541735172271729,0.732421875,8.4228515625,-19.6685791015625
4.1699999000000005,-11.046846389770508,1.0773907899856567,1.4053963422775269,-4.33349609375,4.241943359375,-11.4288330078125
4.1899999,-10.678139686584473,1.7812861204147339,2.7222073078155518,-70.770263671875,38.9556884765625,3.997802734375
4.209999900000001,-10.043676376342773,2.647987127304077,4.206612586975098,-210.5255126953125,101.50146484375,31.06689453125
4.2299999,-9.169792175292969,3.780444383621216,5.319916248321533,-313.0035400390625,129.1656494140625,39.794921875
4.249999900000001,-8.793902397155762,4.352658748626709,4.970362663269043,-329.89501953125,127.777099609375,27.2369384765625
4.2699999,-8.71489429473877,4.084507942199707,3.0789434909820557,-288.8641357421875,105.5450439453125,24.5513916015625
4.289999900000001,-8.834604263305664,3.1675288677215576,0.10534487664699554,-221.893310546875,90.3778076171875,20.8587646484375
4.3099999,-9.32541561126709,1.702277421951294,-3.4620156288146973,-140.960693359375,104.5684814453125,1.0223388671875
4.329999900000001,-9.758766174316406,0.2585737705230713,-6.648698329925537,-38.6199951171875,52.9022216796875,-15.0909423828125
4.3499999,-10.448296546936035,-0.993593692779541,-8.89685344696045,50.750732421875,-26.4892578125,-5.157470703125
4.369999900000001,-11.116278648376465,-1.6352397203445435,-9.658209800720215,95.03173828125,-69.1070556640625,4.486083984375
4.3899999,-11.463438034057617,-1.625662922859192,-8.62391471862793,112.9302978515625,-94.23828125,-2.7008056640625
4.409999900000001,-11.513715744018555,-0.9744400978088379,-6.162675380706787,117.8741455078125,-92.10205078125,-9.765625
4.4299999,-11.113883972167969,-0.06464344263076782,-3.098097085952759,95.39794921875,-71.563720703125,-10.8489990234375
4.449999900000001,-10.450690269470215,0.9313444495201111,-0.047884032130241394,53.2379150390625,-40.3289794921875,-10.6964111328125
4.4699999,-9.708487510681152,1.7262194156646729,2.3965959548950195,17.3797607421875,-15.7012939453125,-6.4544677734375
4.489999900000001,-8.966285705566406,2.073378562927246,3.7924153804779053,-2.2430419921875,-6.439208984375,-3.7994384765625
4.5099999,-8.652645111083984,1.9081788063049316,3.892971992492676,3.814697265625,3.173828125,-3.570556640625
4.529999900000001,-8.578424453735352,1.335964560508728,2.8993782997131348,38.299560546875,-3.9520263671875,-0.762939453125
4.5499999,-8.803479194641113,0.6488286852836609,1.3623007535934448,84.014892578125,-31.463623046875,0.152587890625
4.569999900000001,-9.042900085449219,0.22266076505184174,-0.028730420395731926,115.020751953125,-47.3785400390625,-3.5858154296875
4.5899999000000005,-9.311050415039062,0.21547815203666687,-0.6871358752250671,116.7449951171875,-43.365478515625,-3.1280517578125
4.609999900000001,-9.528923034667969,0.4644751250743866,-0.45010992884635925,101.898193359375,-33.5693359375,-5.43212890625
4.6299999000000005,-9.691728591918945,0.768538773059845,0.42856210470199585,87.34130859375,-18.3258056640625,-9.09423828125
4.6499999,-9.99100399017334,1.0031704902648926,1.314416766166687,66.10107421875,9.7808837890625,-0.30517578125
4.6699999000000005,-10.251971244812012,1.1061211824417114,1.8842366933822632,43.731689453125,27.34375,6.04248046875
4.6899999,-10.460267066955566,1.0654197931289673,1.9105730056762695,33.355712890625,21.4080810546875,0.8087158203125
4.709999900000001,-10.565611839294434,0.8571242094039917,1.414973258972168,33.7066650390625,16.8914794921875,-4.9591064453125
4.7299999,-10.532093048095703,0.6057330369949341,0.6703764796257019,33.355712890625,13.0767822265625,4.39453125
4.749999900000001,-10.316615104675293,0.3208230137825012,-0.12928688526153564,30.029296875,5.4473876953125,14.7247314453125
4.7699999,-10.041281700134277,0.24660277366638184,-0.6655880808830261,33.4625244140625,-0.5950927734375,9.7198486328125
4.789999900000001,-9.797073364257812,0.26336219906806946,-0.8236053586006165,37.750244140625,-6.3323974609375,5.9661865234375
4.8099999,-9.751583099365234,0.5003881454467773,-0.6703764796257019,27.9388427734375,4.3487548828125,9.0179443359375
4.829999900000001,-9.765948295593262,0.7565677165985107,-0.31603461503982544,11.3677978515625,16.78466796875,9.552001953125
4.8499999,-9.835380554199219,0.9888052940368652,0.011971008032560349,3.41796875,17.6849365234375,7.2021484375
4.869999900000001,-9.931148529052734,1.0606313943862915,0.06464344263076782,4.82177734375,12.4053955078125,7.0037841796875
4.8899999,-10.070012092590332,0.9457096457481384,-0.2106897532939911,16.5252685546875,0.6561279296875,12.359619140625
4.909999900000001,-10.436325073242188,0.7350199222564697,-0.8188169598579407,41.229248046875,-15.106201171875,13.1683349609375
4.9299999,-10.498574256896973,0.6416460275650024,-1.1779472827911377,75.0579833984375,-35.247802734375,8.4228515625
4.949999900000001,-10.618284225463867,0.8667010068893433,-1.0797849893569946,75.01220703125,-35.736083984375,5.462646484375
4.9699999,-10.158597946166992,1.338358759880066,-0.31124621629714966,32.2418212890625,-11.5203857421875,0.1220703125
4.989999900000001,-9.603142738342285,1.8962076902389526,0.8834604024887085,-16.204833984375,14.8468017578125,1.77001953125
5.0099999,-9.102754592895508,2.2170307636260986,1.7884687185287476,-43.6248779296875,34.6832275390625,-0.335693359375
5.029999900000001,-9.011775016784668,2.0590133666992188,1.9033904075622559,-41.717529296875,37.7960205078125,1.739501953125
5.0499999,-9.346963882446289,1.4867992401123047,1.1899182796478271,-17.08984375,22.0794677734375,8.056640625
5.069999900000001,-10.007762908935547,0.7805097699165344,-0.08140286058187485,19.989013671875,-3.631591796875,13.3056640625
5.0899999000000005,-10.718840599060059,0.1843535304069519,-1.4317326545715332,54.6112060546875,-35.82763671875,-6.8511962890625
5.109999900000001,-11.532869338989258,0.45010992884635925,-2.0207061767578125,75.3173828125,-46.051025390625,-11.3677978515625
5.1299999000000005,-11.477803230285645,0.9265560507774353,-2.0039467811584473,62.6373291015625,-29.6173095703125,-11.71875
5.1499999,-11.133037567138672,1.7884687185287476,-1.1013327836990356,31.2957763671875,-12.0697021484375,-18.096923828125
5.1699999000000005,-11.243170738220215,2.4803929328918457,-0.011971008032560349,6.134033203125,-10.4217529296875,-25.5584716796875
5.1899999,-10.828974723815918,2.456450939178467,0.9696516990661621,-5.8746337890625,-13.5955810546875,-27.862548828125
5.209999900000001,-10.390835762023926,2.207453966140747,1.3479355573654175,-6.5460205078125,7.7362060546875,-2.5787353515625
5.2299999,-10.141838073730469,1.4844050407409668,1.3263877630233765,7.0037841796875,12.0086669921875,-5.1727294921875
5.249999900000001,-10.11550235748291,0.9528923034667969,0.8978256583213806,15.625,-5.4168701171875,-8.5296630859375
5.2699999,-9.569623947143555,0.5195417404174805,0.3687070608139038,24.4140625,-9.6435546875,-18.951416015625
5.289999900000001,-11.334151268005371,0.4644751250743866,-0.033518824726343155,27.6947021484375,-7.659912109375,14.09912109375
5.3099999,-11.741165161132812,0.5267243981361389,-0.28730419278144836,29.7088623046875,-11.474609375,-42.3431396484375
5.329999900000001,-12.435483932495117,0.6536170840263367,-0.47165772318840027,28.7933349609375,-2.105712890625,-40.802001953125
5.3499999,-12.169727325439453,0.7230489253997803,-0.5674257874488831,31.2957763671875,4.0740966796875,-20.660400390625
5.369999900000001,-11.05642318725586,0.7086837291717529,-0.6153098344802856,33.294677734375,-12.5885009765625,-11.23046875
5.3899999,-9.593565940856934,0.667982280254364,-0.5913678407669067,32.745361328125,-22.3236083984375,-2.197265625
5.409999900000001,-8.176198959350586,0.5626373887062073,-0.4884171485900879,31.06689453125,-12.1307373046875,1.89208984375
5.4299999,-7.046135425567627,0.47405192255973816,-0.29209262132644653,27.6336669921875,-10.8489990234375,0.030517578125
5.449999900000001,-6.256049156188965,0.395043283700943,-0.026336219161748886,19.9127197265625,-16.3421630859375,-4.4403076171875
5.4699999,-5.889736175537109,0.35434186458587646,0.21787235140800476,11.9476318359375,-1.251220703125,-5.3863525390625
5.489999900000001,-5.901707172393799,0.3711012601852417,0.4572925269603729,6.8511962890625,16.021728515625,-0.06103515625
5.5099999,-6.282385349273682,0.4189853072166443,0.6129156351089478,1.7547607421875,15.960693359375,5.462646484375
5.529999900000001,-6.98628044128418,0.4620809257030487,0.6823474764823914,-2.9144287109375,6.3629150390625,7.8125
5.5499999,-7.86734676361084,0.5171475410461426,0.6991068720817566,-4.2724609375,0.4730224609375,9.5672607421875
5.569999900000001,-8.707711219787598,0.5051765441894531,0.7015010714530945,-2.3651123046875,0.091552734375,8.575439453125
5.5899999000000005,-9.478644371032715,0.4572925269603729,0.7134721279144287,-0.732421875,-2.0904541015625,8.9569091796875
5.609999900000001,-10.120290756225586,0.43095630407333374,0.751779317855835,-2.25830078125,-11.077880859375,9.124755859375
5.6299999000000005,-10.539276123046875,0.3902548849582672,0.7781155705451965,-3.5400390625,-14.95361328125,2.8839111328125
5.6499999,-10.764330863952637,0.395043283700943,0.8044517636299133,-0.6561279296875,-8.36181640625,-0.579833984375
5.6699999000000005,-10.860098838806152,0.42616790533065796,0.8044517636299133,3.326416015625,-0.213623046875,1.220703125
5.6899999,-10.898406028747559,0.48602294921875,0.8068459630012512,4.058837890625,-4.0435791015625,-0.42724609375
5.709999900000001,-10.96304988861084,0.545877993106842,0.8188169598579407,1.6021728515625,-12.2222900390625,-7.080078125
5.7299999,-11.183316230773926,0.6272808313369751,0.8738836050033569,-0.274658203125,-17.4407958984375,-8.3770751953125
5.749999900000001,-11.18092155456543,0.6440402865409851,0.8954314589500427,0.0152587890625,-19.5770263671875,-4.9285888671875
5.7699999,-11.314997673034668,0.7613561153411865,0.8762778043746948,0.579833984375,-14.7857666015625,2.38037109375
5.789999900000001,-11.204863548278809,0.8882488012313843,0.7445967197418213,1.922607421875,-15.167236328125,3.90625
5.8099999,-11.010933876037598,1.0654197931289673,0.586579442024231,3.4332275390625,-20.3094482421875,0.4730224609375
5.829999900000001,-10.63504409790039,1.1875240802764893,0.45010992884635925,4.1046142578125,-22.94921875,-2.471923828125
5.8499999,-10.11550235748291,1.137245774269104,0.3902548849582672,3.326416015625,-24.0631103515625,-3.8604736328125
5.869999900000001,-9.605537414550781,0.9265560507774353,0.47644615173339844,3.387451171875,-25.69580078125,-4.1656494140625
5.8899999,-9.263166427612305,0.6991068720817566,0.6871358752250671,2.62451171875,-25.0244140625,-2.7313232421875
5.909999900000001,-9.129091262817383,0.5123591423034668,0.9457096457481384,-0.885009765625,-22.1099853515625,-0.6256103515625
5.9299999,-9.141061782836914,0.4357447028160095,1.2497732639312744,-3.9825439453125,-20.477294921875,-0.8697509765625
5.949999900000001,-9.210494041442871,0.44771572947502136,1.5634137392044067,-6.591796875,-19.1650390625,-1.64794921875
5.9699999,-9.272743225097656,0.49799394607543945,1.821987509727478,-11.6119384765625,-14.2059326171875,-0.2288818359375
5.989999900000001,-9.35654067993164,0.5219359993934631,2.056619167327881,-16.2200927734375,-8.697509765625,0.9613037109375
6.0099999,-9.478644371032715,0.42856210470199585,2.248155355453491,-18.218994140625,-5.340576171875,1.739501953125
6.029999900000001,-9.641449928283691,0.304063618183136,2.33913516998291,-20.0347900390625,-0.8392333984375,5.8441162109375
6.0499999,-9.890447616577148,0.20111294090747833,2.2577321529388428,-20.0347900390625,2.7313232421875,9.735107421875
6.069999900000001,-10.311826705932617,0.27054479718208313,1.9584569931030273,-14.739990234375,0.18310546875,7.62939453125
6.0899999000000005,-10.860098838806152,0.5746083855628967,1.4939818382263184,-7.14111328125,-8.3770751953125,1.9683837890625
6.109999900000001,-11.413159370422363,1.0271124839782715,0.9696516990661621,-0.030517578125,-18.5546875,-2.44140625
6.1299999000000005,-11.827356338500977,1.4389152526855469,0.5554547905921936,10.6658935546875,-27.5421142578125,-9.1094970703125
6.149999900000001,-11.69806957244873,1.6376339197158813,0.33518823981285095,25.8941650390625,-35.82763671875,-18.00537109375
6.1699999000000005,-10.96304988861084,1.5083470344543457,0.5267243981361389,39.2608642578125,-42.8466796875,-17.8985595703125
6.1899999,-9.81143856048584,1.192312479019165,1.1516109704971313,39.9169921875,-39.4287109375,-17.9443359375
6.209999900000001,-8.547300338745117,0.7086837291717529,2.0901381969451904,28.25927734375,-21.7437744140625,-22.2625732421875
6.2299999,-7.819462776184082,0.23702596127986908,3.201047658920288,11.9781494140625,-2.0599365234375,-16.632080078125
6.249999900000001,-7.812280178070068,-0.1843535304069519,4.098873138427734,-6.2255859375,11.6729736328125,-6.9732666015625
6.2699999,-8.439560890197754,-0.5171475410461426,4.537012100219727,-21.3165283203125,23.7579345703125,-1.64794921875
6.289999900000001,-9.279925346374512,-0.7469909191131592,4.438849925994873,-26.275634765625,32.470703125,-1.89208984375
6.3099999,-9.986215591430664,-0.8738836050033569,3.9384617805480957,-23.4375,30.9295654296875,-5.4779052734375
6.329999900000001,-10.292673110961914,-0.933738648891449,3.24414324760437,-19.59228515625,10.711669921875,-15.1214599609375
6.3499999,-10.194510459899902,-0.9792284965515137,2.58813214302063,-18.0206298828125,-14.3280029296875,-22.3236083984375
6.369999900000001,-9.854534149169922,-1.0534487962722778,2.190694570541382,-18.7835693359375,-24.1546630859375,-17.7764892578125
6.3899999,-9.421183586120605,-1.0893617868423462,2.0638017654418945,-24.261474609375,-8.4228515625,-7.3699951171875
6.409999900000001,-9.208099365234375,-0.9576807022094727,2.032677173614502,-32.8826904296875,17.303466796875,14.3585205078125
6.4299999,-9.330204010009766,-0.5937620401382446,1.9560627937316895,-39.276123046875,33.7371826171875,45.684814453125
6.449999900000001,-9.66299819946289,0.023942016065120697,1.7884687185287476,-41.0308837890625,40.3289794921875,55.72509765625
6.4699999,-9.911994934082031,0.828393816947937,1.4508862495422363,-42.1142578125,32.6080322265625,43.1060791015625
6.489999900000001,-9.952696800231934,1.6208745241165161,1.0534487962722778,-39.154052734375,25.1007080078125,29.327392578125
6.5099999,-9.813833236694336,2.231395959854126,0.6655880808830261,-29.3426513671875,17.51708984375,14.9993896484375
6.529999900000001,-9.732429504394531,2.6431987285614014,0.3998316824436188,-22.064208984375,9.552001953125,3.448486328125
6.5499999,-9.81143856048584,2.7748796939849854,0.2322375625371933,-21.4385986328125,2.01416015625,-6.5460205078125
6.569999900000001,-9.943120002746582,2.6168625354766846,0.21787235140800476,-18.9666748046875,-3.631591796875,-15.716552734375
6.5899999000000005,-9.99100399017334,2.161964178085327,0.363918662071228,-10.43701171875,-8.6669921875,-20.3094482421875
6.609999900000001,-9.904812812805176,1.4628572463989258,0.6560112833976746,-2.6092529296875,-12.3443603515625,-21.270751953125
6.6299999000000005,-9.792284965515137,0.5363011956214905,0.9840168952941895,1.5411376953125,-12.359619140625,-18.4783935546875
6.649999900000001,-9.770736694335938,-0.43335050344467163,1.3000515699386597,7.8125,-11.260986328125,-9.82666015625
6.6699999000000005,-9.81143856048584,-1.139639973640442,1.5945383310317993,15.1214599609375,-13.0615234375,1.7547607421875
6.6899999,-9.861717224121094,-1.460463047027588,1.7956513166427612,16.66259765625,-14.4500732421875,8.11767578125
6.709999900000001,-9.871294021606445,-1.3239935636520386,1.9153614044189453,14.6636962890625,-11.810302734375,8.4686279296875
6.7299999,-9.840168952941895,-0.7829039692878723,2.049436569213867,14.190673828125,-9.063720703125,7.598876953125
6.749999900000001,-9.797073364257812,0,2.1978771686553955,9.9945068359375,-7.232666015625,5.9356689453125
6.7699999,-9.751583099365234,0.7757213711738586,2.298433542251587,1.8157958984375,-3.2501220703125,0.4425048828125
6.789999900000001,-9.715670585632324,1.41257905960083,2.4181437492370605,-4.7607421875,1.7547607421875,-7.293701171875
6.8099999,-9.643844604492188,1.7956513166427612,2.5522189140319824,-17.333984375,6.8206787109375,-11.322021484375
6.829999900000001,-9.531316757202148,1.8339585065841675,2.741360902786255,-41.5802001953125,17.333984375,-10.5438232421875
6.8499999,-9.576807022094727,0.6871358752250671,2.4660277366638184,-45.745849609375,25.0244140625,-4.4097900390625
6.869999900000001,-9.806650161743164,-0.23942017555236816,1.8291701078414917,-10.19287109375,9.9945068359375,-1.1444091796875
6.8899999,-10.086771965026855,-1.036689281463623,0.9744400978088379,27.4658203125,-7.6751708984375,2.0904541015625
6.909999900000001,-10.285490036010742,-1.455674648284912,0.20350714027881622,50.6439208984375,-18.9056396484375,3.3111572265625
6.9299999,-10.321403503417969,-1.2761094570159912,-0.15562310814857483,55.8929443359375,-24.3682861328125,3.3416748046875
6.949999900000001,-10.187328338623047,-0.6344634294509888,0.12689268589019775,43.7164306640625,-25.69580078125,1.64794921875
6.9699999,-9.914389610290527,0.26575639843940735,0.8978256583213806,12.8173828125,-17.2271728515625,0.885009765625
6.989999900000001,-9.672574996948242,1.1109095811843872,1.9369091987609863,-20.1263427734375,0.030517578125,-2.2125244140625
7.0099999,-9.47146224975586,1.6112977266311646,2.853888511657715,-32.6385498046875,11.138916015625,-6.3934326171875
7.029999900000001,-9.399636268615723,1.623268723487854,3.3494882583618164,-25.299072265625,10.92529296875,-10.101318359375
7.0499999,-9.445125579833984,1.0965443849563599,3.2082302570343018,-10.1318359375,9.674072265625,-10.8489990234375
7.069999900000001,-9.646238327026367,0.3256114423274994,2.647987127304077,7.354736328125,7.8277587890625,-7.476806640625
7.0899999000000005,-9.816226959228516,-0.49320554733276367,1.9321208000183105,20.7672119140625,0.9307861328125,-0.274658203125
7.109999900000001,-9.928754806518555,-0.9313444495201111,1.4221558570861816,22.4151611328125,-3.753662109375,5.92041015625
7.1299999000000005,-9.96945571899414,-0.9217676520347595,1.2641384601593018,10.6353759765625,-1.7852783203125,9.0789794921875
7.149999900000001,-9.911994934082031,-0.5746083855628967,1.4245500564575195,-3.60107421875,5.7830810546875,9.4146728515625
7.1699999000000005,-9.864110946655273,0.026336219161748886,1.7405846118927002,-10.5133056640625,6.3018798828125,7.38525390625
7.1899999,-9.806650161743164,0.5195417404174805,1.9536685943603516,-12.176513671875,4.5928955078125,0.7476806640625
7.209999900000001,-9.768342971801758,0.8092401623725891,1.9536685943603516,-11.4593505859375,6.3323974609375,-4.5166015625
7.2299999,-9.787496566772461,0.7972691655158997,1.764526605606079,-7.0037841796875,7.14111328125,-4.425048828125
7.249999900000001,-9.797073364257812,0.6248866319656372,1.5394717454910278,-0.946044921875,2.50244140625,-1.64794921875
7.2699999,-9.828198432922363,0.35434186458587646,1.3096283674240112,2.4871826171875,-2.716064453125,1.190185546875
7.289999900000001,-9.885659217834473,0.1149216815829277,1.2473790645599365,3.204345703125,-4.241943359375,2.960205078125
7.3099999,-9.919178009033203,-0.011971008032560349,1.278503656387329,4.5928955078125,-6.77490234375,5.279541015625
7.329999900000001,-9.928754806518555,-0.004788403399288654,1.4891934394836426,6.04248046875,-11.5966796875,2.7923583984375
7.3499999,-9.859322547912598,0.07182604819536209,1.7908629179000854,1.8310546875,-8.1329345703125,-1.5716552734375
7.369999900000001,-9.765948295593262,0.24899697303771973,2.1164743900299072,-6.011962890625,3.3721923828125,-3.47900390625
7.3899999,-9.634267807006836,0.38546648621559143,2.3271639347076416,-10.07080078125,11.016845703125,-1.6632080078125
7.409999900000001,-9.624691009521484,0.47644615173339844,2.387019157409668,-9.8876953125,10.528564453125,-1.0223388671875
7.4299999,-9.651026725769043,0.4405331015586853,2.188300371170044,-9.21630859375,7.4462890625,0.274658203125
7.449999900000001,-9.832986831665039,0.35673606395721436,1.845929503440857,-5.035400390625,4.0435791015625,3.96728515625
7.4699999,-9.959878921508789,0.15322890877723694,1.5514427423477173,3.2501220703125,-5.4779052734375,3.875732421875
7.489999900000001,-10.002974510192871,0.05506663769483566,1.3431471586227417,8.209228515625,-9.9334716796875,-1.0528564453125
7.5099999,-9.962273597717285,0.011971008032560349,1.3479355573654175,5.9661865234375,-4.8828125,-3.0670166015625
7.529999900000001,-9.86889934539795,0.047884032130241394,1.4652514457702637,0.8697509765625,0.9765625,-0.2288818359375
7.5499999,-9.770736694335938,0.14604631066322327,1.6208745241165161,-1.0223388671875,1.922607421875,1.953125
7.569999900000001,-9.710882186889648,0.24181437492370605,1.7525556087493896,-1.617431640625,-0.9765625,3.4332275390625
7.5899999000000005,-9.739612579345703,0.30885201692581177,1.8411411046981812,-3.9825439453125,0.518798828125,4.791259765625
7.609999900000001,-9.787496566772461,0.3758896589279175,1.8411411046981812,-4.57763671875,-0.091552734375,6.6375732421875
7.6299999000000005,-9.794678688049316,0.4429273009300232,1.8770540952682495,-2.9449462890625,-5.462646484375,1.6632080078125
7.649999900000001,-9.818621635437012,0.45250412821769714,1.886630892753601,-3.8604736328125,-4.2724609375,-3.448486328125
7.6699999000000005,-9.75637149810791,0.44771572947502136,1.86508309841156,-6.7901611328125,1.3885498046875,-4.1656494140625
7.6899999,-9.742006301879883,0.4189853072166443,1.8842366933822632,-6.4697265625,4.4097900390625,-1.03759765625
7.709999900000001,-9.713275909423828,0.31842881441116333,1.824381709098816,-2.6397705078125,2.410888671875,-0.6256103515625
7.7299999,-9.780313491821289,0.2346317619085312,1.7693150043487549,0.885009765625,-0.5950927734375,1.1749267578125
7.749999900000001,-9.849745750427246,0.12689268589019775,1.7381904125213623,2.5177001953125,-0.5645751953125,4.4708251953125
7.7699999,-9.919178009033203,0.05267243832349777,1.745373010635376,3.2958984375,-3.96728515625,5.7220458984375
7.789999900000001,-9.950302124023438,0.07182604819536209,1.7836803197860718,4.3182373046875,-6.561279296875,1.64794921875
7.8099999,-9.888052940368652,0.14604631066322327,1.8962076902389526,5.79833984375,-5.37109375,-2.2735595703125
7.829999900000001,-9.813833236694336,0.26575639843940735,1.9369091987609863,4.9896240234375,-0.0762939453125,-1.922607421875
7.8499999,-9.706093788146973,0.40222588181495667,2.0829553604125977,1.5411376953125,4.2266845703125,-0.2288818359375
7.869999900000001,-9.646238327026367,0.5027823448181152,2.10210919380188,-3.2806396484375,7.1258544921875,-0.8087158203125
7.8899999,-9.643844604492188,0.5913678407669067,2.1595699787139893,-8.8958740234375,9.9029541015625,-0.579833984375
7.909999900000001,-9.691728591918945,0.5506663918495178,2.0446481704711914,-11.688232421875,9.918212890625,0.5950927734375
7.9299999,-9.785101890563965,0.5003881454467773,1.8411411046981812,-8.1634521484375,4.39453125,2.410888671875
7.949999900000001,-9.909601211547852,0.2801215946674347,1.5322890281677246,1.1138916015625,-4.69970703125,0.30517578125
7.9699999,-9.943120002746582,0.11013327538967133,1.256955862045288,12.02392578125,-10.43701171875,-1.7242431640625
7.989999900000001,-9.96945571899414,-0.040701430290937424,1.0893617868423462,18.6309814453125,-11.2762451171875,-2.2430419921875
8.0099999,-9.914389610290527,-0.08379705995321274,1.0965443849563599,19.6380615234375,-11.3067626953125,-0.7171630859375
8.0299999,-9.840168952941895,0.05267243832349777,1.3479355573654175,14.7552490234375,-10.6201171875,1.068115234375
8.049999900000001,-9.78989028930664,0.2944868206977844,1.7764976024627686,1.129150390625,-4.6234130859375,2.5177001953125
8.069999900000001,-9.68933391571045,0.5626373887062073,2.2577321529388428,-14.9078369140625,2.5634765625,2.777099609375
8.0899999,-9.643844604492188,0.7326257228851318,2.5929205417633057,-21.087646484375,7.7972412109375,0.946044921875
8.1099999,-9.63187313079834,0.7326257228851318,2.7557260990142822,-16.8609619140625,6.9122314453125,1.9073486328125
8.129999900000001,-9.660603523254395,0.5674257874488831,2.5929205417633057,-10.5438232421875,3.7994384765625,0.3509521484375
8.149999900000001,-9.737217903137207,0.3256114423274994,2.252943754196167,-1.1444091796875,3.0059814453125,-1.6632080078125
8.1699999,-9.797073364257812,0.07422025501728058,1.8602946996688843,12.0849609375,-0.1220703125,-3.11279296875
8.1899999,-9.832986831665039,-0.040701430290937424,1.5466543436050415,19.866943359375,-4.6539306640625,0.0152587890625
8.2099999,-9.821015357971191,0.016759412363171577,1.45806884765625,14.95361328125,-3.631591796875,2.5634765625
8.229999900000001,-9.840168952941895,0.21308395266532898,1.558625340461731,2.3040771484375,1.708984375,1.8310546875
8.2499999,-9.761159896850586,0.47884035110473633,1.800439715385437,-8.85009765625,5.1422119140625,0.48828125
8.2699999,-9.713275909423828,0.727837324142456,2.013523578643799,-12.63427734375,6.77490234375,-0.9613037109375
8.2899999,-9.715670585632324,0.7972691655158997,2.0925323963165283,-8.392333984375,4.058837890625,-0.67138671875
8.309999900000001,-9.765948295593262,0.6727706789970398,2.0207061767578125,1.03759765625,-2.0599365234375,-2.1514892578125
8.3299999,-9.832986831665039,0.4141969084739685,1.8339585065841675,9.7808837890625,-5.035400390625,-3.7841796875
8.3499999,-9.854534149169922,0.13168109953403473,1.647210717201233,14.984130859375,-7.0343017578125,-2.4261474609375
8.3699999,-9.86650562286377,-0.08858546614646912,1.5634137392044067,15.2130126953125,-7.293701171875,0
8.389999900000001,-9.816226959228516,-0.10055647045373917,1.644816517829895,8.9874267578125,-4.119873046875,2.8076171875
8.4099999,-9.806650161743164,0.06224924325942993,1.8339585065841675,0.1678466796875,-0.0457763671875,6.1187744140625
8.4299999,-9.765948295593262,0.33039984107017517,2.078166961669922,-8.392333984375,2.197265625,6.622314453125
8.4499999,-9.749189376831055,0.5985504388809204,2.185906171798706,-12.542724609375,4.0740966796875,2.8533935546875
8.469999900000001,-9.775525093078613,0.7541735172271729,2.145204782485962,-9.063720703125,3.0059814453125,0.67138671875
8.4899999,-9.830592155456543,0.7733271718025208,2.0422539710998535,0.0457763671875,-3.2501220703125,0.732421875
8.5099999,-9.856928825378418,0.689530074596405,1.8986018896102905,7.110595703125,-7.568359375,-1.953125
8.5299999,-9.876082420349121,0.47165772318840027,1.7908629179000854,10.55908203125,-7.01904296875,-4.82177734375
8.549999900000001,-9.81143856048584,0.2944868206977844,1.7501614093780518,14.70947265625,-4.5928955078125,-5.0048828125
8.569999900000001,-9.782708168029785,0.1867477297782898,1.8483237028121948,18.2647705078125,-4.486083984375,-2.2125244140625
8.5899999,-9.727641105651855,0.2298433631658554,2.075772762298584,13.153076171875,-0.8697509765625,-0.5645751953125
8.6099999,-9.696516990661621,0.45250412821769714,2.451662540435791,-2.197265625,9.429931640625,0.67138671875
8.629999900000001,-9.66539192199707,0.6823474764823914,2.7461493015289307,-17.0440673828125,18.6004638671875,-0.6256103515625
8.649999900000001,-9.684545516967773,0.9074024558067322,2.8107926845550537,-18.2952880859375,19.9127197265625,-3.4027099609375
8.6699999,-9.804255485534668,0.9026140570640564,2.5498247146606445,-8.6212158203125,13.8702392578125,-6.9732666015625
8.6899999,-9.979032516479492,0.790086567401886,2.051830768585205,4.0130615234375,5.2642822265625,-6.927490234375
8.709999900000001,-10.156203269958496,0.3758896589279175,1.4053963422775269,21.3470458984375,-1.3427734375,-11.0015869140625
8.729999900000001,-10.156203269958496,0.06703764945268631,1.048660397529602,46.6461181640625,-6.317138671875,-14.6942138671875
8.7499999,-10.287884712219238,-0.26336219906806946,1.0438719987869263,53.1158447265625,-2.7313232421875,-5.645751953125
8.7699999,-10.232817649841309,-0.31842881441116333,1.4269442558288574,39.459228515625,2.25830078125,-1.220703125
8.7899999,-10.539276123046875,-0.07422025501728058,2.075772762298584,21.4996337890625,28.106689453125,2.74658203125
8.809999900000001,-10.972626686096191,0.2753331959247589,2.580949544906616,5.767822265625,36.1785888671875,7.0953369140625
8.8299999,-11.389217376708984,0.6392518281936646,2.7078421115875244,-5.889892578125,23.49853515625,-4.6844482421875
8.8499999,-11.599906921386719,0.8092401623725891,2.427720546722412,-10.009765625,17.1356201171875,-17.9595947265625
8.8699999,-11.30302619934082,0.6943184733390808,1.8483237028121948,-6.77490234375,16.326904296875,-23.6968994140625
8.889999900000001,-10.448296546936035,0.28730419278144836,1.1803414821624756,-1.2054443359375,9.185791015625,-20.7061767578125
8.9099999,-9.294290542602539,-0.2753331959247589,0.5961562395095825,3.9825439453125,2.9144287109375,-10.2691650390625
8.9299999,-8.17380428314209,-0.8140285611152649,0.24420857429504395,8.8043212890625,1.6021728515625,0.5035400390625
8.9499999,-7.319074630737305,-1.2090718746185303,0.20111294090747833,10.2386474609375,-1.3885498046875,4.39453125
8.969999900000001,-6.950367450714111,-1.3407529592514038,0.395043283700943,6.04248046875,-2.227783203125,1.77001953125
8.9899999,-7.010222434997559,-1.2210428714752197,0.7757213711738586,0.48828125,-1.007080078125,-5.401611328125
9.0099999,-7.419631004333496,-0.933738648891449,1.2018892765045166,-4.1351318359375,5.4779052734375,-10.4217529296875
9.0299999,-8.042123794555664,-0.5506663918495178,1.5682021379470825,-9.2010498046875,9.0179443359375,-6.2103271484375
9.049999900000001,-8.791508674621582,-0.14604631066322327,1.7908629179000854,-14.1754150390625,3.692626953125,1.2969970703125
9.069999900000001,-9.457097053527832,0.22266076505184174,1.8602946996688843,-15.1214599609375,-6.988525390625,4.39453125
9.0899999,-9.943120002746582,0.5554547905921936,1.8339585065841675,-12.603759765625,-10.223388671875,7.1868896484375
9.1099999,-10.211270332336426,0.828393816947937,1.7597382068634033,-12.2833251953125,-2.1514892578125,17.669677734375
9.129999900000001,-10.287884712219238,1.0965443849563599,1.7070658206939697,-17.2271728515625,1.3580322265625,30.059814453125
9.149999900000001,-10.213664054870605,1.2952631711959839,1.6711528301239014,-21.331787109375,-2.777099609375,37.2161865234375
9.1699999,-10.714052200317383,1.3335703611373901,1.625662922859192,-22.3846435546875,-5.8746337890625,33.75244140625
9.1899999,-10.898406028747559,1.2880805730819702,1.4844050407409668,-20.56884765625,-0.3814697265625,-2.0751953125
9.209999900000001,-11.30063247680664,0.9744400978088379,1.3048399686813354,-14.068603515625,1.312255859375,4.119873046875
9.229999900000001,-11.250353813171387,0.7613561153411865,1.0845733880996704,-6.591796875,-6.0272216796875,14.3890380859375
9.2499999,-10.802638053894043,0.4812345504760742,0.8906430602073669,1.2359619140625,-10.6658935546875,5.7373046875
9.2699999,-10.345345497131348,0.4141969084739685,0.8906430602073669,5.67626953125,-14.5263671875,6.0272216796875
9.2899999,-9.919178009033203,0.35673606395721436,1.0319008827209473,3.4027099609375,-15.13671875,5.828857421875
9.309999900000001,-9.715670585632324,0.40462008118629456,1.3335703611373901,-3.509521484375,-10.772705078125,10.07080078125
9.3299999,-9.588777542114258,0.4692635238170624,1.7334020137786865,-9.0179443359375,-7.62939453125,10.009765625
9.3499999,-9.512163162231445,0.5386953949928284,2.0685901641845703,-12.6800537109375,-2.99072265625,9.7503662109375
9.3699999,-9.466673851013184,0.6416460275650024,2.205059766769409,-14.862060546875,1.3580322265625,8.819580078125
9.389999900000001,-9.531316757202148,0.7781155705451965,2.188300371170044,-10.3912353515625,-0.2288818359375,6.7596435546875
9.4099999,-9.653421401977539,0.912190854549408,2.03507137298584,-4.058837890625,-4.1656494140625,3.47900390625
9.4299999,-9.775525093078613,1.0558429956436157,1.800439715385437,-2.410888671875,-3.7994384765625,1.556396484375
9.4499999,-9.830592155456543,1.2258312702178955,1.721431016921997,-0.8544921875,-4.7760009765625,-1.617431640625
9.469999900000001,-9.864110946655273,1.4077905416488647,1.867477297782898,-9.7198486328125,-4.425048828125,-6.9122314453125
9.4899999,-9.708487510681152,1.580173134803772,2.188300371170044,-33.99658203125,8.0413818359375,-13.18359375
9.5099999,-9.691728591918945,1.4748282432556152,2.434903144836426,-47.3175048828125,18.85986328125,-14.251708984375
9.5299999,-9.603142738342285,1.094150185585022,2.4396915435791016,-40.6494140625,21.4080810546875,-9.0789794921875
9.549999900000001,-9.682151794433594,0.5051765441894531,2.0901381969451904,-17.913818359375,13.702392578125,-2.2125244140625
9.569999900000001,-9.859322547912598,-0.09576806426048279,1.5179238319396973,6.9580078125,2.9144287109375,4.0130615234375
9.5899999,-10.105925559997559,-0.5171475410461426,0.9265560507774353,24.444580078125,-9.2926025390625,6.6375732421875
9.6099999,-10.144232749938965,-0.45489832758903503,0.5841852426528931,32.2723388671875,-20.0958251953125,0.396728515625
9.629999900000001,-10.1753568649292,-0.19153612852096558,0.5339069962501526,28.74755859375,-19.744873046875,-5.0811767578125
9.649999900000001,-9.952696800231934,0.3495534360408783,0.7852981686592102,16.66259765625,-13.97705078125,-5.7830810546875
9.6699999,-9.787496566772461,0.9768342971801758,1.2449848651885986,5.279541015625,-9.21630859375,-5.4931640625
9.6899999,-9.765948295593262,1.2617442607879639,1.8842366933822632,-0.1068115234375,-8.97216796875,-5.859375
9.709999900000001,-9.588777542114258,1.3718775510787964,2.4468741416931152,-5.79833984375,-6.9427490234375,-9.552001953125
9.729999900000001,-9.555258750915527,1.1420341730117798,2.8107926845550537,-10.2691650390625,5.7220458984375,-13.9312744140625
9.7499999,-9.588777542114258,0.689530074596405,2.868253707885742,-6.4849853515625,12.969970703125,-10.80322265625
9.7699999,-9.62947940826416,0.2298433631658554,2.631227731704712,1.40380859375,8.0108642578125,-2.13623046875
9.7899999,-9.825803756713867,-0.023942016065120697,2.2170307636260986,4.1351318359375,2.3040771484375,4.852294921875
9.809999900000001,-9.967061996459961,-0.2346317619085312,1.8363527059555054,2.288818359375,-4.0130615234375,3.0059814453125
9.8299999,-9.943120002746582,-0.2059013396501541,1.5729905366897583,2.5482177734375,-2.25830078125,-4.5318603515625
9.8499999,-9.90241813659668,0.05027823522686958,1.4867992401123047,4.669189453125,1.434326171875,-2.74658203125
9.8699999,-9.782708168029785,0.2753331959247589,1.5490485429763794,1.068115234375,0.9918212890625,1.1749267578125
9.889999900000001,-9.80904483795166,0.5291185975074768,1.6615760326385498,-8.3160400390625,4.2572021484375,2.471923828125
9.9099999,-9.749189376831055,0.751779317855835,1.8411411046981812,-13.73291015625,0.7781982421875,-1.2664794921875
9.9299999,-9.768342971801758,0.7493851184844971,1.9033904075622559,-12.9241943359375,-0.3204345703125,-8.636474609375
9.9499999,-9.806650161743164,0.4884171485900879,1.8602946996688843,-7.232666015625,4.669189453125,-4.547119140625
9.969999900000001,-9.75637149810791,0.2106897532939911,1.6519991159439087,1.9378662109375,1.0223388671875,1.373291015625
9.9899999,-9.837775230407715,-0.05506663769483566,1.3958195447921753,11.7034912109375,-7.1563720703125,6.5155029296875
10.0099999,-9.971850395202637,-0.23702596127986908,1.2832920551300049,19.500732421875,-17.1356201171875,10.4217529296875
10.0299999,-9.813833236694336,-0.026336219161748886,1.5107412338256836,13.73291015625,-19.2413330078125,2.4566650390625
10.049999900000001,-9.768342971801758,0.30885201692581177,2.0254945755004883,-9.46044921875,1.3275146484375,-1.4801025390625
10.069999900000001,-9.59596061706543,0.6368576288223267,2.6144683361053467,-30.0750732421875,19.47021484375,0
10.0899999,-9.44991397857666,0.8643068075180054,2.9041666984558105,-33.3404541015625,21.1029052734375,2.1514892578125
10.1099999,-9.62947940826416,0.7876923680305481,2.7509377002716064,-19.989013671875,13.61083984375,7.720947265625
10.129999900000001,-9.75397777557373,0.40462008118629456,2.279279947280884,-2.288818359375,0.335693359375,3.936767578125
10.149999900000001,-9.856928825378418,0.05985504388809204,1.6160861253738403,11.1541748046875,-0.946044921875,0.42724609375
10.1699999,-9.995792388916016,-0.1412578970193863,1.2306196689605713,19.9432373046875,-2.838134765625,6.6375732421875
10.1899999,-9.964667320251465,-0.15801730751991272,1.0271124839782715,16.1590576171875,-7.598876953125,10.162353515625
10.209999900000001,-9.93593692779541,0.2561795711517334,1.1444283723831177,4.21142578125,-7.01904296875,12.0086669921875
10.229999900000001,-9.921571731567383,0.586579442024231,1.501164436340332,-8.36181640625,-8.8348388671875,5.859375
10.2499999,-9.701305389404297,0.9097966551780701,1.8507179021835327,-15.777587890625,-0.7781982421875,-4.0435791015625
10.2699999,-9.607931137084961,1.1037269830703735,2.188300371170044,-14.2059326171875,8.0413818359375,-1.739501953125
10.2899999,-9.617507934570312,0.9241618514060974,2.3295583724975586,-12.6190185546875,10.9405517578125,2.1820068359375
10.309999900000001,-9.615114212036133,0.8690952062606812,2.3535003662109375,-12.115478515625,9.5367431640625,5.584716796875
10.3299999,-9.768342971801758,0.5937620401382446,2.2433669567108154,-10.80322265625,2.410888671875,6.1798095703125
10.3499999,-9.775525093078613,0.3974374830722809,2.032677173614502,-7.781982421875,2.62451171875,-1.6632080078125
10.3699999,-9.758766174316406,0.33758243918418884,1.7932571172714233,0,5.43212890625,-0.54931640625
10.389999900000001,-9.825803756713867,0.22266076505184174,1.6376339197158813,3.35693359375,4.6234130859375,4.9896240234375
10.4099999,-9.792284965515137,0.40940847992897034,1.5753847360610962,-2.166748046875,4.425048828125,7.4310302734375
10.4299999,-9.86650562286377,0.4908113479614258,1.5418659448623657,-7.080078125,1.708984375,7.7362060546875
10.4499999,-9.835380554199219,0.6584054827690125,1.522712230682373,-3.6163330078125,-2.655029296875,-0.762939453125
10.469999900000001,-9.799467086791992,0.7852981686592102,1.53707754611969,5.7373046875,-1.739501953125,-6.8817138671875
10.4899999,-9.818621635437012,0.849941611289978,1.6519991159439087,5.2490234375,1.983642578125,-1.7852783203125
10.5099999,-9.77791976928711,0.8571242094039917,1.8291701078414917,-7.75146484375,8.3160400390625,0.701904296875
10.5299999,-9.761159896850586,0.8858546018600464,2.0853497982025146,-18.646240234375,10.0860595703125,0.0762939453125
10.549999900000001,-9.727641105651855,0.6919242739677429,2.255337953567505,-20.0653076171875,8.5296630859375,0.518798828125
10.569999900000001,-9.694122314453125,0.5482721924781799,2.3080103397369385,-15.289306640625,9.857177734375,-2.471923828125
10.5899999,-9.730035781860352,0.2561795711517334,2.161964178085327,-6.011962890625,14.9688720703125,-3.4332275390625
10.6099999,-9.763554573059082,0.12928688526153564,1.800439715385437,3.387451171875,14.0380859375,2.0751953125
10.629999900000001,-9.832986831665039,0.05746084079146385,1.460463047027588,8.0718994140625,7.843017578125,5.859375
10.649999900000001,-9.885659217834473,0.2346317619085312,1.0606313943862915,6.866455078125,1.64794921875,4.8675537109375
10.6699999,-10.002974510192871,0.4189853072166443,0.9193734526634216,2.25830078125,-2.8076171875,3.90625
10.6899999,-9.981427192687988,0.5722141861915588,0.9241618514060974,0.3662109375,-6.317138671875,0.640869140625
10.709999900000001,-9.971850395202637,0.6823474764823914,1.0342950820922852,4.5928955078125,-6.16455078125,-4.1046142578125
10.729999900000001,-9.84256362915039,0.6991068720817566,1.2449848651885986,4.974365234375,-1.7547607421875,-1.9989013671875
10.7499999,-9.797073364257812,0.7613561153411865,1.4724340438842773,-1.7242431640625,3.11279296875,3.326416015625
10.7699999,-9.732429504394531,0.8379706144332886,1.6759412288665771,-8.1634521484375,2.2430419921875,2.8228759765625
10.7899999,-9.80904483795166,0.7230489253997803,1.9991583824157715,-5.1116943359375,-1.7242431640625,1.861572265625
10.809999900000001,-9.797073364257812,0.5171475410461426,1.9153614044189453,1.9073486328125,0.335693359375,-2.6092529296875
10.8299999,-9.830592155456543,0.3016694188117981,1.7717092037200928,9.09423828125,2.38037109375,-1.129150390625
10.8499999,-9.813833236694336,0.26336219906806946,1.5490485429763794,11.749267578125,0.6256103515625,5.706787109375
10.8699999,-9.797073364257812,0.3926490843296051,1.4460978507995605,4.21142578125,-1.2664794921875,7.537841796875
10.889999900000001,-9.830592155456543,0.667982280254364,1.4915876388549805,-7.293701171875,1.8768310546875,3.3416748046875
10.9099999,-9.852140426635742,0.8307880163192749,1.623268723487854,-11.5814208984375,0.396728515625,2.3040771484375
10.9299999,-9.832986831665039,0.9624691009521484,1.7094600200653076,-8.148193359375,-1.007080078125,-2.5634765625
10.9499999,-9.787496566772461,0.9050082564353943,1.6735470294952393,-1.9378662109375,3.3416748046875,-5.9356689453125
10.969999900000001,-9.84256362915039,0.7757213711738586,1.5442601442337036,4.94384765625,4.9896240234375,-2.74658203125
10.9899999,-9.785101890563965,0.7326257228851318,1.4077905416488647,8.880615234375,0.4730224609375,2.1209716796875
11.0099999,-9.821015357971191,0.7015010714530945,1.3910311460494995,5.37109375,-4.3182373046875,2.105712890625
11.0299999,-9.830592155456543,0.6703764796257019,1.5849615335464478,-3.570556640625,-2.6702880859375,1.0986328125
11.049999900000001,-9.773131370544434,0.6392518281936646,1.7884687185287476,-9.9639892578125,1.1138916015625,-1.0833740234375
11.069999900000001,-9.797073364257812,0.524330198764801,1.8938134908676147,-8.0108642578125,6.4697265625,-3.448486328125
11.0899999,-9.823410034179688,0.43095630407333374,1.7908629179000854,-0.1983642578125,6.6680908203125,0.1220703125
11.1099999,-9.861717224121094,0.3711012601852417,1.5538369417190552,6.16455078125,1.7547607421875,5.0811767578125
11.129999900000001,-9.93593692779541,0.4165911078453064,1.280897855758667,5.5084228515625,-2.74658203125,4.4403076171875
11.149999900000001,-9.931148529052734,0.5147533416748047,1.1085153818130493,5.4779052734375,-7.38525390625,4.119873046875
11.1699999,-9.928754806518555,0.6200982332229614,1.1252747774124146,5.4473876953125,-14.6484375,4.0283203125
11.1899999,-9.84495735168457,0.6512228846549988,1.2713210582733154,2.3193359375,-12.9241943359375,-1.3580322265625
11.209999900000001,-9.737217903137207,0.7972691655158997,1.699883222579956,-6.2103271484375,-1.7242431640625,-1.4801025390625
11.229999900000001,-9.536105155944824,1.0127472877502441,2.2912509441375732,-30.2734375,12.3748779296875,4.364013671875
11.2499999,-9.308655738830566,1.3192051649093628,3.0166940689086914,-61.920166015625,27.496337890625,5.462646484375
11.2699999,-8.17141056060791,1.5825673341751099,3.4308910369873047,-96.0845947265625,48.4161376953125,6.0272216796875
11.2899999,-7.2113356590271,1.0295066833496094,3.2154128551483154,-93.9788818359375,64.0716552734375,22.1405029296875
11.309999900000001,-6.303933143615723,0.17717093229293823,2.2361843585968018,-17.791748046875,31.1431884765625,7.293701171875
11.3299999,-6.675034523010254,-0.9265560507774353,0.7350199222564697,67.2760009765625,2.3345947265625,13.6871337890625
11.3499999,-8.063671112060547,-1.2617442607879639,-0.35913026332855225,97.412109375,-19.683837890625,23.7579345703125
11.3699999,-10.199298858642578,-0.5985504388809204,-0.545877993106842,52.215576171875,-13.5345458984375,33.0810546875
11.389999900000001,-11.39400577545166,0.9648633003234863,0.4572925269603729,-25.390625,21.2860107421875,23.2086181640625
11.4099999,-11.57596492767334,2.808398485183716,2.367865562438965,-90.75927734375,60.455322265625,7.0037841796875
11.4299999,-10.606313705444336,3.780444383621216,3.6296098232269287,-151.0772705078125,111.236572265625,-0.2899169921875
11.4499999,-9.72285270690918,4.062960147857666,4.036623954772949,-173.6297607421875,134.674072265625,0.91552734375
11.469999900000001,-9.581595420837402,3.1435868740081787,2.427720546722412,-162.6739501953125,115.7379150390625,7.354736328125
11.4899999,-10.656591415405273,1.4987702369689941,-0.7781155705451965,-111.175537109375,60.8367919921875,21.6827392578125
11.5099999,-11.834539413452148,0.10534487664699554,-3.754108190536499,21.087646484375,-42.7093505859375,23.3612060546875
11.5299999,-12.521675109863281,-0.569819986820221,-5.453991413116455,99.6856689453125,-94.8333740234375,15.13671875
11.549999900000001,-12.02846908569336,-0.2825157940387726,-4.900930881500244,68.389892578125,-62.347412109375,1.190185546875
11.569999900000001,-10.8720703125,0.7805097699165344,-2.58813214302063,16.845703125,-16.2353515625,-5.5389404296875
11.5899999,-9.682151794433594,1.8076223134994507,0.016759412363171577,-12.4969482421875,4.3487548828125,-11.016845703125
11.6099999,-8.980650901794434,2.252943754196167,1.7381904125213623,-14.3280029296875,7.26318359375,-12.2222900390625
11.629999900000001,-8.87051773071289,2.126051187515259,2.3558945655822754,-4.119873046875,4.2572021484375,-6.7901611328125
11.649999900000001,-9.165003776550293,1.6927006244659424,2.1284453868865967,0.823974609375,-0.335693359375,-3.021240234375
11.6699999,-9.591172218322754,1.2856862545013428,1.625662922859192,-0.3814697265625,-1.6021728515625,-4.57763671875
11.6899999,-9.967061996459961,1.0438719987869263,1.1109095811843872,-7.720947265625,6.378173828125,-4.1351318359375
11.709999900000001,-10.156203269958496,0.9002198576927185,0.7206547260284424,-11.962890625,11.6729736328125,-2.13623046875
11.729999900000001,-10.127472877502441,0.8307880163192749,0.3734954595565796,-12.0849609375,7.50732421875,0.3204345703125
11.7499999,-10.036493301391602,0.9097966551780701,0.12210428714752197,-8.3465576171875,0.0152587890625,-0.8697509765625
11.7699999,-10.002974510192871,1.0989385843276978,0.028730420395731926,-4.8370361328125,-1.5106201171875,-9.33837890625
11.7899999,-9.897629737854004,1.137245774269104,0.043095629662275314,-4.1046142578125,2.3956298828125,-16.7694091796875
11.809999900000001,-9.9000244140625,1.048660397529602,0.1867477297782898,-33.4014892578125,7.0343017578125,-5.767822265625
11.8299999,-9.785101890563965,1.1085153818130493,0.4357447028160095,-128.8604736328125,19.22607421875,10.5743408203125
11.8499999,-9.821015357971191,0.9313444495201111,0.6009446382522583,4.9591064453125,6.927490234375,-15.4266357421875
11.8699999,-9.8784761428833,0.9768342971801758,0.8451532125473022,12.359619140625,12.4664306640625,-18.707275390625
11.889999900000001,-9.971850395202637,0.7469909191131592,0.9241618514060974,1.40380859375,19.1192626953125,-8.6669921875
11.9099999,-10.041281700134277,0.40462008118629456,0.8571242094039917,-2.0294189453125,20.7977294921875,8.056640625
11.9299999,-10.062829971313477,0.10295066982507706,0.5339069962501526,-3.8604736328125,17.4407958984375,15.2435302734375
11.9499999,-10.11789608001709,0.2825157940387726,0.06464344263076782,7.537841796875,9.70458984375,8.72802734375
11.969999900000001,-10.20887565612793,0.8571242094039917,-0.6248866319656372,15.9759521484375,-3.2958984375,-5.43212890625
11.9899999,-10.24239444732666,1.4460978507995605,-0.8954314589500427,8.8043212890625,-19.317626953125,-19.1192626953125
12.0099999,-10.211270332336426,1.8100165128707886,-0.9361328482627869,0.091552734375,-20.0042724609375,-23.1781005859375
12.0299999,-10.113107681274414,1.7262194156646729,-0.5793967843055725,8.5296630859375,-9.8724365234375,-20.4620361328125
12.049999900000001,-10.034099578857422,1.3431471586227417,-0.1173158809542656,17.27294921875,-6.439208984375,-15.2130126953125
12.069999900000001,-9.955090522766113,0.8762778043746948,0.43335050344467163,12.51220703125,-11.932373046875,-13.8397216796875
12.0899999,-9.840168952941895,0.45010992884635925,0.7996633648872375,8.0413818359375,-4.7760009765625,-10.92529296875
12.1099999,-9.799467086791992,0.08379705995321274,1.1061211824417114,11.505126953125,9.1094970703125,-2.349853515625
12.129999900000001,-9.75637149810791,-0.035913024097681046,1.2066776752471924,10.6964111328125,17.425537109375,2.3345947265625
12.149999900000001,-9.823410034179688,0,1.039083480834961,7.75146484375,13.580322265625,0.8392333984375
12.1699999,-9.943120002746582,0.20350714027881622,0.7182605266571045,8.636474609375,8.575439453125,-5.79833984375
12.1899999,-10.04846477508545,0.38067805767059326,0.38067805767059326,7.080078125,10.1318359375,-6.5460205078125
12.209999900000001,-10.199298858642578,0.4812345504760742,0.09816227108240128,3.448486328125,12.2833251953125,0.5035400390625
12.229999900000001,-10.26394271850586,0.4429273009300232,-0.040701430290937424,4.4708251953125,7.3089599609375,4.2724609375
12.2499999,-10.225635528564453,0.4189853072166443,-0.06703764945268631,2.9449462890625,5.1422119140625,4.1351318359375
12.2699999,-10.129867553710938,0.44532153010368347,-0.06464344263076782,-2.410888671875,12.0086669921875,4.5318603515625
12.289999900000002,-9.921571731567383,0.5506663918495178,-0.07422025501728058,0.091552734375,14.3585205078125,3.2958984375
12.309999900000001,-9.701305389404297,0.6584054827690125,-0.06464344263076782,9.7808837890625,6.34765625,-1.64794921875
12.3299999,-9.579200744628906,0.7230489253997803,-0.08619125932455063,7.14111328125,3.8909912109375,-4.6844482421875
12.3499999,-9.63187313079834,0.7829039692878723,-0.24660277366638184,-2.99072265625,11.4898681640625,-1.6326904296875
12.3699999,-9.818621635437012,0.6991068720817566,-0.5386953949928284,2.38037109375,5.3863525390625,-1.5411376953125
12.389999900000001,-10.165780067443848,0.40462008118629456,-1.2425906658172607,34.637451171875,-19.012451171875,-6.7138671875
12.4099999,-10.342951774597168,0.05267243832349777,-1.8339585065841675,99.639892578125,-56.854248046875,-10.7879638671875
12.4299999,-10.381258964538574,-0.2322375625371933,-2.0590133666992188,138.9312744140625,-69.915771484375,-9.185791015625
12.4499999,-10.120290756225586,-0.20350714027881622,-1.3742717504501343,126.6632080078125,-55.96923828125,-7.781982421875
12.469999900000001,-9.72285270690918,0.14844051003456116,0.0071826050989329815,73.7762451171875,-21.575927734375,-12.6190185546875
12.4899999,-9.387664794921875,0.6943184733390808,1.4197616577148438,12.0086669921875,17.0440673828125,-11.871337890625
12.5099999,-9.3828763961792,1.1492167711257935,2.145204782485962,-11.8408203125,32.623291015625,-6.65283203125
12.5299999,-9.617507934570312,1.3287819623947144,2.027888774871826,11.04736328125,12.4359130859375,-13.427734375
12.549999900000001,-9.95748519897461,1.2401964664459229,1.2234370708465576,32.0587158203125,-14.434814453125,-12.51220703125
12.569999900000001,-10.338163375854492,0.9792284965515137,0.38546648621559143,39.306640625,-22.674560546875,-3.2806396484375
12.5899999,-10.376470565795898,0.6129156351089478,0.047884032130241394,37.8265380859375,-22.857666015625,-4.119873046875
12.6099999,-10.220847129821777,0.20350714027881622,0.05985504388809204,25.848388671875,-15.533447265625,-1.46484375
12.629999900000001,-10.18493366241455,-0.1173158809542656,0.1867477297782898,18.9971923828125,-5.9661865234375,6.195068359375
12.649999900000001,-10.261548042297363,-0.40940847992897034,0.0933738648891449,34.5611572265625,-14.3280029296875,7.0343017578125
12.6699999,-10.32858657836914,-0.6200982332229614,-0.3926490843296051,73.91357421875,-39.1693115234375,3.9520263671875
12.6899999,-10.433931350708008,-0.7254431247711182,-0.8212111592292786,122.589111328125,-67.4896240234375,4.9591064453125
12.709999900000001,-10.27591323852539,-0.5171475410461426,-0.7038952708244324,150.57373046875,-71.258544921875,4.08935546875
12.729999900000001,-9.734824180603027,0.021547814831137657,0.3256114423274994,130.767822265625,-48.3551025390625,-1.4190673828125
12.7499999,-9.21288776397705,0.871489405632019,1.9393033981323242,59.6466064453125,-3.3721923828125,0.18310546875
12.7699999,-8.753201484680176,1.8842366933822632,3.552995204925537,-7.2479248046875,39.9322509765625,-0.5645751953125
12.789999900000002,-8.702922821044922,2.7246015071868896,4.355052947998047,-49.3621826171875,57.5408935546875,-2.166748046875
12.809999900000001,-9.05247688293457,3.064578056335449,3.907337188720703,-69.9310302734375,60.1959228515625,-7.2174072265625
12.8299999,-9.59835433959961,2.5761611461639404,2.2433669567108154,-53.3599853515625,39.0625,-13.3209228515625
12.8499999,-10.182539939880371,1.316810965538025,-0.05985504388809204,13.6260986328125,-1.40380859375,-10.0250244140625
12.8699999,-10.491392135620117,-0.33518823981285095,-2.2433669567108154,103.546142578125,-57.861328125,1.7242431640625
12.889999900000001,-10.402806282043457,-1.4867992401123047,-3.117250680923462,169.769287109375,-96.0845947265625,13.6871337890625
12.9099999,-10.074800491333008,-1.4772224426269531,-2.1045033931732178,155.426025390625,-77.9571533203125,15.9149169921875
12.9299999,-9.607931137084961,-0.17238251864910126,0.33997663855552673,63.3544921875,-6.7596435546875,5.157470703125
12.9499999,-9.311050415039062,1.721431016921997,3.1100680828094482,-30.792236328125,52.9632568359375,-12.908935546875
12.969999900000001,-9.260771751403809,3.2417490482330322,4.663905143737793,-72.9522705078125,74.0966796875,-25.6195068359375
12.9899999,-9.516951560974121,3.5960910320281982,4.381389141082764,-54.6417236328125,58.9447021484375,-28.8238525390625
13.0099999,-9.742006301879883,2.715024709701538,2.432508945465088,-8.23974609375,22.4609375,-24.200439453125
13.0299999,-9.986215591430664,0.9265560507774353,-0.06224924325942993,54.7637939453125,-19.6075439453125,-15.2435302734375
13.049999900000001,-10.122684478759766,-0.8092401623725891,-1.9584569931030273,122.98583984375,-57.2967529296875,-4.2266845703125
13.069999900000001,-10.201693534851074,-1.6352397203445435,-2.1308395862579346,145.9197998046875,-69.6563720703125,8.514404296875
13.0899999,-10.125079154968262,-1.2497732639312744,-0.689530074596405,94.512939453125,-29.876708984375,13.031005859375
13.1099999,-9.821015357971191,0.3256114423274994,1.7549498081207275,2.5177001953125,37.0635986328125,-1.64794921875
13.129999900000001,-9.493009567260742,2.2002713680267334,3.8786067962646484,-82.5042724609375,85.6781005859375,-22.491455078125
13.149999900000001,-9.72285270690918,3.708618402481079,4.5394062995910645,-130.584716796875,97.4578857421875,-35.186767578125
13.1699999,-10.54645824432373,4.110844135284424,3.552995204925537,-141.387939453125,82.0465087890625,-44.921875
13.1899999,-12.09550666809082,3.445256233215332,1.2689268589019775,-110.0006103515625,50.5218505859375,-39.031982421875
13.209999900000001,-13.326127052307129,1.946485996246338,-1.2689268589019775,-43.6859130859375,10.6964111328125,-35.980224609375
13.229999900000001,-14.355633735656738,0.3998316824436188,-3.2800562381744385,13.0615234375,-26.4434814453125,-27.9693603515625
13.2499999,-13.560758590698242,-1.091755986213684,-4.129997730255127,49.37744140625,-46.661376953125,-18.7225341796875
13.2699999,-11.12106704711914,-2.070984363555908,-3.6990416049957275,66.2994384765625,-51.2542724609375,4.3792724609375
13.289999900000002,-8.283937454223633,-2.540247917175293,-2.3032219409942627,50.3997802734375,-29.9835205078125,36.19384765625
13.309999900000001,-6.179434776306152,-2.5019407272338867,-0.40462008118629456,21.331787109375,16.8914794921875,58.929443359375
13.3299999,-5.231330871582031,-1.821987509727478,1.4269442558288574,-13.7481689453125,4.5166015625,2.5177001953125
13.3499999,-6.789956092834473,-0.7805097699165344,2.7940332889556885,-36.865234375,9.1400146484375,-10.284423828125
13.3699999,-9.387664794921875,0.49320554733276367,3.3662476539611816,-21.240234375,18.5699462890625,-3.3721923828125
13.389999900000001,-11.87763500213623,1.2880805730819702,3.2824504375457764,-8.758544921875,9.3841552734375,-22.3388671875
13.4099999,-13.903129577636719,1.680729627609253,2.5713725090026855,-3.7994384765625,-5.340576171875,-69.1986083984375
13.4299999,-14.58308219909668,1.434126853942871,1.6711528301239014,-0.030517578125,3.72314453125,-57.80029296875
13.4499999,-13.876792907714844,0.8834604024887085,0.7541735172271729,0.640869140625,4.8675537109375,-20.7061767578125
13.469999900000001,-12.291831970214844,0.31364041566848755,0.023942016065120697,2.2735595703125,-4.94384765625,8.636474609375
13.4899999,-10.551246643066406,-0.10055647045373917,-0.4596867263317108,6.2408447265625,-3.8299560546875,5.7525634765625
13.5099999,-9.181763648986816,-0.24660277366638184,-0.6631938815116882,3.3416748046875,14.373779296875,-21.1334228515625
13.5299999,-8.293514251708984,-0.2082955539226532,-0.6344634294509888,-0.946044921875,29.205322265625,-52.3529052734375
13.549999900000001,-7.778761386871338,-0.2082955539226532,-0.43335050344467163,3.5400390625,29.8309326171875,-73.3184814453125
13.569999900000001,-7.589619159698486,-0.2561795711517334,-0.19393034279346466,5.9967041015625,22.5067138671875,-80.810546875
13.5899999,-7.558494567871094,-0.4668693244457245,0.043095629662275314,3.0517578125,11.2762451171875,-85.540771484375
13.6099999,-7.687781810760498,-0.828393816947937,0.26815059781074524,3.2806396484375,1.89208984375,-89.6148681640625
13.629999900000001,-7.9176249504089355,-1.2880805730819702,0.4572925269603729,5.9967041015625,6.40869140625,-93.7957763671875
13.649999900000001,-8.106766700744629,-1.8794482946395874,0.6033388376235962,8.8958740234375,21.2249755859375,-101.1810302734375
13.6699999,-8.2312650680542,-2.557007312774658,0.6847416758537292,13.9923095703125,31.5704345703125,-108.4442138671875
13.6899999,-8.271966934204102,-3.2824504375457764,0.6703764796257019,21.5911865234375,32.4859619140625,-111.3128662109375
13.709999900000001,-8.259995460510254,-4.02465295791626,0.5722141861915588,29.6630859375,23.2086181640625,-112.12158203125
13.729999900000001,-8.190564155578613,-4.707000732421875,0.507570743560791,38.6505126953125,9.4451904296875,-113.0523681640625
13.7499999,-8.018181800842285,-5.2696380615234375,0.5339069962501526,46.234130859375,10.589599609375,-115.9210205078125
13.7699999,-7.800309181213379,-5.647922039031982,0.6368576288223267,50.6134033203125,31.158447265625,-121.1395263671875
13.789999900000002,-7.5632829666137695,-5.892130374908447,0.7565677165985107,54.412841796875,50.048828125,-128.3111572265625
13.809999900000001,-7.38132381439209,-5.999869346618652,0.8092401623725891,55.877685546875,53.16162109375,-134.735107421875
13.8299999,-7.249642848968506,-6.100425720214844,0.7422025203704834,63.4918212890625,50.96435546875,-138.4735107421875
13.8499999,-7.0317702293396,-6.258443355560303,0.6823474764823914,74.2950439453125,51.422119140625,-143.3563232421875
13.8699999,-6.9910688400268555,-6.31829833984375,0.6392518281936646,79.8187255859375,58.441162109375,-145.8587646484375
13.889999900000001,-6.950367450714111,-6.495469093322754,0.5793967843055725,80.8868408203125,79.803466796875,-137.6800537109375
13.9099999,-6.988674640655518,-6.653486728668213,0.507570743560791,86.3800048828125,96.9085693359375,-119.1558837890625
13.9299999,-6.97430944442749,-6.847416877746582,0.3663128614425659,88.623046875,99.8382568359375,-102.4932861328125
13.9499999,-6.818686485290527,-7.026981830596924,0.19153612852096558,86.1053466796875,95.03173828125,-94.085693359375
13.969999900000001,-6.660669326782227,-7.067683219909668,-0.1173158809542656,78.9947509765625,83.2977294921875,-89.4317626953125
13.9899999,-6.703764915466309,-7.0341644287109375,-0.47644615173339844,70.00732421875,51.239013671875,-89.752197265625
14.0099999,-6.959944248199463,-6.943184852600098,-0.8858546018600464,71.9451904296875,15.19775390625,-85.235595703125
14.0299999,-7.144298076629639,-6.873753070831299,-1.0414776802062988,64.51416015625,-17.2882080078125,-86.151123046875
14.049999900000001,-7.220912456512451,-6.84981107711792,-0.9241618514060974,48.7213134765625,-30.8990478515625,-93.353271484375
14.069999900000001,-6.983886241912842,-6.919242858886719,-0.5219359993934631,35.430908203125,-29.2205810546875,-98.44970703125
14.0899999,-6.512228488922119,-7.117961883544922,0.043095629662275314,24.627685546875,-29.022216796875,-98.9227294921875
14.1099999,-6.021417140960693,-7.539340972900391,0.5434837937355042,14.892578125,-23.834228515625,-98.1597900390625
14.129999900000001,-5.492298603057861,-8.04691219329834,0.9217676520347595,-1.7852783203125,-1.77001953125,-96.466064453125
14.149999900000001,-5.0254292488098145,-8.65743350982666,1.158793568611145,-10.80322265625,13.6260986328125,-94.970703125
14.1699999,-4.656722068786621,-9.191340446472168,1.1420341730117798,-11.2152099609375,18.5546875,-90.88134765625
14.1899999,-4.4532151222229,-9.641449928283691,0.8930372595787048,-12.481689453125,16.7694091796875,-85.479736328125
14.209999900000001,-4.335899353027344,-9.96945571899414,0.43335050344467163,-14.4195556640625,4.3792724609375,-81.3140869140625
14.229999900000001,-4.266467571258545,-10.163386344909668,-0.07900865375995636,-8.4991455078125,-12.51220703125,-76.72119140625
14.2499999,-4.14915132522583,-10.211270332336426,-0.5171475410461426,5.2490234375,-23.8037109375,-71.7010498046875
14.2699999,-3.914519786834717,-10.132261276245117,-0.8020575642585754,-5.79833984375,-19.561767578125,-72.0977783203125
14.289999900000002,-3.507505416870117,-9.986215591430664,-0.8307880163192749,-2.4566650390625,-18.4783935546875,-72.235107421875
14.309999900000001,-3.0095114707946777,-9.861717224121094,-0.6847416758537292,3.936767578125,-13.092041015625,-71.77734375
14.3299999,-2.4205379486083984,-9.727641105651855,-0.3902548849582672,7.171630859375,-4.2266845703125,-68.206787109375
14.3499999,-1.8579005002975464,-9.701305389404297,-0.011971008032560349,6.0882568359375,4.5166015625,-62.8814697265625
14.3699999,-1.3527239561080933,-9.684545516967773,0.31603461503982544,4.6234130859375,9.368896484375,-57.373046875
14.389999900000001,-0.8403648138046265,-9.782708168029785,0.6751648783683777,13.00048828125,7.110595703125,-48.76708984375
14.4099999,-0.4908113479614258,-9.746794700622559,1.0055646896362305,16.0675048828125,14.739990234375,-35.4156494140625
14.4299999,-0.26575639843940735,-9.768342971801758,1.2521674633026123,1.190185546875,31.402587890625,-24.932861328125
14.4499999,-0.2059013396501541,-9.703699111938477,1.460463047027588,2.960205078125,15.19775390625,-17.9901123046875
14.469999900000001,-0.31603461503982544,-9.653421401977539,1.5705963373184204,15.19775390625,-14.8468017578125,-7.14111328125
14.4899999,-0.4572925269603729,-9.591172218322754,1.558625340461731,1.434326171875,-12.420654296875,4.1046142578125
14.5099999,-0.8188169598579407,-10.256759643554688,1.9632453918457031,-7.415771484375,-2.5177001953125,4.974365234375
14.5299999,-1.0031704902648926,-10.086771965026855,1.8339585065841675,-52.8411865234375,27.8778076171875,-40.283203125
14.549999900000001,-1.4844050407409668,-10.642226219177246,1.7262194156646729,-46.4324951171875,16.4794921875,-42.938232421875
14.569999900000001,-1.6065093278884888,-10.311826705932617,1.1683704853057861,3.143310546875,-27.496337890625,-35.3851318359375
14.5899999,-1.403002142906189,-10.14902114868164,-0.2513911724090576,2.9144287109375,-7.720947265625,-59.112548828125
14.6099999,-0.7613561153411865,-10.651803016662598,-0.7541735172271729,15.7012939453125,0.5950927734375,-56.5185546875
14.629999900000001,0.2322375625371933,-10.515334129333496,-0.5099649429321289,23.6358642578125,6.3629150390625,-25.8331298828125
14.649999900000001,1.3287819623947144,-10.90558910369873,-0.49559974670410156,-5.31005859375,2.7008056640625,11.6729736328125
14.6699999,1.9560627937316895,-10.618284225463867,-0.08619125932455063,-8.5296630859375,11.993408203125,24.993896484375
14.6899999,1.9536685943603516,-10.400412559509277,0.1149216815829277,-1.5869140625,25.8331298828125,11.566162109375
14.709999900000001,1.278503656387329,-10.156203269958496,0.19871874153614044,-3.2958984375,21.0113525390625,-4.2724609375
14.729999900000001,0.3256114423274994,-9.923966407775879,0.23702596127986908,-2.7313232421875,13.0157470703125,-6.4697265625
14.7499999,-0.47165772318840027,-9.816226959228516,0.20350714027881622,2.2430419921875,1.1138916015625,-4.913330078125
14.7699999,-0.8762778043746948,-9.823410034179688,0.19393034279346466,2.899169921875,0.1068115234375,-6.3934326171875
14.789999900000002,-0.8643068075180054,-9.864110946655273,0.29209262132644653,4.33349609375,0.3662109375,-7.4310302734375
14.809999900000001,-0.5123591423034668,-9.888052940368652,0.4596867263317108,1.2359619140625,0.3662109375,-3.4942626953125
14.8299999,-0.06464344263076782,-9.955090522766113,0.629675030708313,-2.777099609375,0.2593994140625,2.50244140625
14.8499999,0.2537853717803955,-9.971850395202637,0.751779317855835,-0.640869140625,0.9918212890625,6.5155029296875
14.8699999,0.2992752194404602,-9.962273597717285,0.8092401623725891,2.0751953125,1.373291015625,3.11279296875
14.889999900000001,0.10055647045373917,-9.952696800231934,0.7541735172271729,-0.6103515625,0.2899169921875,-1.5411376953125
14.9099999,-0.10295066982507706,-9.921571731567383,0.6775590777397156,-1.983642578125,-0.7476806640625,-5.9051513671875
14.9299999,-0.15801730751991272,-9.911994934082031,0.6607996821403503,2.6702880859375,0.335693359375,-5.4931640625
14.9499999,-0.05985504388809204,-9.911994934082031,0.6560112833976746,2.5787353515625,1.3427734375,0.885009765625
14.969999900000001,0.08379705995321274,-9.938331604003906,0.6607996821403503,-2.838134765625,0.7476806640625,4.364013671875
14.9899999,0.10295066982507706,-9.921571731567383,0.6919242739677429,-2.2735595703125,0.48828125,2.532958984375
15.0099999,-0.011971008032560349,-9.914389610290527,0.6847416758537292,1.9683837890625,0.9918212890625,-1.1138916015625
15.0299999,-0.12689268589019775,-9.911994934082031,0.6200982332229614,1.28173828125,0.396728515625,-4.21142578125
15.049999900000001,-0.14365209639072418,-9.916783332824707,0.6200982332229614,-0.4119873046875,-0.1983642578125,-4.150390625
15.069999900000001,-0.05027823522686958,-9.928754806518555,0.6560112833976746,-0.274658203125,0.4730224609375,-0.1373291015625
15.0899999,0.07182604819536209,-9.95748519897461,0.6727706789970398,-0.18310546875,1.0528564453125,2.9296875
15.1099999,0.10534487664699554,-9.959878921508789,0.6871358752250671,-0.091552734375,0.732421875,1.8310546875
15.129999900000001,0.035913024097681046,-9.952696800231934,0.6799532771110535,0.0152587890625,0.701904296875,-0.48828125
15.149999900000001,-0.05506663769483566,-9.947908401489258,0.6392518281936646,-0.732421875,0.274658203125,-2.6092529296875
15.1699999,-0.08858546614646912,-9.928754806518555,0.6344634294509888,0.79345703125,0.5035400390625,-2.0751953125
15.1899999,-0.05746084079146385,-9.921571731567383,0.6536170840263367,1.251220703125,0.9613037109375,0.1678466796875
15.209999900000001,0.009576806798577309,-9.926360130310059,0.6536170840263367,-1.434326171875,0.3204345703125,0.7781982421875
15.229999900000001,0.028730420395731926,-9.926360130310059,0.6727706789970398,-1.03759765625,0.3204345703125,0.335693359375
15.2499999,-0.0071826050989329815,-9.921571731567383,0.6871358752250671,1.434326171875,1.068115234375,-0.2899169921875
15.2699999,-0.047884032130241394,-9.928754806518555,0.6607996821403503,0.1068115234375,0.640869140625,-1.3427734375
15.289999900000002,-0.0694318488240242,-9.931148529052734,0.6560112833976746,-0.7781982421875,0.4119873046875,-1.4801025390625
15.309999900000001,-0.047884032130241394,-9.931148529052734,0.6775590777397156,0.518798828125,0.701904296875,-0.4425048828125
15.3299999,-0.004788403399288654,-9.93593692779541,0.6703764796257019,0.152587890625,0.6256103515625,0.1373291015625
15.3499999,0.021547814831137657,-9.93593692779541,0.6631938815116882,-0.5340576171875,0.48828125,0.30517578125
15.3699999,0.002394201699644327,-9.928754806518555,0.6607996821403503,0,0.6256103515625,0
15.389999900000001,-0.033518824726343155,-9.928754806518555,0.6440402865409851,0.0152587890625,0.640869140625,-0.9765625
15.4099999,-0.06224924325942993,-9.926360130310059,0.6416460275650024,0.3509521484375,0.6256103515625,-1.2664794921875
15.4299999,-0.05506663769483566,-9.931148529052734,0.6584054827690125,0.42724609375,0.67138671875,-0.79345703125
15.4499999,-0.011971008032560349,-9.93354320526123,0.6584054827690125,-0.5645751953125,0.4119873046875,-0.2899169921875
15.469999900000001,0.019153613597154617,-9.93354320526123,0.667982280254364,-0.1983642578125,0.5340576171875,0.3662109375
15.4899999,0.014365210197865963,-9.93354320526123,0.6727706789970398,0.5340576171875,0.8087158203125,0.4730224609375
15.5099999,-0.016759412363171577,-9.93354320526123,0.6584054827690125,-0.18310546875,0.6256103515625,-0.67138671875
15.5299999,-0.05506663769483566,-9.931148529052734,0.6560112833976746,-0.1068115234375,0.5645751953125,-1.3580322265625
15.549999900000001,-0.05985504388809204,-9.931148529052734,0.6631938815116882,0.42724609375,0.732421875,-1.129150390625
15.569999900000001,-0.021547814831137657,-9.938331604003906,0.6560112833976746,-0.1220703125,0.4730224609375,-0.396728515625
15.5899999,0.019153613597154617,-9.938331604003906,0.6631938815116882,-0.0457763671875,0.5950927734375,0.48828125
15.6099999,0.026336219161748886,-9.940725326538086,0.6751648783683777,0.18310546875,0.762939453125,0.579833984375
15.629999900000001,-0.002394201699644327,-9.938331604003906,0.667982280254364,-0.396728515625,0.5340576171875,-0.335693359375
15.649999900000001,-0.0454898327589035,-9.93593692779541,0.6631938815116882,-0.0762939453125,0.48828125,-1.068115234375
15.6699999,-0.05985504388809204,-9.931148529052734,0.6607996821403503,0.457763671875,0.5645751953125,-1.3427734375
15.6899999,-0.031124621629714966,-9.93354320526123,0.6560112833976746,0.0762939453125,0.6103515625,-0.6103515625
15.709999900000001,0.009576806798577309,-9.93593692779541,0.6631938815116882,-0.335693359375,0.640869140625,0.335693359375
15.729999900000001,0.026336219161748886,-9.93593692779541,0.6703764796257019,-0.1983642578125,0.7171630859375,0.6256103515625
15.7499999,0,-9.931148529052734,0.6703764796257019,0.0762939453125,0.79345703125,0.0152587890625
15.7699999,-0.040701430290937424,-9.928754806518555,0.6655880808830261,-0.0762939453125,0.640869140625,-0.9918212890625
15.789999900000002,-0.05746084079146385,-9.926360130310059,0.6536170840263367,-0.1220703125,0.4119873046875,-1.5716552734375
15.809999900000001,-0.031124621629714966,-9.928754806518555,0.6512228846549988,0.3204345703125,0.54931640625,-0.79345703125
15.8299999,0.014365210197865963,-9.928754806518555,0.6584054827690125,0.2593994140625,0.6866455078125,0.42724609375
15.8499999,0.035913024097681046,-9.931148529052734,0.6631938815116882,-0.4730224609375,0.701904296875,0.9002685546875
15.869999900000002,0.0071826050989329815,-9.931148529052734,0.6655880808830261,-0.4730224609375,0.67138671875,0.152587890625
15.889999900000001,-0.05267243832349777,-9.923966407775879,0.6703764796257019,0.518798828125,0.732421875,-0.91552734375
15.9099999,-0.08140286058187485,-9.926360130310059,0.6584054827690125,0.3662109375,0.5645751953125,-1.617431640625
15.9299999,-0.05506663769483566,-9.928754806518555,0.6584054827690125,-0.1678466796875,0.3662109375,-1.220703125
15.9499999,0,-9.93593692779541,0.6775590777397156,0.2593994140625,0.701904296875,0.3814697265625
15.969999900000001,0.043095629662275314,-9.938331604003906,0.6847416758537292,-0.244140625,0.7171630859375,1.0223388671875
15.9899999,0.033518824726343155,-9.943120002746582,0.6799532771110535,-0.5950927734375,0.6561279296875,0.42724609375
16.0099999,-0.021547814831137657,-9.931148529052734,0.6727706789970398,0.18310546875,0.67138671875,-0.6561279296875
16.0299999,-0.06464344263076782,-9.931148529052734,0.6584054827690125,0.3509521484375,0.5645751953125,-1.495361328125
16.0499999,-0.05506663769483566,-9.928754806518555,0.6536170840263367,0,0.5340576171875,-1.28173828125
16.0699999,-0.011971008032560349,-9.93593692779541,0.6655880808830261,-0.0762939453125,0.640869140625,0.1068115234375
16.089999900000002,0.031124621629714966,-9.93593692779541,0.6775590777397156,-0.2288818359375,0.701904296875,0.946044921875
16.109999900000002,0.028730420395731926,-9.93593692779541,0.6799532771110535,-0.274658203125,0.640869140625,0.48828125
16.1299999,-0.016759412363171577,-9.931148529052734,0.6703764796257019,-0.0762939453125,0.579833984375,-0.579833984375
16.1499999,-0.05506663769483566,-9.928754806518555,0.6560112833976746,0.1220703125,0.579833984375,-1.4495849609375
16.1699999,-0.05506663769483566,-9.928754806518555,0.6560112833976746,0.5035400390625,0.6103515625,-1.1749267578125
16.1899999,-0.014365210197865963,-9.93354320526123,0.667982280254364,0.0457763671875,0.5950927734375,0.0152587890625
16.2099999,0.028730420395731926,-9.93593692779541,0.6727706789970398,-0.8087158203125,0.518798828125,0.7171630859375
16.2299999,0.028730420395731926,-9.93593692779541,0.6799532771110535,-0.152587890625,0.6561279296875,0.640869140625
16.249999900000002,-0.011971008032560349,-9.926360130310059,0.6751648783683777,0.3814697265625,0.7171630859375,-0.274658203125
16.269999900000002,-0.05506663769483566,-9.923966407775879,0.6584054827690125,-0.030517578125,0.518798828125,-1.3275146484375
16.2899999,-0.05985504388809204,-9.921571731567383,0.6584054827690125,-0.0762939453125,0.5340576171875,-1.4495849609375
16.3099999,-0.026336219161748886,-9.923966407775879,0.6727706789970398,0.3662109375,0.6256103515625,-0.3662109375
16.3299999,0.021547814831137657,-9.931148529052734,0.6775590777397156,-0.091552734375,0.67138671875,0.6103515625
16.3499999,0.033518824726343155,-9.931148529052734,0.6799532771110535,-0.457763671875,0.5645751953125,0.5340576171875
16.3699999,0,-9.928754806518555,0.6775590777397156,0.091552734375,0.6561279296875,-0.2288818359375
16.3899999,-0.0454898327589035,-9.926360130310059,0.6655880808830261,0.18310546875,0.5950927734375,-1.1444091796875
16.4099999,-0.06464344263076782,-9.928754806518555,0.6584054827690125,0.0152587890625,0.48828125,-1.373291015625
16.429999900000002,-0.043095629662275314,-9.928754806518555,0.667982280254364,0.030517578125,0.67138671875,-0.6561279296875
16.4499999,0.002394201699644327,-9.93354320526123,0.6727706789970398,-0.2288818359375,0.67138671875,0.3204345703125
16.4699999,0.026336219161748886,-9.93354320526123,0.6751648783683777,-0.30517578125,0.6103515625,0.48828125
16.4899999,0.011971008032560349,-9.926360130310059,0.6751648783683777,0.1983642578125,0.67138671875,-0.091552734375
16.5099999,-0.023942016065120697,-9.923966407775879,0.667982280254364,0.091552734375,0.54931640625,-0.823974609375
16.5299999,-0.047884032130241394,-9.923966407775879,0.6607996821403503,-0.2288818359375,0.4730224609375,-1.0223388671875
16.5499999,-0.043095629662275314,-9.923966407775879,0.6655880808830261,0.244140625,0.6561279296875,-0.6103515625
