# Time (seconds),Accel_X,Accel_Y,Accel_Z,Gyro_X,Gyro_Y,Gyro_Z
0.0099999,-5.995080947875977,-6.861782073974609,1.0247182846069336,12.9241943359375,16.9525146484375,88.348388671875
0.029999900000000003,-6.440402507781982,-6.830657482147217,1.1061211824417114,5.859375,22.3541259765625,81.207275390625
0.0499999,-6.833051681518555,-6.866570472717285,1.2066776752471924,0.518798828125,21.9268798828125,73.9898681640625
0.0699999,-7.184999465942383,-6.9695210456848145,1.2832920551300049,-2.7008056640625,18.37158203125,62.68310546875
0.08999990000000001,-7.433996200561523,-7.082048416137695,1.3072341680526733,-5.3863525390625,16.4947509765625,55.5877685546875
0.10999990000000001,-7.570465564727783,-7.206547260284424,1.2713210582733154,-7.537841796875,12.0849609375,58.16650390625
0.1299999,-7.608773231506348,-7.259219646453857,1.2042834758758545,-8.209228515625,2.3193359375,65.61279296875
0.14999990000000002,-7.608773231506348,-7.247248649597168,1.1085153818130493,-8.1787109375,-3.4332275390625,69.305419921875
0.1699999,-7.589619159698486,-7.117961883544922,1.01753568649292,-7.9498291015625,-1.3885498046875,70.5413818359375
0.1899999,-7.6111674308776855,-6.921637058258057,0.9241618514060974,-7.7362060546875,1.8768310546875,75.714111328125
0.20999990000000002,-7.706935405731201,-6.653486728668213,0.8355764150619507,-6.2713623046875,-1.3275146484375,81.1309814453125
0.2299999,-7.881711959838867,-6.380547523498535,0.7541735172271729,-3.875732421875,-7.2784423828125,78.826904296875
0.2499999,-8.08282470703125,-6.1315507888793945,0.6967126727104187,-2.197265625,-7.1563720703125,74.066162109375
0.2699999,-8.343792915344238,-5.928043365478516,0.6536170840263367,-1.495361328125,-3.8604736328125,75.5462646484375
0.28999990000000003,-8.619126319885254,-5.743690013885498,0.6105214357376099,0.1220703125,-6.04248046875,73.822021484375
0.3099999,-8.89685344696045,-5.5976433753967285,0.5650315880775452,4.0283203125,-11.1236572265625,58.8226318359375
0.3299999,-9.136273384094238,-5.434837818145752,0.507570743560791,7.659912109375,-8.8958740234375,40.924072265625
0.34999990000000003,-9.220070838928223,-5.2672438621521,0.45489832758903503,9.307861328125,-1.7852783203125,31.9976806640625
0.3699999,-9.0859956741333,-5.097255229949951,0.42377370595932007,10.2386474609375,1.0986328125,32.5927734375
0.3899999,-8.803479194641113,-4.9368438720703125,0.43335050344467163,10.9100341796875,1.434326171875,35.9039306640625
0.40999990000000003,-8.49941635131836,-4.745307922363281,0.4381389021873474,10.040283203125,4.425048828125,38.0859375
0.4299999,-8.267178535461426,-4.575319290161133,0.47644615173339844,8.2855224609375,6.317138671875,39.24560546875
0.4499999,-8.24084186553955,-4.400542736053467,0.5051765441894531,6.0882568359375,5.157470703125,39.2303466796875
0.4699999,-8.379706382751465,-4.252102375030518,0.5386953949928284,4.7760009765625,0.335693359375,33.2489013671875
0.4899999,-8.927978515625,-4.07014274597168,0.6105214357376099,0.1983642578125,0.640869140625,14.9383544921875
0.5099999,-9.167398452758789,-4.022258758544922,0.6392518281936646,-2.6702880859375,4.0283203125,8.636474609375
0.5299999,-9.311050415039062,-4.01268196105957,0.6536170840263367,-3.662109375,3.631591796875,2.8533935546875
0.5499999,-9.378087997436523,-4.01268196105957,0.6512228846549988,-3.47900390625,1.15966796875,0.9613037109375
0.5699999,-9.399636268615723,-4.005499362945557,0.6536170840263367,-3.8909912109375,-2.349853515625,3.814697265625
0.5899998999999999,-9.399636268615723,-3.955221176147461,0.6655880808830261,-4.913330078125,-7.6904296875,6.9732666015625
0.6099998999999999,-9.368511199951172,-3.864241600036621,0.7158663272857666,-7.720947265625,-12.359619140625,7.1868896484375
0.6299999,-9.301473617553711,-3.734954595565796,0.7805097699165344,-11.993408203125,-9.58251953125,7.476806640625
0.6499999,-9.196128845214844,-3.5913026332855225,0.8403648138046265,-12.3748779296875,-0.6561279296875,11.3677978515625
0.6699999,-9.0859956741333,-3.4620156288146973,0.8643068075180054,-10.162353515625,6.0577392578125,17.27294921875
0.6899999,-9.038111686706543,-3.332728862762451,0.8379706144332886,-7.4005126953125,5.3253173828125,20.904541015625
0.7099999,-9.05247688293457,-3.220201253890991,0.7757213711738586,-5.615234375,2.0294189453125,22.2015380859375
0.7299998999999999,-9.138668060302734,-3.098097085952759,0.7110779285430908,-3.90625,2.2735595703125,23.284912109375
0.7499998999999999,-9.241618156433105,-2.9903578758239746,0.6584054827690125,-0.946044921875,4.0130615234375,22.9644775390625
0.7699999,-9.346963882446289,-2.8993782997131348,0.6440402865409851,1.52587890625,1.89208984375,21.7437744140625
0.7899999,-9.452308654785156,-2.8179752826690674,0.6488286852836609,0.701904296875,-0.4119873046875,22.0947265625
0.8099999,-9.521739959716797,-2.7461493015289307,0.6751648783683777,-1.861572265625,-0.8087158203125,23.9410400390625
0.8299999,-10.007762908935547,-2.719813108444214,0.7350199222564697,-4.058837890625,-0.6256103515625,20.904541015625
0.8499998999999999,-10.196905136108398,-2.7222073078155518,0.7613561153411865,-5.3558349609375,-1.2054443359375,5.5694580078125
0.8699998999999999,-10.572794914245605,-2.698265314102173,0.7661445140838623,-4.9896240234375,-1.46484375,12.8173828125
0.8899999,-10.515334129333496,-2.6839001178741455,0.730231523513794,-3.7384033203125,-2.532958984375,14.2669677734375
0.9099999,-10.237606048583984,-2.631227731704712,0.6847416758537292,-2.62451171875,-2.3956298828125,11.688232421875
0.9299999,-9.852140426635742,-2.6455929279327393,0.6775590777397156,-1.5716552734375,-2.044677734375,10.7421875
0.9499999,-9.531316757202148,-2.719813108444214,0.706289529800415,-3.0059814453125,-1.861572265625,13.4124755859375
0.9699998999999999,-9.41400146484375,-2.8131868839263916,0.790086567401886,-5.2490234375,-1.1749267578125,17.1661376953125
0.9899998999999999,-9.320627212524414,-2.892195701599121,0.8403648138046265,-5.4931640625,0.0457763671875,18.798828125
1.0099999,-9.459490776062012,-2.853888511657715,0.849941611289978,-2.3040771484375,1.007080078125,20.08056640625
1.0299999,-9.531316757202148,-2.80361008644104,0.8068459630012512,4.302978515625,-1.2054443359375,18.9971923828125
1.0499999,-9.636661529541016,-2.7006595134735107,0.7422025203704834,10.1470947265625,-1.3275146484375,20.0042724609375
1.0699999,-9.713275909423828,-2.5522189140319824,0.7086837291717529,13.00048828125,1.77001953125,22.369384765625
1.0899999,-9.72285270690918,-2.3582887649536133,0.7254431247711182,12.664794921875,2.13623046875,21.1944580078125
1.1099999,-9.739612579345703,-2.1068975925445557,0.7829039692878723,10.3912353515625,1.1444091796875,18.7835693359375
1.1299999,-9.732429504394531,-1.8579005002975464,0.8355764150619507,7.4615478515625,2.4871826171875,17.6239013671875
1.1499999,-9.749189376831055,-1.6304513216018677,0.8643068075180054,6.011962890625,3.173828125,16.815185546875
1.1699998999999999,-9.770736694335938,-1.4676456451416016,0.8547300100326538,6.0272216796875,1.800537109375,14.3890380859375
1.1899998999999999,-9.80904483795166,-1.3527239561080933,0.8236053586006165,7.4310302734375,1.708984375,11.29150390625
1.2099999,-9.84256362915039,-1.2665326595306396,0.8092401623725891,9.8876953125,3.4332275390625,8.636474609375
1.2299999,-9.864110946655273,-1.2090718746185303,0.7948749661445618,11.29150390625,4.39453125,5.462646484375
1.2499999,-9.876082420349121,-1.1779472827911377,0.8092401623725891,11.23046875,3.997802734375,1.8157958984375
1.2699999,-9.876082420349121,-1.1875240802764893,0.8307880163192749,9.9334716796875,4.2877197265625,-0.1678466796875
1.2899999,-9.888052940368652,-1.1971008777618408,0.8403648138046265,8.2244873046875,5.584716796875,-0.79345703125
1.3099999,-9.907206535339355,-1.2545616626739502,0.8667010068893433,7.3699951171875,5.7373046875,-2.532958984375
1.3299999,-9.909601211547852,-1.3407529592514038,0.8834604024887085,5.889892578125,5.462646484375,-5.035400390625
1.3499999,-9.9000244140625,-1.460463047027588,0.9074024558067322,2.9449462890625,6.6070556640625,-4.8980712890625
1.3699999,-9.8784761428833,-1.5873557329177856,0.9241618514060974,0.213623046875,7.965087890625,-2.9449462890625
1.3899999,-9.837775230407715,-1.7334020137786865,0.9265560507774353,-1.0528564453125,8.2550048828125,-2.288818359375
1.4099999,-9.792284965515137,-1.8531121015548706,0.8786720037460327,-0.3509521484375,8.880615234375,-2.1209716796875
1.4299998999999999,-9.775525093078613,-1.9249382019042969,0.7781155705451965,1.7547607421875,9.613037109375,-1.2969970703125
1.4499999,-9.78989028930664,-1.9608511924743652,0.6272808313369751,3.936767578125,8.4381103515625,-1.0528564453125
1.4699999,-9.818621635437012,-1.9584569931030273,0.4381389021873474,6.011962890625,6.317138671875,-1.7242431640625
1.4899999,-9.856928825378418,-1.9369091987609863,0.21787235140800476,8.941650390625,4.5013427734375,-1.8310546875
1.5099999,-9.919178009033203,-1.9321208000183105,0.033518824726343155,12.75634765625,1.1749267578125,-0.9918212890625
1.5299999,-9.943120002746582,-1.9488801956176758,-0.10773907601833344,14.46533203125,-3.1890869140625,0.762939453125
1.5499999,-9.962273597717285,-1.9632453918457031,-0.1173158809542656,14.8162841796875,-5.7525634765625,1.678466796875
1.5699999,-9.947908401489258,-2.0039467811584473,-0.047884032130241394,11.9171142578125,-7.904052734375,2.685546875
1.5899999,-9.916783332824707,-1.968033790588379,0.08140286058187485,5.8441162109375,-9.9945068359375,3.8299560546875
1.6099999,-9.876082420349121,-1.9321208000183105,0.2106897532939911,4.6234130859375,-12.5579833984375,4.852294921875
1.6299999,-9.8784761428833,-1.9536685943603516,0.28730419278144836,8.6669921875,-13.97705078125,5.0048828125
1.6499999,-9.861717224121094,-1.886630892753601,0.35913026332855225,14.129638671875,-15.167236328125,5.157470703125
1.6699999,-9.914389610290527,-1.8746598958969116,0.3711012601852417,20.56884765625,-16.1895751953125,4.852294921875
1.6899998999999999,-9.880870819091797,-1.7046716213226318,0.5219359993934631,24.90234375,-16.7388916015625,3.3111572265625
1.7099999,-9.890447616577148,-1.5298948287963867,0.6727706789970398,22.7203369140625,-16.0980224609375,1.4190673828125
1.7299999,-9.821015357971191,-1.3000515699386597,0.9983820915222168,16.05224609375,-15.8233642578125,-0.091552734375
1.7499999,-9.832986831665039,-1.1324573755264282,1.3000515699386597,8.819580078125,-13.4429931640625,-0.91552734375
1.7699999,-9.785101890563965,-1.0462661981582642,1.6112977266311646,3.509521484375,-11.3525390625,-2.25830078125
1.7899999,-9.785101890563965,-1.0319008827209473,1.7094600200653076,2.0294189453125,-8.5296630859375,-5.8135986328125
1.8099999,-9.734824180603027,-1.1516109704971313,1.702277421951294,4.852294921875,-7.62939453125,-7.843017578125
1.8299999,-9.730035781860352,-1.3024457693099976,1.5658079385757446,8.5296630859375,-8.2550048828125,-7.965087890625
1.8499999,-9.706093788146973,-1.4987702369689941,1.4652514457702637,9.6893310546875,-7.2784423828125,-6.7291259765625
1.8699999,-9.746794700622559,-1.7046716213226318,1.4293384552001953,8.72802734375,-4.5166015625,-5.9356689453125
1.8899999,-9.727641105651855,-1.8698714971542358,1.3958195447921753,10.1776123046875,-4.57763671875,-4.180908203125
1.9099999,-9.72285270690918,-2.0039467811584473,1.4508862495422363,13.0767822265625,-4.94384765625,-1.6021728515625
1.9299998999999999,-9.636661529541016,-2.094926595687866,1.5538369417190552,9.5367431640625,-3.72314453125,0.7171630859375
1.9499999,-9.622296333312988,-1.941697597503662,1.7525556087493896,-1.953125,-0.0762939453125,1.953125
1.9699999,-9.5624418258667,-1.86508309841156,1.9177556037902832,-10.6048583984375,3.1585693359375,2.1514892578125
1.9899999,-9.617507934570312,-1.6543933153152466,1.9776105880737305,-9.9639892578125,3.5247802734375,0.7171630859375
2.0099999,-9.660603523254395,-1.6376339197158813,1.8052281141281128,-4.425048828125,3.509521484375,-0.244140625
2.0299999,-9.758766174316406,-1.6615760326385498,1.4772224426269531,1.495361328125,2.25830078125,0.6103515625
2.0499999,-9.835380554199219,-1.766920804977417,1.0845733880996704,7.781982421875,-1.1444091796875,1.617431640625
2.0699999,-9.897629737854004,-1.8746598958969116,0.730231523513794,15.1214599609375,-4.21142578125,1.15966796875
2.0899999,-9.897629737854004,-1.8770540952682495,0.6248866319656372,18.49365234375,-8.026123046875,1.77001953125
2.1099999,-9.888052940368652,-1.8339585065841675,0.7422025203704834,12.359619140625,-8.392333984375,2.8533935546875
2.1299999,-9.799467086791992,-1.6687586307525635,1.113303780555725,2.655029296875,-7.38525390625,2.593994140625
2.1499999,-9.746794700622559,-1.525106430053711,1.5179238319396973,-4.0435791015625,-5.06591796875,0.8697509765625
2.1699999,-9.677363395690918,-1.3862427473068237,1.8962076902389526,-7.14111328125,-2.7008056640625,-0.2593994140625
2.1899999,-9.66539192199707,-1.3670891523361206,2.03507137298584,-7.7667236328125,-1.0833740234375,0.6561279296875
2.2099999,-9.684545516967773,-1.3407529592514038,2.0925323963165283,-7.415771484375,-0.5035400390625,0.06103515625
2.2299999,-9.715670585632324,-1.4077905416488647,2.0374655723571777,-7.5531005859375,0.5035400390625,-0.9613037109375
2.2499999,-9.718064308166504,-1.4676456451416016,1.900996208190918,-9.1094970703125,0.5035400390625,-1.15966796875
2.2699999,-9.744400978088379,-1.5298948287963867,1.7381904125213623,-7.4615478515625,0.3509521484375,-1.617431640625
2.2899999,-9.75637149810791,-1.5897499322891235,1.5442601442337036,-2.044677734375,-0.1678466796875,-3.1585693359375
2.3099999,-9.770736694335938,-1.6352397203445435,1.3623007535934448,3.47900390625,-0.06103515625,-4.486083984375
2.3299999,-9.794678688049316,-1.6759412288665771,1.2856862545013428,5.7525634765625,-0.42724609375,-3.2806396484375
2.3499999,-9.775525093078613,-1.7118542194366455,1.3215993642807007,3.5400390625,-2.2125244140625,-1.5716552734375
2.3699999,-9.744400978088379,-1.742978811264038,1.460463047027588,-1.220703125,-0.1983642578125,-1.3275146484375
2.3899999,-9.718064308166504,-1.742978811264038,1.6759412288665771,-2.99072265625,1.068115234375,-1.5716552734375
2.4099999,-9.68694019317627,-1.766920804977417,1.764526605606079,-2.4871826171875,1.64794921875,-1.678466796875
2.4299999,-9.655815124511719,-1.8195933103561401,1.7741034030914307,-1.52587890625,0.9002685546875,-0.5950927734375
2.4499999,-9.674968719482422,-1.8363527059555054,1.6855180263519287,0.18310546875,1.6021728515625,-0.457763671875
2.4699999,-9.677363395690918,-1.8363527059555054,1.525106430053711,2.9296875,2.7008056640625,-1.312255859375
2.4899999,-9.739612579345703,-1.778891921043396,1.3862427473068237,5.5999755859375,0.6103515625,-0.885009765625
2.5099999,-9.780313491821289,-1.6543933153152466,1.3096283674240112,3.173828125,-1.9073486328125,-0.885009765625
2.5299999,-9.816226959228516,-1.5538369417190552,1.3479355573654175,-3.021240234375,-1.6937255859375,-0.5035400390625
2.5499999,-9.78989028930664,-1.522712230682373,1.436521053314209,-6.683349609375,-1.6937255859375,-1.4190673828125
2.5699999,-9.75637149810791,-1.5466543436050415,1.525106430053711,-4.0435791015625,-2.105712890625,-2.227783203125
2.5899999,-9.682151794433594,-1.742978811264038,1.5658079385757446,1.9378662109375,-3.082275390625,-2.2430419921875
2.6099999,-9.658209800720215,-1.9105730056762695,1.4987702369689941,8.0108642578125,-1.89208984375,-0.6256103515625
2.6299999,-9.677363395690918,-2.070984363555908,1.4915876388549805,13.092041015625,-0.946044921875,1.03759765625
2.6499999,-9.684545516967773,-2.078166961669922,1.5059528350830078,13.5650634765625,-2.8228759765625,2.4261474609375
2.6699999,-9.710882186889648,-1.9536685943603516,1.623268723487854,6.2713623046875,-1.861572265625,3.631591796875
2.6899999,-9.679757118225098,-1.766920804977417,1.766920804977417,-3.11279296875,-1.2359619140625,3.997802734375
2.7099999,-9.667786598205566,-1.5897499322891235,1.900996208190918,-8.2550048828125,0.4730224609375,1.8463134765625
2.7299999,-9.651026725769043,-1.5131354331970215,1.9584569931030273,-7.5836181640625,1.0223388671875,0.5340576171875
2.7499999,-9.66299819946289,-1.4867992401123047,1.9823989868164062,-4.1656494140625,2.4871826171875,0.0762939453125
2.7699999,-9.696516990661621,-1.5107412338256836,1.9153614044189453,-4.1046142578125,5.0201416015625,0.06103515625
2.7899999,-9.72285270690918,-1.525106430053711,1.8507179021835327,-5.0048828125,5.7830810546875,0.274658203125
2.8099999,-9.710882186889648,-1.522712230682373,1.766920804977417,-3.021240234375,4.608154296875,0.091552734375
2.8299999,-9.720458984375,-1.53707754611969,1.6735470294952393,-2.7313232421875,4.9285888671875,0.7781982421875
2.8499999,-9.684545516967773,-1.525106430053711,1.6112977266311646,-5.4473876953125,4.638671875,-0.2899169921875
2.8699999,-9.706093788146973,-1.623268723487854,1.5131354331970215,-5.859375,5.4168701171875,-1.9989013671875
2.8899999,-9.732429504394531,-1.6759412288665771,1.4484920501708984,-0.518798828125,4.4403076171875,-2.716064453125
2.9099999,-9.75637149810791,-1.802833914756775,1.359906554222107,4.7454833984375,4.7760009765625,-1.3580322265625
2.9299999,-9.77791976928711,-1.8555063009262085,1.3239935636520386,5.4779052734375,5.79833984375,0.06103515625
2.9499999,-9.765948295593262,-1.8387469053268433,1.3670891523361206,4.6234130859375,4.730224609375,0.885009765625
2.9699999,-9.725247383117676,-1.745373010635376,1.4317326545715332,1.708984375,4.5623779296875,1.4801025390625
2.9899999,-9.730035781860352,-1.6112977266311646,1.5921441316604614,-4.1046142578125,4.058837890625,1.77001953125
3.0099999,-9.6989107131958,-1.5514427423477173,1.6759412288665771,-10.101318359375,4.4708251953125,0.1373291015625
3.0299999,-9.734824180603027,-1.5849615335464478,1.6376339197158813,-8.8653564453125,4.6539306640625,-0.5035400390625
3.0499999,-9.746794700622559,-1.659181833267212,1.5514427423477173,-0.640869140625,4.180908203125,0.1068115234375
3.0699999,-9.75397777557373,-1.8291701078414917,1.290474772453308,4.7607421875,3.60107421875,1.434326171875
3.0899999,-9.780313491821289,-1.8914192914962769,1.1204863786697388,4.486083984375,2.960205078125,2.655029296875
3.1099999,-9.768342971801758,-1.8770540952682495,1.0582371950149536,4.8370361328125,0.9765625,3.265380859375
3.1299999,-9.787496566772461,-1.8411411046981812,1.0462661981582642,4.2266845703125,0.6103515625,3.84521484375
3.1499999,-9.773131370544434,-1.656787633895874,1.2042834758758545,-0.30517578125,-1.9989013671875,4.1046142578125
3.1699999,-9.78989028930664,-1.558625340461731,1.2665326595306396,-5.950927734375,-1.2969970703125,2.2125244140625
3.1899999,-9.768342971801758,-1.479616641998291,1.4173674583435059,-4.1961669921875,-0.640869140625,1.0986328125
3.2099999,-9.78989028930664,-1.5083470344543457,1.4652514457702637,0.4119873046875,0.48828125,1.007080078125
3.2299999,-9.775525093078613,-1.5059528350830078,1.5849615335464478,-1.495361328125,1.9683837890625,2.0599365234375
3.2499999,-9.765948295593262,-1.53707754611969,1.699883222579956,-7.598876953125,4.2572021484375,2.777099609375
3.2699999,-9.768342971801758,-1.4389152526855469,1.802833914756775,-7.0953369140625,6.3629150390625,1.7852783203125
3.2899999,-9.744400978088379,-1.3215993642807007,1.922544002532959,-2.74658203125,8.9874267578125,-0.0152587890625
3.3099999,-9.737217903137207,-1.2952631711959839,1.8722656965255737,-4.7149658203125,9.063720703125,-2.1514892578125
3.3299999000000002,-9.713275909423828,-1.2880805730819702,1.821987509727478,-9.979248046875,10.223388671875,-3.692626953125
3.3499999,-9.75637149810791,-1.3862427473068237,1.6950948238372803,-12.420654296875,10.6658935546875,-2.7618408203125
3.3699999,-9.744400978088379,-1.5442601442337036,1.4963760375976562,-12.0086669921875,12.5579833984375,-1.5411376953125
3.3899999,-9.792284965515137,-1.6735470294952393,1.290474772453308,-9.033203125,13.0157470703125,-1.2664794921875
3.4099999,-9.816226959228516,-1.8531121015548706,0.9265560507774353,-0.1983642578125,9.2926025390625,-0.6256103515625
3.4299999,-9.823410034179688,-1.8938134908676147,0.5746083855628967,8.575439453125,4.94384765625,0.8392333984375
3.4499999,-9.871294021606445,-1.8842366933822632,0.3016694188117981,11.71875,0.30517578125,1.28173828125
3.4699999,-9.880870819091797,-1.843535304069519,0.090979665517807,12.3443603515625,-4.6844482421875,-0.5340576171875
3.4899999,-9.895236015319824,-1.7741034030914307,0.21787235140800476,11.138916015625,-7.8582763671875,-0.5340576171875
3.5099999,-9.9000244140625,-1.7046716213226318,0.4141969084739685,6.622314453125,-7.293701171875,1.5716552734375
3.5299999,-9.830592155456543,-1.659181833267212,0.8259995579719543,0.335693359375,-5.7525634765625,2.9449462890625
3.5499999,-9.818621635437012,-1.5610195398330688,1.2330138683319092,-7.5225830078125,-3.7994384765625,1.9073486328125
3.5699999,-9.782708168029785,-1.556231141090393,1.5083470344543457,-8.1787109375,-2.3345947265625,2.0904541015625
3.5899999,-9.773131370544434,-1.525106430053711,1.7070658206939697,-3.47900390625,-1.2969970703125,4.39453125
3.6099999,-9.746794700622559,-1.5849615335464478,1.723825216293335,-1.739501953125,-1.4495849609375,4.5166015625
3.6299999,-9.768342971801758,-1.5873557329177856,1.6735470294952393,0.2899169921875,-0.1068115234375,2.5634765625
3.6499999,-9.737217903137207,-1.5442601442337036,1.623268723487854,1.068115234375,2.288818359375,2.8228759765625
3.6699999,-9.730035781860352,-1.4844050407409668,1.580173134803772,-6.7596435546875,5.8441162109375,3.8909912109375
3.6899999,-9.761159896850586,-1.3886369466781616,1.4987702369689941,-14.617919921875,6.317138671875,2.3193359375
3.7099999,-9.80904483795166,-1.3407529592514038,1.359906554222107,-10.1470947265625,5.9356689453125,0.9613037109375
3.7299999,-9.849745750427246,-1.3215993642807007,1.1444283723831177,-1.0833740234375,2.1820068359375,-0.030517578125
3.7499999,-9.897629737854004,-1.4173674583435059,0.8571242094039917,5.67626953125,-0.5645751953125,-1.9378662109375
3.7699999,-9.931148529052734,-1.45806884765625,0.7086837291717529,10.589599609375,-2.2430419921875,-2.532958984375
3.7899999,-9.897629737854004,-1.5418659448623657,0.6943184733390808,10.7879638671875,-0.6103515625,-2.349853515625
3.8099999,-9.849745750427246,-1.53707754611969,0.9074024558067322,3.692626953125,0.396728515625,-1.2969970703125
3.8299999000000002,-9.794678688049316,-1.4891934394836426,1.2210428714752197,-5.2032470703125,1.434326171875,-0.335693359375
3.8499999,-9.749189376831055,-1.501164436340332,1.4389152526855469,-5.523681640625,3.5858154296875,1.0223388671875
3.8699999,-9.68694019317627,-1.4867992401123047,1.5610195398330688,-0.3509521484375,2.5787353515625,-0.274658203125
3.8899999,-9.715670585632324,-1.577778935432434,1.4915876388549805,1.7852783203125,1.800537109375,-1.5869140625
3.9099999,-9.730035781860352,-1.4987702369689941,1.479616641998291,-0.244140625,2.7923583984375,-0.7781982421875
3.9299999,-9.75637149810791,-1.4700398445129395,1.4269442558288574,-8.9111328125,6.195068359375,-1.373291015625
3.9499999,-9.792284965515137,-1.338358759880066,1.460463047027588,-16.66259765625,7.049560546875,-2.5634765625
3.9699999,-9.852140426635742,-1.292868971824646,1.335964560508728,-17.4407958984375,6.9427490234375,-2.1209716796875
3.9899999,-9.840168952941895,-1.41257905960083,1.094150185585022,-12.3748779296875,3.6163330078125,-0.1220703125
4.0099999,-9.885659217834473,-1.5945383310317993,0.7589619159698486,-3.11279296875,-0.274658203125,-1.4801025390625
4.029999900000001,-9.885659217834473,-1.764526605606079,0.5195417404174805,5.2337646484375,-2.2125244140625,-1.52587890625
4.0499999,-9.86889934539795,-1.8579005002975464,0.4908113479614258,5.615234375,-1.64794921875,-0.518798828125
4.069999900000001,-9.859322547912598,-1.8315643072128296,0.5506663918495178,1.6021728515625,-1.77001953125,-0.1220703125
4.0899999000000005,-9.873687744140625,-1.7597382068634033,0.706289529800415,0.732421875,-4.1961669921875,0.4119873046875
4.1099999,-9.90241813659668,-1.7357962131500244,0.7757213711738586,6.256103515625,-4.33349609375,0.9765625
4.1299999000000005,-9.9000244140625,-1.678335428237915,0.8259995579719543,14.678955078125,-7.7362060546875,1.678466796875
4.1499999,-9.849745750427246,-1.6376339197158813,1.0127472877502441,13.6871337890625,-9.4451904296875,-0.7476806640625
4.1699999000000005,-9.75637149810791,-1.5179238319396973,1.216254472732544,11.3372802734375,-6.5765380859375,0.3662109375
4.1899999,-9.72285270690918,-1.4437036514282227,1.5610195398330688,-0.213623046875,-4.730224609375,3.0059814453125
4.209999900000001,-9.684545516967773,-1.3215993642807007,1.7812861204147339,-16.2506103515625,-1.953125,2.38037109375
4.2299999,-9.715670585632324,-1.3646949529647827,1.8531121015548706,-12.9852294921875,0.6256103515625,1.6326904296875
4.249999900000001,-9.701305389404297,-1.357512354850769,1.745373010635376,1.2054443359375,-0.8544921875,0.457763671875
4.2699999,-9.758766174316406,-1.479616641998291,1.501164436340332,10.3302001953125,-1.7852783203125,-1.0986328125
4.289999900000001,-9.816226959228516,-1.5083470344543457,1.3503297567367554,12.0391845703125,-0.244140625,-1.3427734375
4.3099999,-9.782708168029785,-1.4077905416488647,1.3120225667953491,2.7923583984375,2.593994140625,-2.2430419921875
4.329999900000001,-9.806650161743164,-1.2665326595306396,1.4532804489135742,-9.3994140625,3.0517578125,-2.2735595703125
4.3499999,-9.813833236694336,-1.1516109704971313,1.5298948287963867,-16.448974609375,4.5623779296875,-3.7078857421875
4.369999900000001,-9.804255485534668,-1.1444283723831177,1.5442601442337036,-11.7340087890625,4.45556640625,-4.638671875
4.3899999,-9.799467086791992,-1.2832920551300049,1.4245500564575195,-1.6937255859375,1.7852783203125,-5.92041015625
4.409999900000001,-9.832986831665039,-1.4652514457702637,1.3479355573654175,2.960205078125,1.708984375,-4.5166015625
4.4299999,-9.792284965515137,-1.6855180263519287,1.2066776752471924,-0.42724609375,4.302978515625,-3.6163330078125
4.449999900000001,-9.765948295593262,-1.7717092037200928,1.2449848651885986,-3.662109375,5.5694580078125,-5.18798828125
4.4699999,-9.746794700622559,-1.821987509727478,1.2761094570159912,-4.1046142578125,2.9754638671875,-2.74658203125
4.489999900000001,-9.787496566772461,-1.8171991109848022,1.290474772453308,-8.4228515625,5.035400390625,1.4190673828125
4.5099999,-9.737217903137207,-1.7812861204147339,1.2641384601593018,-6.8359375,3.662109375,1.5869140625
4.529999900000001,-9.744400978088379,-1.7980455160140991,1.1779472827911377,1.0986328125,0.518798828125,-1.190185546875
4.5499999,-9.80904483795166,-1.7860745191574097,1.0749965906143188,2.044677734375,-1.2664794921875,-0.06103515625
4.569999900000001,-9.732429504394531,-1.745373010635376,1.0295066833496094,-5.950927734375,0.3662109375,1.6632080078125
4.5899999000000005,-9.835380554199219,-1.7070658206939697,0.9983820915222168,-12.6800537109375,0.3662109375,0.6256103515625
4.609999900000001,-9.794678688049316,-1.7046716213226318,0.9552865028381348,-10.284423828125,-2.8839111328125,0.6256103515625
4.6299999000000005,-9.835380554199219,-1.7932571172714233,0.7805097699165344,-0.67138671875,-3.0975341796875,3.35693359375
4.6499999,-9.854534149169922,-1.889025092124939,0.6823474764823914,12.2528076171875,-6.77490234375,4.2877197265625
4.6699999000000005,-9.847352027893066,-1.9847931861877441,0.6153098344802856,19.256591796875,-10.1165771484375,3.204345703125
4.6899999,-9.84256362915039,-1.9321208000183105,0.7541735172271729,21.5911865234375,-8.331298828125,2.50244140625
4.709999900000001,-9.768342971801758,-1.656787633895874,1.1875240802764893,19.4091796875,-4.8675537109375,1.89208984375
4.7299999,-9.68694019317627,-1.314416766166687,1.7693150043487549,-0.1678466796875,-2.86865234375,2.838134765625
4.749999900000001,-9.643844604492188,-0.9241618514060974,2.315192937850952,-31.1431884765625,2.7008056640625,1.434326171875
4.7699999,-9.639056205749512,-0.7086837291717529,2.669534921646118,-42.54150390625,9.3994140625,-1.617431640625
4.789999900000001,-9.658209800720215,-0.790086567401886,2.542642116546631,-31.2347412109375,9.552001953125,-5.5084228515625
4.8099999,-9.72285270690918,-1.0606313943862915,2.1356279850006104,-15.3961181640625,6.8206787109375,-5.7830810546875
4.829999900000001,-9.782708168029785,-1.3958195447921753,1.644816517829895,-8.9874267578125,7.843017578125,-2.6397705078125
4.8499999,-9.775525093078613,-1.7597382068634033,1.0342950820922852,-10.0860595703125,10.9100341796875,-4.150390625
4.869999900000001,-9.787496566772461,-1.9847931861877441,0.730231523513794,-0.1068115234375,7.6141357421875,-4.608154296875
4.8899999,-9.885659217834473,-2.1380221843719482,0.31364041566848755,13.12255859375,3.7078857421875,-1.373291015625
4.909999900000001,-9.84495735168457,-2.188300371170044,0.16519992053508759,20.20263671875,-0.3204345703125,0.9002685546875
4.9299999,-9.911994934082031,-2.049436569213867,0.16998831927776337,22.8271484375,-4.2724609375,-1.7852783203125
4.949999900000001,-9.895236015319824,-1.8076223134994507,0.4572925269603729,17.7154541015625,-6.4544677734375,-4.0435791015625
4.9699999,-9.864110946655273,-1.5729905366897583,0.828393816947937,6.4544677734375,-1.9683837890625,-3.082275390625
4.989999900000001,-9.801861763000488,-1.403002142906189,1.3335703611373901,-5.9814453125,0.1983642578125,-3.692626953125
5.0099999,-9.732429504394531,-1.3838485479354858,1.5873557329177856,-14.0533447265625,-1.3885498046875,-2.50244140625
5.029999900000001,-9.706093788146973,-1.4963760375976562,1.7262194156646729,-15.9759521484375,-0.6561279296875,2.4871826171875
5.0499999,-9.660603523254395,-1.7166426181793213,1.5921441316604614,-9.2010498046875,-0.6561279296875,2.3193359375
5.069999900000001,-9.691728591918945,-1.8914192914962769,1.3958195447921753,1.129150390625,-2.3040771484375,0.8087158203125
5.0899999000000005,-9.792284965515137,-1.9847931861877441,1.2042834758758545,3.5858154296875,-3.265380859375,2.13623046875
5.109999900000001,-9.780313491821289,-1.920149803161621,1.1683704853057861,0.4119873046875,0.701904296875,3.570556640625
5.1299999000000005,-9.861717224121094,-1.7286136150360107,1.2306196689605713,-5.5084228515625,1.861572265625,1.6326904296875
5.1499999,-9.823410034179688,-1.525106430053711,1.290474772453308,-10.9405517578125,0.732421875,-0.0762939453125
5.1699999000000005,-9.861717224121094,-1.4053963422775269,1.3215993642807007,-10.43701171875,1.922607421875,1.739501953125
5.1899999,-9.797073364257812,-1.436521053314209,1.0845733880996704,2.4261474609375,-0.9002685546875,-0.518798828125
5.209999900000001,-9.799467086791992,-1.577778935432434,0.8930372595787048,15.7012939453125,-3.509521484375,-3.7689208984375
5.2299999,-9.835380554199219,-1.7693150043487549,0.7134721279144287,21.087646484375,-4.7760009765625,-3.6468505859375
5.249999900000001,-9.813833236694336,-1.843535304069519,0.7493851184844971,22.0947265625,-2.38037109375,-1.4190673828125
5.2699999,-9.835380554199219,-1.8148049116134644,1.0127472877502441,16.2353515625,-3.7994384765625,0.7476806640625
5.289999900000001,-9.737217903137207,-1.6400281190872192,1.3623007535934448,1.678466796875,-2.9296875,1.1138916015625
5.3099999,-9.701305389404297,-1.5203180313110352,1.6711528301239014,-9.6282958984375,1.0528564453125,1.7547607421875
5.329999900000001,-9.636661529541016,-1.4221558570861816,1.8626888990402222,-8.85009765625,0.9613037109375,-0.9918212890625
5.3499999,-9.619902610778809,-1.4221558570861816,1.821987509727478,-7.7056884765625,0.152587890625,-2.227783203125
5.369999900000001,-9.706093788146973,-1.4844050407409668,1.7764976024627686,-7.965087890625,1.7547607421875,-0.18310546875
5.3899999,-9.737217903137207,-1.5490485429763794,1.5969325304031372,-12.847900390625,4.8065185546875,-1.2664794921875
5.409999900000001,-9.832986831665039,-1.6304513216018677,1.5059528350830078,-19.95849609375,4.4097900390625,-1.434326171875
5.4299999,-9.864110946655273,-1.702277421951294,1.2665326595306396,-17.1661376953125,2.38037109375,-0.2899169921875
5.449999900000001,-9.799467086791992,-1.86508309841156,0.9433154463768005,-1.4190673828125,-0.579833984375,3.3721923828125
5.4699999,-9.775525093078613,-1.9776105880737305,0.6368576288223267,17.76123046875,-4.2572021484375,0.030517578125
5.489999900000001,-9.773131370544434,-2.0374655723571777,0.5530605912208557,22.186279296875,-7.01904296875,0.7171630859375
5.5099999,-9.81143856048584,-1.9704279899597168,0.7445967197418213,9.185791015625,-4.2572021484375,1.64794921875
5.529999900000001,-9.828198432922363,-1.723825216293335,1.2018892765045166,-3.265380859375,-0.5340576171875,1.40380859375
5.5499999,-9.832986831665039,-1.4867992401123047,1.6711528301239014,-12.451171875,1.2054443359375,-0.6103515625
5.569999900000001,-9.727641105651855,-1.2641384601593018,1.920149803161621,-19.2718505859375,3.4027099609375,-1.068115234375
5.5899999000000005,-9.706093788146973,-1.3455413579940796,1.802833914756775,-13.7939453125,2.3651123046875,1.0986328125
5.609999900000001,-9.684545516967773,-1.4772224426269531,1.5466543436050415,2.288818359375,-0.06103515625,-2.3193359375
5.6299999000000005,-9.749189376831055,-1.6927006244659424,1.2234370708465576,11.4898681640625,-1.9683837890625,-1.28173828125
5.6499999,-9.823410034179688,-1.802833914756775,1.0630255937576294,5.859375,-0.6103515625,-0.2288818359375
5.6699999000000005,-9.823410034179688,-1.7717092037200928,1.1420341730117798,-6.34765625,1.6326904296875,0.4730224609375
5.6899999,-9.823410034179688,-1.6950948238372803,1.2449848651885986,-12.0849609375,1.8157958984375,0.0457763671875
5.709999900000001,-9.813833236694336,-1.6400281190872192,1.2856862545013428,-6.65283203125,2.2430419921875,0.701904296875
5.7299999,-9.751583099365234,-1.6687586307525635,1.1540051698684692,4.852294921875,-1.40380859375,1.495361328125
5.749999900000001,-9.75637149810791,-1.6519991159439087,1.0462661981582642,14.1143798828125,-3.6773681640625,-1.6632080078125
5.7699999,-9.744400978088379,-1.644816517829895,0.9959878921508789,11.2762451171875,-3.7078857421875,-1.220703125
5.789999900000001,-9.758766174316406,-1.4915876388549805,1.1851298809051514,-1.983642578125,-1.0223388671875,-3.7841796875
5.8099999,-9.744400978088379,-1.3527239561080933,1.4987702369689941,-15.9759521484375,0.4730224609375,-3.8604736328125
5.829999900000001,-9.744400978088379,-1.2952631711959839,1.742978811264038,-25.2838134765625,1.52587890625,-3.5858154296875
5.8499999,-9.75637149810791,-1.359906554222107,1.7812861204147339,-20.6298828125,3.387451171875,-2.13623046875
5.869999900000001,-9.780313491821289,-1.6424223184585571,1.50355863571167,-3.021240234375,-0.152587890625,-3.204345703125
5.8899999,-9.797073364257812,-1.886630892753601,1.2210428714752197,13.00048828125,-2.7313232421875,-5.1727294921875
5.909999900000001,-9.86889934539795,-2.0398597717285156,0.9911994934082031,12.6800537109375,-3.5400390625,-1.1138916015625
5.9299999,-9.794678688049316,-2.0159177780151367,1.0534487962722778,0.9002685546875,-0.0457763671875,-1.7547607421875
5.949999900000001,-9.773131370544434,-1.9033904075622559,1.2330138683319092,-3.387451171875,0.2593994140625,-2.593994140625
5.9699999,-9.725247383117676,-1.8100165128707886,1.37906014919281,-4.2724609375,-0.7781982421875,-2.0294189453125
5.989999900000001,-9.679757118225098,-1.7980455160140991,1.3623007535934448,-1.89208984375,0.1220703125,1.678466796875
6.0099999,-9.713275909423828,-1.8914192914962769,1.2114660739898682,8.23974609375,-3.631591796875,0.9765625
6.029999900000001,-9.6989107131958,-1.9129672050476074,1.158793568611145,18.524169921875,-4.5318603515625,-1.4495849609375
6.0499999,-9.773131370544434,-1.8579005002975464,1.2258312702178955,14.129638671875,-3.0364990234375,-0.7781982421875
6.069999900000001,-9.770736694335938,-1.6879122257232666,1.5059528350830078,-1.8463134765625,1.3275146484375,-0.9765625
6.0899999000000005,-9.81143856048584,-1.4700398445129395,1.8602946996688843,-15.2740478515625,2.9754638671875,-0.8544921875
6.109999900000001,-9.751583099365234,-1.3407529592514038,2.0183119773864746,-24.169921875,5.0201416015625,-2.227783203125
6.1299999000000005,-9.706093788146973,-1.3934253454208374,1.9560627937316895,-20.93505859375,5.9967041015625,0.1068115234375
6.149999900000001,-9.68694019317627,-1.680729627609253,1.558625340461731,-5.950927734375,1.2054443359375,0.3204345703125
6.1699999000000005,-9.68933391571045,-1.9536685943603516,1.2234370708465576,7.9498291015625,0.2899169921875,0.7476806640625
6.1899999,-9.75397777557373,-2.073378562927246,1.0007762908935547,6.4239501953125,-0.4730224609375,1.495361328125
6.209999900000001,-9.768342971801758,-2.0398597717285156,1.0869675874710083,-7.5836181640625,1.0528564453125,1.15966796875
6.2299999,-9.792284965515137,-1.8267759084701538,1.2856862545013428,-18.4478759765625,2.105712890625,1.2664794921875
6.249999900000001,-9.775525093078613,-1.656787633895874,1.4101848602294922,-19.287109375,3.326416015625,1.068115234375
6.2699999,-9.749189376831055,-1.6328455209732056,1.290474772453308,-6.6680908203125,2.1514892578125,2.349853515625
6.289999900000001,-9.75637149810791,-1.699883222579956,1.072602391242981,9.8114013671875,-3.5400390625,-1.1749267578125
6.3099999,-9.837775230407715,-1.8076223134994507,0.993593692779541,16.66259765625,-4.6234130859375,-1.5106201171875
6.329999900000001,-9.828198432922363,-1.7405846118927002,1.1037269830703735,5.1727294921875,-1.4495849609375,-2.3193359375
6.3499999,-9.81143856048584,-1.678335428237915,1.4077905416488647,-10.6964111328125,2.0751953125,-0.1983642578125
6.369999900000001,-9.68933391571045,-1.5658079385757446,1.7525556087493896,-20.0347900390625,2.197265625,-0.518798828125
6.3899999,-9.59835433959961,-1.5298948287963867,1.900996208190918,-23.98681640625,3.936767578125,0.7476806640625
6.409999900000001,-9.619902610778809,-1.7597382068634033,1.6855180263519287,-18.3258056640625,4.2724609375,2.3193359375
6.4299999,-9.677363395690918,-1.9249382019042969,1.3910311460494995,-1.1749267578125,-0.3509521484375,-0.732421875
6.449999900000001,-9.856928825378418,-2.118868589401245,1.048660397529602,13.153076171875,-2.0904541015625,-0.335693359375
6.4699999,-9.854534149169922,-2.0877439975738525,0.828393816947937,10.5133056640625,-0.274658203125,-0.5340576171875
6.489999900000001,-9.828198432922363,-1.889025092124939,0.9313444495201111,5.4473876953125,0.1220703125,1.2969970703125
6.5099999,-9.739612579345703,-1.6879122257232666,1.1228805780410767,-2.960205078125,-1.434326171875,-0.335693359375
6.529999900000001,-9.696516990661621,-1.5059528350830078,1.436521053314209,-14.434814453125,0.8697509765625,0.152587890625
6.5499999,-9.696516990661621,-1.5418659448623657,1.5538369417190552,-17.791748046875,1.6937255859375,1.9989013671875
6.569999900000001,-9.751583099365234,-1.699883222579956,1.5322890281677246,-9.307861328125,0.18310546875,-1.5716552734375
6.5899999000000005,-9.835380554199219,-1.8626888990402222,1.436521053314209,5.1116943359375,-0.518798828125,-2.2430419921875
6.609999900000001,-9.84256362915039,-1.9632453918457031,1.1803414821624756,6.3018798828125,1.9378662109375,-2.8839111328125
6.6299999000000005,-9.818621635437012,-1.9081788063049316,1.213860273361206,7.0037841796875,0.67138671875,0.48828125
6.649999900000001,-9.737217903137207,-1.7573440074920654,1.2186486721038818,3.3111572265625,-1.312255859375,0.0457763671875
6.6699999000000005,-9.720458984375,-1.6136919260025024,1.455674648284912,-8.697509765625,2.7618408203125,-0.0762939453125
6.6899999,-9.682151794433594,-1.501164436340332,1.5658079385757446,-17.4713134765625,4.0435791015625,-0.1373291015625
6.709999900000001,-9.703699111938477,-1.558625340461731,1.5442601442337036,-17.63916015625,2.62451171875,-3.2501220703125
6.7299999,-9.75397777557373,-1.625662922859192,1.5322890281677246,-6.805419921875,2.50244140625,-3.936767578125
6.749999900000001,-9.751583099365234,-1.8555063009262085,1.2282254695892334,-1.2054443359375,4.9896240234375,-4.2266845703125
6.7699999,-9.751583099365234,-2.0183119773864746,1.048660397529602,5.1422119140625,3.570556640625,-1.89208984375
6.789999900000001,-9.703699111938477,-2.118868589401245,0.8738836050033569,10.4217529296875,-1.0223388671875,-0.18310546875
6.8099999,-9.730035781860352,-2.1715409755706787,0.8451532125473022,9.9334716796875,-0.640869140625,0.3204345703125
6.829999900000001,-9.746794700622559,-2.0901381969451904,0.9816226959228516,9.27734375,-0.1678466796875,1.312255859375
6.8499999,-9.787496566772461,-2.03507137298584,1.1348515748977661,4.9591064453125,-1.129150390625,1.373291015625
6.869999900000001,-9.794678688049316,-1.889025092124939,1.335964560508728,3.2806396484375,-2.349853515625,-0.4119873046875
6.8899999,-9.792284965515137,-1.7932571172714233,1.4317326545715332,0.1983642578125,2.13623046875,-0.4119873046875
6.909999900000001,-9.737217903137207,-1.680729627609253,1.4628572463989258,-3.7994384765625,1.5716552734375,1.0223388671875
6.9299999,-9.684545516967773,-1.482010841369629,1.6974890232086182,-11.16943359375,-1.1749267578125,1.5716552734375
6.949999900000001,-9.737217903137207,-1.4939818382263184,1.6711528301239014,-28.9459228515625,3.7841796875,2.3040771484375
6.9699999,-9.66299819946289,-1.455674648284912,1.7286136150360107,-28.0914306640625,5.8441162109375,-0.335693359375
6.989999900000001,-9.725247383117676,-1.7142484188079834,1.4915876388549805,-13.48876953125,3.7078857421875,-3.0364990234375
7.0099999,-9.758766174316406,-1.9057846069335938,1.2210428714752197,3.448486328125,1.0223388671875,-2.8533935546875
7.029999900000001,-9.696516990661621,-1.7549498081207275,1.3934253454208374,2.2735595703125,3.1280517578125,2.2125244140625
7.0499999,-9.737217903137207,-1.3527239561080933,1.9608511924743652,-51.0711669921875,10.3607177734375,2.593994140625
7.069999900000001,-9.567230224609375,-0.19393034279346466,3.3446998596191406,-127.471923828125,16.357421875,-1.068115234375
7.0899999000000005,-8.904036521911621,0.4620809257030487,3.6535518169403076,-223.8311767578125,41.32080078125,0.9613037109375
7.109999900000001,-6.811503887176514,0.3926490843296051,2.760514497756958,-195.3125,82.9315185546875,23.7274169921875
7.1299999000000005,-4.73573112487793,-0.42856210470199585,0.667982280254364,-17.1966552734375,57.830810546875,65.1702880859375
7.149999900000001,-2.5665841102600098,-2.123656988143921,-1.6208745241165161,104.8736572265625,-16.2811279296875,50.0030517578125
7.1699999000000005,-3.3901896476745605,-3.5960910320281982,-2.389413356781006,110.9619140625,-20.7061767578125,45.623779296875
7.1899999,-7.489062786102295,-4.642356872558594,-1.9488801956176758,40.1153564453125,-6.3629150390625,45.2728271484375
7.209999900000001,-13.891158103942871,-4.778826713562012,-1.0079588890075684,-44.281005859375,-32.7911376953125,40.95458984375
7.2299999,-21.538238525390625,-3.9217023849487305,-0.7038952708244324,-91.8121337890625,-34.881591796875,62.255859375
7.249999900000001,-25.057714462280273,-1.9967641830444336,-2.2577321529388428,-74.4171142578125,-52.8411865234375,12.8173828125
7.2699999,-26.029760360717773,-0.33279404044151306,-4.278438568115234,20.9808349609375,-75.2410888671875,-51.971435546875
7.289999900000001,-20.796035766601562,1.647210717201233,-5.913678169250488,132.0343017578125,-67.352294921875,-111.4501953125
7.3099999,-14.056358337402344,1.8842366933822632,-5.264849662780762,142.7459716796875,-3.0059814453125,-65.0634765625
7.329999900000001,-6.967126846313477,2.145204782485962,-2.8586769104003906,77.484130859375,86.334228515625,18.3868408203125
7.3499999,-2.31758713722229,1.7764976024627686,0.828393816947937,18.8140869140625,152.8167724609375,12.63427734375
7.369999900000001,-1.1013327836990356,1.3407529592514038,3.7900211811065674,3.265380859375,100.189208984375,-27.77099609375
7.3899999,-2.5665841102600098,0.933738648891449,5.233725070953369,1.8768310546875,-5.859375,-44.5404052734375
7.409999900000001,-5.149928092956543,0.2777273952960968,5.157110691070557,9.124755859375,-47.18017578125,-36.9873046875
7.4299999,-7.4100542068481445,-0.5793967843055725,4.309563159942627,20.6146240234375,-49.8504638671875,-21.17919921875
7.449999900000001,-8.722076416015625,-1.256955862045288,3.112462282180786,29.0069580078125,-48.2177734375,11.90185546875
7.4699999,-9.232041358947754,-1.800439715385437,2.0590133666992188,22.613525390625,-34.7900390625,26.0772705078125
7.489999900000001,-9.564835548400879,-2.0446481704711914,1.357512354850769,23.49853515625,-16.3421630859375,-4.302978515625
7.5099999,-9.926360130310059,-2.099714994430542,1.0654197931289673,26.4739990234375,-14.984130859375,-52.9327392578125
7.529999900000001,-10.20887565612793,-2.145204782485962,1.0342950820922852,28.13720703125,-34.8052978515625,-70.4498291015625
7.5499999,-10.132261276245117,-2.2697031497955322,1.1180921792984009,28.656005859375,-47.882080078125,-44.036865234375
7.569999900000001,-9.674968719482422,-2.4660277366638184,1.2425906658172607,33.9508056640625,-36.43798828125,-2.86865234375
7.5899999000000005,-9.165003776550293,-2.7054479122161865,1.4173674583435059,42.6177978515625,-16.7083740234375,21.7132568359375
7.609999900000001,-9.045293807983398,-2.7293899059295654,1.7310078144073486,44.036865234375,-5.8135986328125,18.2952880859375
7.6299999000000005,-9.435548782348633,-2.609679937362671,2.0925323963165283,31.6619873046875,5.7373046875,-9.1552734375
7.649999900000001,-10.072406768798828,-2.3965959548950195,2.403778553009033,19.83642578125,12.63427734375,-42.41943359375
7.6699999000000005,-10.594342231750488,-2.205059766769409,2.5498247146606445,19.256591796875,5.7373046875,-53.4515380859375
7.6899999,-10.709263801574707,-2.1954829692840576,2.4899697303771973,23.3001708984375,-2.8533935546875,-39.398193359375
7.709999900000001,-10.541669845581055,-2.296039342880249,2.3343467712402344,22.7813720703125,-7.171630859375,-17.63916015625
7.7299999,-10.299856185913086,-2.4899697303771973,2.1499931812286377,18.646240234375,-0.3662109375,-15.5029296875
7.749999900000001,-9.986215591430664,-2.8203697204589844,1.920149803161621,24.71923828125,-16.17431640625,-36.6973876953125
7.7699999,-9.739612579345703,-2.9328970909118652,1.8507179021835327,24.871826171875,-22.552490234375,-29.541015625
7.789999900000001,-9.363722801208496,-2.9975404739379883,1.8267759084701538,22.2320556640625,-17.913818359375,-14.739990234375
7.8099999,-8.975862503051758,-2.985569477081299,1.8531121015548706,20.0042724609375,-13.2293701171875,-3.265380859375
7.829999900000001,-8.731653213500977,-2.8993782997131348,1.9321208000183105,16.326904296875,-10.5743408203125,-2.8228759765625
7.8499999,-8.702922821044922,-2.782062292098999,2.03507137298584,9.3231201171875,-5.5084228515625,-10.528564453125
7.869999900000001,-8.822632789611816,-2.691082715988159,2.1332337856292725,3.47900390625,-1.190185546875,-17.8375244140625
7.8899999,-9.002198219299316,-2.669534921646118,2.190694570541382,1.3427734375,-0.396728515625,-18.61572265625
7.909999900000001,-9.133879661560059,-2.734178304672241,2.1787235736846924,1.15966796875,-0.1678466796875,-15.7470703125
7.9299999,-9.198522567749023,-2.849100112915039,2.097320795059204,1.8463134765625,0.823974609375,-12.6953125
7.949999900000001,-9.205705642700195,-2.9496564865112305,1.9728221893310547,3.9825439453125,1.4190673828125,-10.650634765625
7.9699999,-9.184157371520996,-3.021482467651367,1.8555063009262085,6.5765380859375,3.2196044921875,-11.4593505859375
7.989999900000001,-9.17936897277832,-3.045424461364746,1.764526605606079,7.7056884765625,8.7127685546875,-13.580322265625
8.0099999,-9.215282440185547,-3.069366693496704,1.6831238269805908,9.5367431640625,11.0321044921875,-13.9007568359375
8.0299999,-9.287108421325684,-3.0861260890960693,1.647210717201233,14.9688720703125,0.9918212890625,-11.9781494140625
8.049999900000001,-9.339780807495117,-3.114856481552124,1.6280571222305298,19.5770263671875,-8.9874267578125,-10.528564453125
8.069999900000001,-9.32302188873291,-3.1459810733795166,1.6711528301239014,21.5911865234375,-8.6212158203125,-9.21630859375
8.0899999,-9.23682975769043,-3.157952070236206,1.7764976024627686,20.81298828125,-3.2806396484375,-6.4544677734375
8.1099999,-9.117119789123535,-3.1699230670928955,1.9105730056762695,18.8751220703125,-0.5035400390625,-4.7760009765625
8.129999900000001,-9.009381294250488,-3.1723172664642334,2.0590133666992188,17.4407958984375,-1.4190673828125,-4.608154296875
8.149999900000001,-8.96149730682373,-3.1866824626922607,2.190694570541382,15.3350830078125,-0.54931640625,-3.448486328125
8.1699999,-8.973467826843262,-3.1914708614349365,2.3104045391082764,12.542724609375,1.800537109375,-1.9073486328125
8.1899999,-9.009381294250488,-3.1914708614349365,2.434903144836426,8.7127685546875,3.3721923828125,-3.3721923828125
8.2099999,-9.047688484191895,-3.1938650608062744,2.5522189140319824,3.0670166015625,5.9967041015625,-6.1492919921875
8.229999900000001,-9.081207275390625,-3.224989652633667,2.626439332962036,-2.3193359375,9.3994140625,-6.256103515625
8.2499999,-9.074024200439453,-3.287238836288452,2.6455929279327393,-3.7384033203125,10.040283203125,-4.364013671875
8.2699999,-9.05247688293457,-3.3854012489318848,2.607285737991333,-2.1209716796875,7.354736328125,-2.6397705078125
8.2899999,-9.030928611755371,-3.488351821899414,2.537853717803955,-1.1138916015625,5.06591796875,-1.251220703125
8.309999900000001,-9.057265281677246,-3.5721490383148193,2.427720546722412,-0.396728515625,4.0435791015625,-1.3580322265625
8.3299999,-9.08838939666748,-3.6152446269989014,2.3295583724975586,4.486083984375,0.091552734375,-3.936767578125
8.3499999,-9.121908187866211,-3.624821424484253,2.255337953567505,9.3841552734375,-2.3956298828125,-5.462646484375
8.3699999,-9.14585018157959,-3.5721490383148193,2.233790159225464,10.711669921875,-0.457763671875,-3.631591796875
8.389999900000001,-9.14345645904541,-3.4572272300720215,2.2840683460235596,8.3465576171875,1.5411376953125,-2.0599365234375
8.4099999,-9.126696586608887,-3.2968156337738037,2.3942017555236816,3.570556640625,2.38037109375,-3.448486328125
8.4299999,-9.107542991638184,-3.136404275894165,2.518700122833252,-3.41796875,4.94384765625,-6.4239501953125
8.4499999,-9.081207275390625,-3.028665065765381,2.6192567348480225,-9.857177734375,9.2010498046875,-9.002685546875
8.469999900000001,-9.038111686706543,-3.00711727142334,2.6623523235321045,-12.847900390625,12.8326416015625,-9.94873046875
8.4899999,-8.987833023071289,-3.069366693496704,2.6384103298187256,-13.8397216796875,13.336181640625,-7.9193115234375
8.5099999,-8.927978515625,-3.184288263320923,2.5785553455352783,-14.0380859375,11.04736328125,-3.2806396484375
8.5299999,-8.880094528198242,-3.315969467163086,2.5067291259765625,-15.13671875,8.4381103515625,1.556396484375
8.549999900000001,-8.880094528198242,-3.4356794357299805,2.4396915435791016,-16.8609619140625,6.89697265625,3.6163330078125
8.569999900000001,-8.918401718139648,-3.533841609954834,2.3798365592956543,-16.5557861328125,3.9520263671875,1.5106201171875
8.5899999,-8.98543930053711,-3.6104562282562256,2.322375535964966,-14.2974853515625,0.48828125,-0.030517578125
8.6099999,-9.05247688293457,-3.6511576175689697,2.2673089504241943,-12.725830078125,-1.434326171875,1.7852783203125
8.629999900000001,-9.083600997924805,-3.6583402156829834,2.2242133617401123,-12.8631591796875,-3.9520263671875,3.997802734375
8.649999900000001,-9.0859956741333,-3.6152446269989014,2.1978771686553955,-14.007568359375,-6.622314453125,5.4168701171875
8.6699999,-9.066842079162598,-3.529053211212158,2.1930887699127197,-15.8233642578125,-6.927490234375,7.2021484375
8.6899999,-9.066842079162598,-3.404554843902588,2.1978771686553955,-18.37158203125,-2.99072265625,10.07080078125
8.709999900000001,-9.100360870361328,-3.2585084438323975,2.2026655673980713,-21.1639404296875,0.274658203125,10.9405517578125
8.729999900000001,-9.157821655273438,-3.1100680828094482,2.185906171798706,-23.9715576171875,-1.0528564453125,7.7972412109375
8.7499999,-9.2033109664917,-2.9903578758239746,2.1284453868865967,-26.4739990234375,-1.9683837890625,4.2724609375
8.7699999,-9.210494041442871,-2.9161376953125,2.0446481704711914,-27.6641845703125,0.67138671875,4.302978515625
8.7899999,-9.17936897277832,-2.9017724990844727,1.922544002532959,-27.496337890625,6.0577392578125,6.7901611328125
8.809999900000001,-9.148244857788086,-2.937685489654541,1.7956513166427612,-25.054931640625,8.1329345703125,8.880615234375
8.8299999,-9.162610054016113,-2.9975404739379883,1.6711528301239014,-22.2625732421875,7.14111328125,11.3983154296875
8.8499999,-9.232041358947754,-3.0550012588500977,1.5610195398330688,-19.9432373046875,6.591796875,14.190673828125
8.8699999,-9.349357604980469,-3.093308687210083,1.4748282432556152,-17.7154541015625,6.1798095703125,15.5487060546875
8.889999900000001,-9.478644371032715,-3.1028854846954346,1.41257905960083,-14.8773193359375,3.1280517578125,14.58740234375
8.9099999,-9.583989143371582,-3.093308687210083,1.3718775510787964,-12.298583984375,-0.8087158203125,13.0767822265625
8.9299999,-9.634267807006836,-3.0789434909820557,1.3455413579940796,-10.6964111328125,-2.25830078125,13.397216796875
8.9499999,-9.627084732055664,-3.066972494125366,1.3311761617660522,-9.8114013671875,-1.0223388671875,15.1519775390625
8.969999900000001,-9.59596061706543,-3.045424461364746,1.3335703611373901,-9.796142578125,2.166748046875,15.1824951171875
8.9899999,-9.579200744628906,-3.0142998695373535,1.3407529592514038,-10.498046875,6.103515625,13.3209228515625
9.0099999,-9.607931137084961,-2.9735984802246094,1.3479355573654175,-11.8255615234375,8.1939697265625,12.420654296875
9.0299999,-9.679757118225098,-2.935291290283203,1.3527239561080933,-13.5955810546875,6.866455078125,13.24462890625
9.049999900000001,-9.780313491821289,-2.9017724990844727,1.3455413579940796,-15.7012939453125,4.08935546875,13.48876953125
9.069999900000001,-9.864110946655273,-2.8874073028564453,1.3311761617660522,-16.9677734375,2.7618408203125,11.199951171875
9.0899999,-9.909601211547852,-2.873042106628418,1.3000515699386597,-16.6473388671875,2.9449462890625,8.4991455078125
9.1099999,-9.90241813659668,-2.8562827110290527,1.256955862045288,-15.045166015625,3.3111572265625,6.195068359375
9.129999900000001,-9.825803756713867,-2.8586769104003906,1.1994950771331787,-12.969970703125,4.8980712890625,3.9520263671875
9.149999900000001,-9.720458984375,-2.8562827110290527,1.1468225717544556,-10.5438232421875,5.340576171875,3.3416748046875
9.1699999,-9.591172218322754,-2.8634653091430664,1.094150185585022,-8.60595703125,5.4168701171875,3.631591796875
9.1899999,-9.452308654785156,-2.8658595085144043,1.0630255937576294,-6.7138671875,4.638671875,3.8299560546875
9.209999900000001,-9.308655738830566,-2.8586769104003906,1.048660397529602,-5.0811767578125,3.0670166015625,4.2877197265625
9.229999900000001,-9.174580574035645,-2.8395233154296875,1.070208191871643,-4.7760009765625,3.9215087890625,4.0740966796875
9.2499999,-9.064447402954102,-2.8107926845550537,1.1061211824417114,-5.43212890625,6.8206787109375,3.265380859375
9.2699999,-8.980650901794434,-2.782062292098999,1.1563993692398071,-5.6304931640625,7.0648193359375,3.0670166015625
9.2899999,-8.947132110595703,-2.7676970958709717,1.192312479019165,-5.767822265625,4.547119140625,3.6773681640625
9.309999900000001,-8.968679428100586,-2.7700912952423096,1.194706678390503,-5.523681640625,1.5106201171875,3.60107421875
9.3299999,-9.02135181427002,-2.806004285812378,1.1827356815338135,-3.47900390625,-1.8157958984375,3.173828125
9.3499999,-9.119514465332031,-2.8658595085144043,1.1803414821624756,-1.312255859375,-2.166748046875,4.4403076171875
9.3699999,-9.255983352661133,-2.940079689025879,1.2018892765045166,-0.6866455078125,2.1820068359375,6.1187744140625
9.389999900000001,-9.430760383605957,-2.9975404739379883,1.256955862045288,-0.823974609375,7.598876953125,5.615234375
9.4099999,-9.641449928283691,-3.0119056701660156,1.3239935636520386,-1.251220703125,11.3677978515625,3.387451171875
9.4299999,-9.864110946655273,-2.9735984802246094,1.3766659498214722,-1.9989013671875,12.7410888671875,1.8310546875
9.4499999,-10.043676376342773,-2.9017724990844727,1.3934253454208374,-2.471923828125,10.833740234375,2.44140625
9.469999900000001,-10.134655952453613,-2.7916390895843506,1.3766659498214722,-1.7852783203125,5.7525634765625,4.150390625
9.4899999,-10.105925559997559,-2.6599581241607666,1.335964560508728,-1.1749267578125,1.708984375,5.18798828125
9.5099999,-9.971850395202637,-2.5043349266052246,1.278503656387329,-1.1444091796875,0.640869140625,6.0272216796875
9.5299999,-9.744400978088379,-2.343923568725586,1.2186486721038818,-1.0833740234375,-0.54931640625,6.9732666015625
9.549999900000001,-9.473855972290039,-2.188300371170044,1.161187767982483,-0.4730224609375,-3.7384033203125,7.8582763671875
9.569999900000001,-9.208099365234375,-2.0661959648132324,1.1324573755264282,-0.4119873046875,-6.0882568359375,9.33837890625
9.5899999,-9.01895809173584,-1.9847931861877441,1.1276689767837524,-0.5645751953125,-5.4779052734375,11.3067626953125
9.6099999,-8.932766914367676,-1.9297266006469727,1.1659762859344482,-0.1068115234375,-5.4779052734375,11.749267578125
9.629999900000001,-8.937555313110352,-1.922544002532959,1.2330138683319092,-0.5950927734375,-4.5928955078125,10.6964111328125
9.649999900000001,-9.040505409240723,-1.9345149993896484,1.316810965538025,-1.7852783203125,-0.9918212890625,10.9710693359375
9.6699999,-9.198522567749023,-1.9728221893310547,1.3982137441635132,-2.74658203125,3.1890869140625,12.1612548828125
9.6899999,-9.394847869873047,-2.008735179901123,1.4748282432556152,-3.173828125,4.3487548828125,13.5498046875
9.709999900000001,-9.610325813293457,-2.027888774871826,1.5107412338256836,-4.3792724609375,3.875732421875,15.7470703125
9.729999900000001,-9.821015357971191,-2.013523578643799,1.5131354331970215,-6.2713623046875,1.678466796875,18.524169921875
9.7499999,-9.998186111450195,-1.9536685943603516,1.4700398445129395,-8.544921875,-0.8087158203125,19.6685791015625
9.7699999,-10.096348762512207,-1.867477297782898,1.3862427473068237,-10.5438232421875,0.1983642578125,18.9208984375
9.7899999,-10.108319282531738,-1.7621324062347412,1.2737152576446533,-11.2457275390625,4.150390625,19.2413330078125
9.809999900000001,-10.055646896362305,-1.647210717201233,1.1563993692398071,-10.711669921875,6.805419921875,20.56884765625
9.8299999,-9.947908401489258,-1.5442601442337036,1.0414776802062988,-10.711669921875,7.080078125,20.3857421875
9.8499999,-9.821015357971191,-1.45806884765625,0.9409212470054626,-11.29150390625,5.5999755859375,20.355224609375
9.8699999,-9.732429504394531,-1.37906014919281,0.8619126081466675,-11.90185546875,5.2947998046875,21.9268798828125
9.889999900000001,-9.670180320739746,-1.3263877630233765,0.8020575642585754,-12.4969482421875,6.9427490234375,23.0560302734375
9.9099999,-9.660603523254395,-1.278503656387329,0.768538773059845,-13.336181640625,8.48388671875,24.7802734375
9.9299999,-9.732429504394531,-1.2282254695892334,0.7445967197418213,-14.8468017578125,13.916015625,24.9481201171875
9.9499999,-9.873687744140625,-1.2090718746185303,0.6823474764823914,-13.7481689453125,19.8211669921875,20.4010009765625
9.969999900000001,-10.29746150970459,-1.259350061416626,0.5985504388809204,-6.256103515625,15.6707763671875,14.9688720703125
9.9899999,-10.654197692871094,-1.5155296325683594,0.5003881454467773,3.143310546875,3.3111572265625,1.922607421875
10.0099999,-10.881647109985352,-1.656787633895874,0.3926490843296051,9.1094970703125,-5.523681640625,-14.801025390625
10.0299999,-10.915165901184082,-1.8579005002975464,0.363918662071228,11.9476318359375,0.5340576171875,3.96728515625
10.049999900000001,-10.620678901672363,-1.8076223134994507,0.38546648621559143,15.3656005859375,0.6103515625,19.53125
10.069999900000001,-10.345345497131348,-1.625662922859192,0.4572925269603729,14.8773193359375,-1.15966796875,27.099609375
10.0899999,-10.218452453613281,-1.3838485479354858,0.5674257874488831,13.7786865234375,-3.3721923828125,26.0467529296875
10.1099999,-10.213664054870605,-1.1468225717544556,0.689530074596405,14.09912109375,-7.5225830078125,17.08984375
10.129999900000001,-10.254365921020508,-0.9457096457481384,0.828393816947937,12.908935546875,-8.11767578125,6.256103515625
10.149999900000001,-10.273519515991211,-0.790086567401886,0.9457096457481384,8.9111328125,-1.1749267578125,-0.8087158203125
10.1699999,-10.194510459899902,-0.7158663272857666,1.0319008827209473,5.3863525390625,5.1116943359375,-2.5787353515625
10.1899999,-10.050858497619629,-0.6847416758537292,1.0654197931289673,3.3111572265625,5.645751953125,0.79345703125
10.209999900000001,-9.890447616577148,-0.6991068720817566,1.0342950820922852,0.9918212890625,5.1727294921875,5.5084228515625
10.229999900000001,-9.763554573059082,-0.7469909191131592,0.9481038451194763,0,2.960205078125,7.8887939453125
10.2499999,-9.682151794433594,-0.7996633648872375,0.8523358106613159,2.74658203125,-3.7841796875,7.2479248046875
10.2699999,-9.639056205749512,-0.8858546018600464,0.7661445140838623,6.072998046875,-5.3253173828125,3.6773681640625
10.2899999,-9.615114212036133,-0.9768342971801758,0.7206547260284424,7.6446533203125,-1.068115234375,1.3580322265625
10.309999900000001,-9.593565940856934,-1.0630255937576294,0.730231523513794,8.544921875,0.1373291015625,1.4190673828125
10.3299999,-9.57441234588623,-1.1324573755264282,0.790086567401886,8.056640625,-3.6773681640625,0.8544921875
10.3499999,-9.567230224609375,-1.1803414821624756,0.8978256583213806,5.8135986328125,-6.40869140625,-1.2969970703125
10.3699999,-9.603142738342285,-1.2066776752471924,1.0342950820922852,2.5787353515625,-4.638671875,-2.7618408203125
10.389999900000001,-9.694122314453125,-1.2258312702178955,1.1803414821624756,0.2899169921875,-5.1727294921875,-3.47900390625
10.4099999,-9.837775230407715,-1.2545616626739502,1.3215993642807007,-1.495361328125,-11.5203857421875,-6.65283203125
10.4299999,-9.986215591430664,-1.2976573705673218,1.4317326545715332,-5.18798828125,-14.16015625,-12.451171875
10.4499999,-10.070012092590332,-1.3623007535934448,1.4939818382263184,-8.23974609375,-8.209228515625,-16.0980224609375
10.469999900000001,-10.038887977600098,-1.4245500564575195,1.5107412338256836,-7.9345703125,-3.11279296875,-13.5040283203125
10.4899999,-9.892841339111328,-1.4700398445129395,1.4724340438842773,-6.500244140625,-4.0130615234375,-6.8511962890625
10.5099999,-9.72285270690918,-1.45806884765625,1.4053963422775269,-7.0953369140625,-7.2021484375,0.3662109375
10.5299999,-9.57201862335205,-1.3838485479354858,1.3239935636520386,-8.3160400390625,-7.87353515625,4.33349609375
10.549999900000001,-9.502586364746094,-1.2545616626739502,1.2713210582733154,-8.1329345703125,-5.9356689453125,4.730224609375
10.569999900000001,-9.550470352172852,-1.0989385843276978,1.237802267074585,-9.21630859375,-1.9378662109375,4.2572021484375
10.5899999,-9.694122314453125,-0.9600749015808105,1.2114660739898682,-12.1917724609375,1.556396484375,2.6397705078125
10.6099999,-9.904812812805176,-0.8595184087753296,1.170764684677124,-14.373779296875,3.2196044921875,0.0152587890625
10.629999900000001,-10.103530883789062,-0.8092401623725891,1.0989385843276978,-14.1143798828125,4.57763671875,-4.180908203125
10.649999900000001,-10.223240852355957,-0.811634361743927,0.993593692779541,-12.3748779296875,5.950927734375,-8.9263916015625
10.6699999,-10.235212326049805,-0.8643068075180054,0.8738836050033569,-8.72802734375,4.180908203125,-10.80322265625
10.6899999,-10.144232749938965,-0.9528923034667969,0.7493851184844971,-4.3487548828125,0.396728515625,-8.1634521484375
10.709999900000001,-9.99339771270752,-1.048660397529602,0.6512228846549988,-0.9613037109375,-1.922607421875,-3.875732421875
10.729999900000001,-9.84495735168457,-1.1252747774124146,0.5937620401382446,0.732421875,-0.701904296875,-1.8157958984375
10.7499999,-9.746794700622559,-1.1563993692398071,0.5817909836769104,1.2969970703125,2.38037109375,-1.953125
10.7699999,-9.701305389404297,-1.1492167711257935,0.6105214357376099,1.495361328125,4.302978515625,-2.6092529296875
10.7899999,-9.703699111938477,-1.1276689767837524,0.6655880808830261,1.312255859375,5.7830810546875,-4.058837890625
10.809999900000001,-9.713275909423828,-1.1180921792984009,0.7326257228851318,1.2359619140625,8.2244873046875,-2.4871826171875
10.8299999,-9.739612579345703,-1.1252747774124146,0.7924807667732239,0.0457763671875,10.7574462890625,2.13623046875
10.8499999,-9.787496566772461,-1.1516109704971313,0.8331822156906128,-1.4190673828125,13.0615234375,6.561279296875
10.8699999,-9.880870819091797,-1.1803414821624756,0.8427590131759644,-2.6397705078125,14.6331787109375,6.5155029296875
10.889999900000001,-9.986215591430664,-1.2066776752471924,0.8164227604866028,-2.38037109375,14.1754150390625,1.2054443359375
10.9099999,-10.036493301391602,-1.2282254695892334,0.7661445140838623,-0.0152587890625,11.444091796875,-3.8299560546875
10.9299999,-9.99100399017334,-1.2449848651885986,0.7015010714530945,2.288818359375,8.697509765625,-4.4403076171875
10.9499999,-9.825803756713867,-1.259350061416626,0.6440402865409851,5.0201416015625,6.2255859375,-1.9989013671875
10.969999900000001,-9.576807022094727,-1.2617442607879639,0.6129156351089478,7.7667236328125,2.288818359375,1.9989013671875
10.9899999,-9.318233489990234,-1.2473790645599365,0.6224924325942993,8.5906982421875,-0.9765625,7.080078125
11.0099999,-9.17697525024414,-1.2234370708465576,0.6799532771110535,7.9498291015625,-0.91552734375,9.7198486328125
11.0299999,-9.244012832641602,-1.1851298809051514,0.751779317855835,8.1787109375,-2.6702880859375,4.0435791015625
11.049999900000001,-9.425971984863281,-1.1779472827911377,0.849941611289978,9.8876953125,-12.939453125,-7.9498291015625
11.069999900000001,-9.959878921508789,-1.2306196689605713,0.9576807022094727,9.735107421875,-20.0042724609375,-12.5732421875
11.0899999,-10.261548042297363,-1.3335703611373901,1.0103530883789062,8.5906982421875,-16.3421630859375,-16.41845703125
11.1099999,-10.673351287841797,-1.5466543436050415,1.0749965906143188,11.871337890625,-10.4217529296875,-7.110595703125
11.129999900000001,-10.666168212890625,-1.6711528301239014,1.1324573755264282,11.688232421875,-10.162353515625,2.2125244140625
11.149999900000001,-10.498574256896973,-1.7142484188079834,1.213860273361206,5.462646484375,-6.4544677734375,2.8228759765625
11.1699999,-10.165780067443848,-1.6496049165725708,1.3311761617660522,5.126953125,-5.6610107421875,0.6103515625
11.1899999,-9.86889934539795,-1.5203180313110352,1.4532804489135742,8.6669921875,-7.7362060546875,-1.373291015625
11.209999900000001,-9.651026725769043,-1.4293384552001953,1.5945383310317993,6.8359375,-4.0283203125,2.4566650390625
11.229999900000001,-9.564835548400879,-1.357512354850769,1.7118542194366455,0.0457763671875,-1.3275146484375,5.31005859375
11.2499999,-9.528923034667969,-1.3048399686813354,1.802833914756775,-4.7454833984375,2.4871826171875,5.1422119140625
11.2699999,-9.545681953430176,-1.2473790645599365,1.8124107122421265,-7.14111328125,4.4708251953125,4.180908203125
11.2899999,-9.622296333312988,-1.1755530834197998,1.7477672100067139,-11.871337890625,4.2877197265625,5.4168701171875
11.309999900000001,-9.730035781860352,-1.1061211824417114,1.6280571222305298,-17.7764892578125,4.3182373046875,7.6904296875
11.3299999,-9.84495735168457,-1.0342950820922852,1.4724340438842773,-21.0113525390625,4.8370361328125,7.171630859375
11.3499999,-9.93354320526123,-1.015141487121582,1.2976573705673218,-18.280029296875,4.69970703125,4.1961669921875
11.3699999,-10.010157585144043,-1.0079588890075684,0.8882488012313843,-8.6669921875,3.143310546875,3.96728515625
11.389999900000001,-10.067618370056152,-0.9600749015808105,0.7015010714530945,-5.3863525390625,1.46484375,1.6632080078125
11.4099999,-10.074800491333008,-0.8954314589500427,0.5195417404174805,2.227783203125,-0.946044921875,-3.387451171875
11.4299999,-10.08437728881836,-0.8140285611152649,0.4596867263317108,9.27734375,-4.0435791015625,-5.55419921875
11.4499999,-10.074800491333008,-0.7996633648872375,0.507570743560791,3.7078857421875,-7.50732421875,-3.631591796875
11.469999900000001,-10.02691650390625,-0.8379706144332886,0.7182605266571045,-7.0953369140625,-5.9967041015625,-4.638671875
11.4899999,-9.96945571899414,-0.9002198576927185,0.9983820915222168,-9.82666015625,-4.364013671875,-7.537841796875
11.5099999,-9.883264541625977,-1.0295066833496094,1.2761094570159912,-6.6070556640625,-3.448486328125,-8.026123046875
11.5299999,-9.823410034179688,-1.2880805730819702,1.3503297567367554,-1.2054443359375,-2.532958984375,-4.21142578125
11.549999900000001,-9.734824180603027,-1.4891934394836426,1.3718775510787964,7.293701171875,-3.2196044921875,-0.6866455078125
11.569999900000001,-9.703699111938477,-1.7070658206939697,1.280897855758667,14.1143798828125,-0.3509521484375,-0.457763671875
11.5899999,-9.691728591918945,-1.7693150043487549,1.1851298809051514,18.24951171875,0.3662109375,0.30517578125
11.6099999,-9.730035781860352,-1.6639702320098877,1.2186486721038818,16.8914794921875,0.0457763671875,1.2969970703125
11.629999900000001,-9.792284965515137,-1.4317326545715332,1.3886369466781616,6.53076171875,0.1983642578125,3.814697265625
11.649999900000001,-9.823410034179688,-1.0678139925003052,1.6879122257232666,-9.033203125,3.509521484375,3.9215087890625
11.6699999,-9.81143856048584,-0.7493851184844971,2.013523578643799,-22.0489501953125,8.4381103515625,-0.274658203125
11.6899999,-9.758766174316406,-0.5722141861915588,2.164358377456665,-29.47998046875,10.467529296875,-3.3416748046875
11.709999900000001,-9.746794700622559,-0.5841852426528931,2.049436569213867,-29.7393798828125,11.871337890625,-3.570556640625
11.729999900000001,-9.765948295593262,-0.7972691655158997,1.656787633895874,-20.8892822265625,11.5814208984375,-2.685546875
11.7499999,-9.832986831665039,-1.1276689767837524,1.05105459690094,-5.2337646484375,11.23046875,-3.35693359375
11.7699999,-9.959878921508789,-1.338358759880066,0.49799394607543945,11.5966796875,5.9051513671875,-3.8604736328125
11.7899999,-10.031704902648926,-1.5538369417190552,0.06464344263076782,20.4620361328125,1.15966796875,-4.974365234375
11.809999900000001,-10.120290756225586,-1.6065093278884888,-0.17717093229293823,21.91162109375,-1.4495849609375,-4.730224609375
11.8299999,-10.08437728881836,-1.6184803247451782,-0.11971008777618408,22.39990234375,-5.035400390625,-2.716064453125
11.8499999,-10.017339706420898,-1.5634137392044067,0.1412578970193863,18.3258056640625,-6.40869140625,-0.7171630859375
11.8699999,-9.892841339111328,-1.4293384552001953,0.5817909836769104,8.6669921875,-5.9051513671875,0.3204345703125
11.889999900000001,-9.813833236694336,-1.314416766166687,1.0103530883789062,3.448486328125,-3.9825439453125,-0.42724609375
11.9099999,-9.792284965515137,-1.161187767982483,1.3670891523361206,6.3323974609375,-2.74658203125,-1.9073486328125
11.9299999,-9.775525093078613,-1.0606313943862915,1.5849615335464478,8.60595703125,-0.579833984375,-3.204345703125
11.9499999,-9.80904483795166,-0.9385270476341248,1.7860745191574097,2.2735595703125,2.5787353515625,-2.685546875
11.969999900000001,-9.78989028930664,-0.8020575642585754,1.944091796875,-10.4522705078125,6.6375732421875,-3.96728515625
11.9899999,-9.763554573059082,-0.7445967197418213,2.0590133666992188,-20.2789306640625,10.3759765625,-6.256103515625
12.0099999,-9.758766174316406,-0.8020575642585754,1.9321208000183105,-21.4080810546875,11.474609375,-7.6446533203125
12.0299999,-9.761159896850586,-1.0558429956436157,1.601720929145813,-13.97705078125,8.9569091796875,-6.34765625
12.049999900000001,-9.821015357971191,-1.381454348564148,1.0678139925003052,-2.4871826171875,7.7056884765625,-5.7373046875
12.069999900000001,-9.8784761428833,-1.7525556087493896,0.4908113479614258,11.932373046875,5.9967041015625,-5.7373046875
12.0899999,-9.93354320526123,-2.0374655723571777,-0.004788403399288654,26.55029296875,1.0223388671875,-3.2196044921875
12.1099999,-9.947908401489258,-2.126051187515259,-0.26575639843940735,32.073974609375,-3.509521484375,-0.457763671875
12.129999900000001,-9.923966407775879,-2.054224967956543,-0.27054479718208313,26.6876220703125,-7.4615478515625,1.5716552734375
12.149999900000001,-9.919178009033203,-1.8339585065841675,0.047884032130241394,18.37158203125,-10.162353515625,1.007080078125
12.1699999,-9.923966407775879,-1.5083470344543457,0.5339069962501526,11.0931396484375,-10.6048583984375,-0.5035400390625
12.1899999,-9.897629737854004,-1.2880805730819702,1.0558429956436157,4.1351318359375,-8.9569091796875,-1.5869140625
12.209999900000001,-9.86889934539795,-1.1492167711257935,1.50355863571167,-1.52587890625,-6.2408447265625,-0.5035400390625
12.229999900000001,-9.825803756713867,-1.1228805780410767,1.7764976024627686,-3.448486328125,-4.638671875,0.8544921875
12.2499999,-9.758766174316406,-1.1444283723831177,1.9177556037902832,-3.173828125,-3.021240234375,1.4495849609375
12.2699999,-9.744400978088379,-1.259350061416626,1.965639591217041,-5.645751953125,-1.6021728515625,0.946044921875
12.289999900000002,-9.720458984375,-1.3048399686813354,1.8986018896102905,-8.9874267578125,0.5645751953125,0.7781982421875
12.309999900000001,-9.730035781860352,-1.381454348564148,1.7764976024627686,-7.6141357421875,3.0517578125,0.4425048828125
12.3299999,-9.739612579345703,-1.4197616577148438,1.522712230682373,-1.617431640625,4.669189453125,-0.396728515625
12.3499999,-9.797073364257812,-1.4173674583435059,1.2330138683319092,4.21142578125,2.410888671875,0.54931640625
12.3699999,-9.873687744140625,-1.381454348564148,1.0055646896362305,4.5623779296875,1.800537109375,1.1444091796875
12.389999900000001,-9.931148529052734,-1.290474772453308,0.9026140570640564,1.1749267578125,0.9765625,0.1068115234375
12.4099999,-9.947908401489258,-1.237802267074585,0.8738836050033569,-0.5645751953125,-0.152587890625,-2.960205078125
12.4299999,-9.928754806518555,-1.235408067703247,0.9385270476341248,0.3814697265625,-1.312255859375,-4.2266845703125
12.4499999,-9.86889934539795,-1.2617442607879639,1.0295066833496094,0.6256103515625,0.3662109375,-3.4332275390625
12.469999900000001,-9.825803756713867,-1.3431471586227417,1.1563993692398071,0.4119873046875,2.1820068359375,-1.9989013671875
12.4899999,-9.794678688049316,-1.3718775510787964,1.2856862545013428,-0.6866455078125,2.13623046875,-0.79345703125
12.5099999,-9.744400978088379,-1.381454348564148,1.41257905960083,-4.4097900390625,3.23486328125,0.5340576171875
12.5299999,-9.765948295593262,-1.414973258972168,1.4293384552001953,-7.4920654296875,3.96728515625,0.274658203125
12.549999900000001,-9.77791976928711,-1.4245500564575195,1.3694833517074585,-5.7830810546875,3.387451171875,-0.9002685546875
12.569999900000001,-9.797073364257812,-1.5107412338256836,1.1803414821624756,-0.30517578125,3.1280517578125,-1.5411376953125
12.5899999,-9.835380554199219,-1.4987702369689941,0.9959878921508789,4.150390625,2.9754638671875,-1.190185546875
12.6099999,-9.86650562286377,-1.4915876388549805,0.8403648138046265,5.6304931640625,0.823974609375,-0.30517578125
12.629999900000001,-9.885659217834473,-1.403002142906189,0.7876923680305481,3.7841796875,0.42724609375,-0.1220703125
12.649999900000001,-9.883264541625977,-1.3766659498214722,0.811634361743927,2.8228759765625,-0.946044921875,0.244140625
12.6699999,-9.888052940368652,-1.3335703611373901,0.912190854549408,4.058837890625,-2.1514892578125,-1.190185546875
12.6899999,-9.837775230407715,-1.3694833517074585,1.0295066833496094,2.1820068359375,-2.4261474609375,-1.4190673828125
12.709999900000001,-9.80904483795166,-1.403002142906189,1.1994950771331787,-0.79345703125,0.8544921875,-0.4730224609375
12.729999900000001,-9.770736694335938,-1.4197616577148438,1.3335703611373901,-2.3651123046875,2.3956298828125,1.251220703125
12.7499999,-9.773131370544434,-1.37906014919281,1.4532804489135742,-4.6844482421875,2.655029296875,1.6021728515625
12.7699999,-9.742006301879883,-1.3934253454208374,1.455674648284912,-6.4697265625,2.593994140625,2.2125244140625
12.789999900000002,-9.797073364257812,-1.278503656387329,1.4245500564575195,-4.791259765625,1.9989013671875,-0.42724609375
12.809999900000001,-9.818621635437012,-1.3670891523361206,1.3048399686813354,-1.5716552734375,2.655029296875,-2.288818359375
12.8299999,-9.856928825378418,-1.3551181554794312,1.1635819673538208,0.091552734375,4.94384765625,-0.946044921875
12.8499999,-9.873687744140625,-1.3623007535934448,1.0630255937576294,0.457763671875,3.9825439453125,0.518798828125
12.8699999,-9.8784761428833,-1.4867992401123047,0.9241618514060974,0,2.1209716796875,0.640869140625
12.889999900000001,-9.871294021606445,-1.4269442558288574,0.9576807022094727,0.3204345703125,0.8087158203125,-1.4495849609375
12.9099999,-9.897629737854004,-1.4700398445129395,0.9265560507774353,2.8076171875,1.0528564453125,-2.9296875
12.9299999,-9.837775230407715,-1.4844050407409668,0.9720458984375,4.0740966796875,3.1280517578125,-2.0904541015625
12.9499999,-9.849745750427246,-1.4389152526855469,0.9768342971801758,2.9449462890625,2.0904541015625,-0.4730224609375
12.969999900000001,-9.799467086791992,-1.3982137441635132,1.0271124839782715,-0.0457763671875,1.0223388671875,1.0223388671875
12.9899999,-9.773131370544434,-1.4437036514282227,1.01753568649292,-2.8533935546875,0.0762939453125,1.0528564453125
13.0099999,-9.780313491821289,-1.414973258972168,1.0773907899856567,-2.0294189453125,-0.274658203125,-0.9002685546875
13.0299999,-9.785101890563965,-1.400607943534851,1.0821791887283325,-0.9307861328125,1.9989013671875,-1.7547607421875
13.049999900000001,-9.801861763000488,-1.4460978507995605,1.0869675874710083,-2.5634765625,2.4871826171875,0.2899169921875
13.069999900000001,-9.847352027893066,-1.3551181554794312,1.1037269830703735,-4.2572021484375,1.129150390625,2.166748046875
13.0899999,-9.854534149169922,-1.3982137441635132,1.0558429956436157,-3.6468505859375,-1.0528564453125,2.1820068359375
13.1099999,-9.84495735168457,-1.4508862495422363,1.0678139925003052,-0.0457763671875,-1.1138916015625,0.1983642578125
13.129999900000001,-9.835380554199219,-1.4915876388549805,1.0606313943862915,1.3885498046875,1.068115234375,-0.213623046875
13.149999900000001,-9.837775230407715,-1.4891934394836426,1.0630255937576294,-0.823974609375,1.953125,1.4495849609375
13.1699999,-9.847352027893066,-1.4939818382263184,1.0558429956436157,-1.7547607421875,0.762939453125,2.01416015625
13.1899999,-9.885659217834473,-1.3503297567367554,1.0630255937576294,-0.8544921875,-1.1138916015625,2.0599365234375
13.209999900000001,-9.883264541625977,-1.3120225667953491,1.0534487962722778,0.9307861328125,-1.7242431640625,-0.8544921875
13.229999900000001,-9.873687744140625,-1.3024457693099976,1.01753568649292,2.6702880859375,-0.8697509765625,-2.25830078125
13.2499999,-9.859322547912598,-1.2473790645599365,1.0295066833496094,3.41796875,0.8392333984375,-1.5716552734375
13.2699999,-9.864110946655273,-1.2425906658172607,1.0342950820922852,3.143310546875,0.18310546875,-1.7852783203125
13.289999900000002,-9.873687744140625,-1.2234370708465576,1.091755986213684,1.8768310546875,-0.9613037109375,-2.197265625
13.309999900000001,-9.890447616577148,-1.2018892765045166,1.173158884048462,-0.48828125,-1.64794921875,-3.2501220703125
13.3299999,-9.931148529052734,-1.3048399686813354,1.256955862045288,-2.685546875,-0.7171630859375,-3.692626953125
13.3499999,-9.837775230407715,-1.4077905416488647,1.3120225667953491,-4.1656494140625,3.1585693359375,-2.6092529296875
13.3699999,-9.84495735168457,-1.5322890281677246,1.2976573705673218,-3.1585693359375,4.1046142578125,0.1068115234375
13.389999900000001,-9.72285270690918,-1.6639702320098877,1.2210428714752197,-0.3814697265625,2.5177001953125,2.838134765625
13.4099999,-9.72285270690918,-1.6950948238372803,1.139639973640442,1.8768310546875,1.0223388671875,2.838134765625
13.4299999,-9.739612579345703,-1.6639702320098877,1.05105459690094,3.7078857421875,0.6256103515625,1.4801025390625
13.4499999,-9.744400978088379,-1.5705963373184204,1.0319008827209473,0.8087158203125,2.7923583984375,0.579833984375
13.469999900000001,-9.818621635437012,-1.37906014919281,1.0031704902648926,-4.8675537109375,2.593994140625,1.0833740234375
13.4899999,-9.835380554199219,-1.2521674633026123,1.0247182846069336,-5.5999755859375,0.30517578125,1.739501953125
13.5099999,-9.847352027893066,-1.2210428714752197,0.9672574996948242,-2.685546875,-1.9378662109375,1.2054443359375
13.5299999,-9.895236015319824,-1.216254472732544,0.9600749015808105,1.28173828125,-2.471923828125,-1.5869140625
13.549999900000001,-9.890447616577148,-1.3215993642807007,0.9816226959228516,2.7618408203125,-0.9002685546875,-3.1890869140625
13.569999900000001,-9.86650562286377,-1.357512354850769,0.9840168952941895,1.52587890625,0.5950927734375,-1.3275146484375
13.5899999,-9.895236015319824,-1.3934253454208374,1.094150185585022,0.701904296875,0.579833984375,0.7171630859375
13.6099999,-9.835380554199219,-1.41257905960083,1.1516109704971313,1.4190673828125,-0.091552734375,0.946044921875
13.629999900000001,-9.84495735168457,-1.359906554222107,1.2617442607879639,2.4566650390625,0.2899169921875,-1.373291015625
13.649999900000001,-9.847352027893066,-1.3551181554794312,1.338358759880066,0.152587890625,1.6937255859375,-2.593994140625
13.6699999,-9.813833236694336,-1.335964560508728,1.3479355573654175,-5.2337646484375,4.791259765625,-1.373291015625
13.6899999,-9.873687744140625,-1.259350061416626,1.3503297567367554,-6.9122314453125,4.974365234375,-0.244140625
13.709999900000001,-9.86650562286377,-1.3455413579940796,1.1803414821624756,-4.730224609375,2.5634765625,0.762939453125
13.729999900000001,-9.880870819091797,-1.4293384552001953,1.0558429956436157,-0.946044921875,0.7781982421875,-0.274658203125
13.7499999,-9.907206535339355,-1.4844050407409668,0.9169792532920837,2.685546875,-0.2593994140625,-1.4190673828125
13.7699999,-9.861717224121094,-1.5945383310317993,0.8092401623725891,1.8310546875,1.5411376953125,-0.7781982421875
13.789999900000002,-9.861717224121094,-1.5466543436050415,0.8355764150619507,0.2899169921875,1.708984375,1.52587890625
13.809999900000001,-9.828198432922363,-1.5203180313110352,0.8164227604866028,1.373291015625,-0.54931640625,3.021240234375
13.8299999,-9.837775230407715,-1.4772224426269531,0.9145850539207458,2.44140625,-2.2430419921875,1.678466796875
13.8499999,-9.830592155456543,-1.4484920501708984,0.9648633003234863,3.11279296875,-2.5787353515625,-0.1678466796875
13.8699999,-9.825803756713867,-1.357512354850769,1.1276689767837524,0.7476806640625,0.396728515625,-0.732421875
13.889999900000001,-9.801861763000488,-1.3527239561080933,1.237802267074585,-4.33349609375,2.4566650390625,0.9918212890625
13.9099999,-9.794678688049316,-1.2210428714752197,1.3527239561080933,-7.049560546875,2.532958984375,2.3651123046875
13.9299999,-9.775525093078613,-1.216254472732544,1.3551181554794312,-5.767822265625,1.46484375,2.288818359375
13.9499999,-9.804255485534668,-1.2976573705673218,1.2497732639312744,-2.25830078125,1.800537109375,0.3814697265625
13.969999900000001,-9.804255485534668,-1.2856862545013428,1.1755530834197998,-1.8768310546875,3.41796875,-1.1138916015625
13.9899999,-9.818621635437012,-1.4389152526855469,0.9888052940368652,-4.21142578125,5.0506591796875,-0.457763671875
14.0099999,-9.864110946655273,-1.4460978507995605,0.933738648891449,-1.3885498046875,3.8909912109375,1.617431640625
14.0299999,-9.871294021606445,-1.4652514457702637,0.8092401623725891,3.4942626953125,0.2288818359375,3.0059814453125
14.049999900000001,-9.9000244140625,-1.460463047027588,0.8403648138046265,5.5389404296875,-1.495361328125,1.007080078125
14.069999900000001,-9.919178009033203,-1.4173674583435059,0.8619126081466675,2.2125244140625,-0.7171630859375,-0.54931640625
14.0899999,-9.90241813659668,-1.3311761617660522,0.9840168952941895,-3.9825439453125,2.2735595703125,0.48828125
14.1099999,-9.876082420349121,-1.3215993642807007,1.0893617868423462,-6.591796875,2.7923583984375,2.0599365234375
14.129999900000001,-9.885659217834473,-1.2521674633026123,1.1420341730117798,-4.1046142578125,1.03759765625,3.0059814453125
14.149999900000001,-9.859322547912598,-1.2952631711959839,1.1300631761550903,-0.3662109375,0.1678466796875,1.1138916015625
14.1699999,-9.864110946655273,-1.3503297567367554,1.0893617868423462,-0.091552734375,0.4425048828125,0.54931640625
14.1899999,-9.837775230407715,-1.278503656387329,1.1420341730117798,-5.7220458984375,3.4637451171875,0.3204345703125
14.209999900000001,-9.84256362915039,-1.3455413579940796,1.1300631761550903,-10.0555419921875,4.913330078125,1.2969970703125
14.229999900000001,-9.801861763000488,-1.2641384601593018,1.1276689767837524,-7.4462890625,4.5623779296875,2.86865234375
14.2499999,-9.80904483795166,-1.2976573705673218,1.05105459690094,-2.2735595703125,2.197265625,2.3193359375
14.2699999,-9.832986831665039,-1.3335703611373901,0.9888052940368652,-0.152587890625,1.03759765625,1.52587890625
14.289999900000002,-9.828198432922363,-1.2186486721038818,0.9816226959228516,-6.317138671875,4.3182373046875,0.091552734375
14.309999900000001,-9.830592155456543,-1.3000515699386597,0.9744400978088379,-11.962890625,5.340576171875,0.3509521484375
14.3299999,-9.880870819091797,-1.2473790645599365,0.9409212470054626,-8.3465576171875,4.241943359375,2.1514892578125
14.3499999,-9.871294021606445,-1.3335703611373901,0.849941611289978,-0.518798828125,0.4730224609375,2.5177001953125
14.3699999,-9.940725326538086,-1.3958195447921753,0.7781155705451965,3.7384033203125,-0.3814697265625,2.197265625
14.389999900000001,-9.880870819091797,-1.3646949529647827,0.8547300100326538,-1.77001953125,2.5634765625,0.9613037109375
14.4099999,-9.876082420349121,-1.3527239561080933,0.8954314589500427,-8.1329345703125,4.5928955078125,1.220703125
14.4299999,-9.873687744140625,-1.2665326595306396,0.9816226959228516,-8.72802734375,4.82177734375,3.0059814453125
14.4499999,-9.821015357971191,-1.2401964664459229,0.8882488012313843,-5.0201416015625,1.6937255859375,3.84521484375
14.469999900000001,-9.890447616577148,-1.2306196689605713,0.828393816947937,-1.5106201171875,-0.2593994140625,2.01416015625
14.4899999,-9.849745750427246,-1.1444283723831177,0.8259995579719543,-5.706787109375,1.40380859375,0.579833984375
14.5099999,-9.847352027893066,-1.1803414821624756,0.8020575642585754,-12.8173828125,4.119873046875,-0.9918212890625
14.5299999,-9.897629737854004,-1.1109095811843872,0.8523358106613159,-11.0931396484375,4.669189453125,0.3509521484375
14.549999900000001,-9.911994934082031,-1.213860273361206,0.7589619159698486,-2.410888671875,1.983642578125,2.5177001953125
14.569999900000001,-9.983820915222168,-1.292868971824646,0.689530074596405,4.8828125,-0.9765625,1.40380859375
14.5899999,-10.014945983886719,-1.3527239561080933,0.6512228846549988,4.6234130859375,-0.48828125,1.3885498046875
14.6099999,-9.971850395202637,-1.3982137441635132,0.6727706789970398,-0.396728515625,2.227783203125,-1.007080078125
14.629999900000001,-9.93354320526123,-1.3024457693099976,0.7613561153411865,-4.33349609375,2.4566650390625,-0.06103515625
14.649999900000001,-9.9000244140625,-1.2497732639312744,0.7852981686592102,-3.0059814453125,1.89208984375,2.2125244140625
14.6699999,-9.823410034179688,-1.1779472827911377,0.7613561153411865,2.9449462890625,-1.8463134765625,0.244140625
14.6899999,-9.86889934539795,-1.1420341730117798,0.7637503147125244,4.180908203125,-2.0751953125,-0.3814697265625
14.709999900000001,-9.837775230407715,-1.1324573755264282,0.7254431247711182,-0.152587890625,0.67138671875,-3.0670166015625
14.729999900000001,-9.859322547912598,-1.1037269830703735,0.7924807667732239,-3.082275390625,0.8697509765625,-1.8463134765625
14.7499999,-9.911994934082031,-1.1252747774124146,0.8212111592292786,-2.9754638671875,1.8768310546875,1.2969970703125
14.7699999,-9.835380554199219,-1.194706678390503,0.8451532125473022,1.4495849609375,-0.640869140625,0.7171630859375
14.789999900000002,-9.888052940368652,-1.2258312702178955,0.8882488012313843,3.4942626953125,-1.40380859375,0.213623046875
14.809999900000001,-9.823410034179688,-1.259350061416626,0.9361328482627869,-2.044677734375,1.434326171875,-1.28173828125
14.8299999,-9.78989028930664,-1.2306196689605713,0.9624691009521484,-6.805419921875,2.3193359375,-1.495361328125
14.8499999,-9.859322547912598,-1.2186486721038818,0.9409212470054626,-6.2408447265625,3.326416015625,1.4801025390625
14.8699999,-9.84495735168457,-1.2761094570159912,0.8164227604866028,-0.335693359375,0.6561279296875,1.5106201171875
14.889999900000001,-9.943120002746582,-1.3000515699386597,0.6967126727104187,5.5694580078125,-2.288818359375,-0.335693359375
14.9099999,-9.921571731567383,-1.3048399686813354,0.6967126727104187,2.593994140625,0.2288818359375,-0.0457763671875
14.9299999,-9.8784761428833,-1.2521674633026123,0.751779317855835,-2.9296875,1.9073486328125,-2.2430419921875
14.9499999,-9.909601211547852,-1.173158884048462,0.8475474119186401,-5.5084228515625,1.9073486328125,0.1678466796875
14.969999900000001,-9.9000244140625,-1.2641384601593018,0.8212111592292786,-3.5247802734375,1.434326171875,2.166748046875
14.9899999,-9.988609313964844,-1.3239935636520386,0.7254431247711182,4.69970703125,-0.732421875,0.67138671875
15.0099999,-9.897629737854004,-1.2425906658172607,0.7589619159698486,-0.6256103515625,1.2054443359375,-2.4261474609375
15.0299999,-9.904812812805176,-1.1109095811843872,0.8523358106613159,-4.57763671875,0.762939453125,-1.03759765625
15.049999900000001,-9.840168952941895,-1.1180921792984009,0.8619126081466675,-4.4708251953125,1.556396484375,1.7852783203125
15.069999900000001,-9.80904483795166,-1.1276689767837524,0.7805097699165344,2.8839111328125,-2.8076171875,-1.007080078125
15.0899999,-9.86889934539795,-1.2737152576446533,0.7398083209991455,8.758544921875,-3.4332275390625,-0.9307861328125
15.1099999,-9.861717224121094,-1.357512354850769,0.7015010714530945,5.8135986328125,0.2288818359375,-1.983642578125
15.129999900000001,-9.864110946655273,-1.2713210582733154,0.811634361743927,-0.0457763671875,-1.251220703125,-0.9307861328125
15.149999900000001,-9.90241813659668,-1.2665326595306396,0.9097966551780701,-6.0577392578125,1.4801025390625,2.655029296875
15.1699999,-9.885659217834473,-1.173158884048462,0.9911994934082031,-3.8909912109375,0.640869140625,0.823974609375
15.1899999,-9.854534149169922,-1.1755530834197998,1.039083480834961,2.3193359375,-1.9989013671875,-0.518798828125
15.209999900000001,-9.904812812805176,-1.216254472732544,1.0773907899856567,0.6561279296875,2.227783203125,0.946044921875
15.229999900000001,-9.768342971801758,-1.1228805780410767,1.1109095811843872,-6.1492919921875,3.1280517578125,-1.4495849609375
15.2499999,-9.821015357971191,-1.1324573755264282,1.094150185585022,-10.6353759765625,4.6844482421875,0.9918212890625
15.2699999,-9.785101890563965,-1.094150185585022,0.9744400978088379,-6.072998046875,4.1656494140625,1.1444091796875
15.289999900000002,-9.787496566772461,-1.1348515748977661,0.7805097699165344,2.899169921875,-0.457763671875,-1.46484375
15.309999900000001,-9.945513725280762,-1.2090718746185303,0.6536170840263367,2.6397705078125,1.007080078125,0.9918212890625
15.3299999,-9.976638793945312,-1.2234370708465576,0.5339069962501526,-5.615234375,3.1585693359375,-3.753662109375
15.3499999,-10.067618370056152,-1.2282254695892334,0.5291185975074768,-6.28662109375,1.1138916015625,-3.5858154296875
15.3699999,-10.077195167541504,-1.2880805730819702,0.49799394607543945,0.213623046875,0.457763671875,0.7476806640625
15.389999900000001,-10.036493301391602,-1.381454348564148,0.4812345504760742,10.6201171875,-3.8299560546875,-1.6937255859375
15.4099999,-10.065223693847656,-1.4269442558288574,0.5195417404174805,13.6871337890625,-5.4931640625,-1.9378662109375
15.4299999,-9.928754806518555,-1.4293384552001953,0.6560112833976746,8.9874267578125,-1.4190673828125,-1.46484375
15.4499999,-9.876082420349121,-1.2066776752471924,0.9409212470054626,-0.30517578125,-2.3956298828125,-0.9765625
15.469999900000001,-9.799467086791992,-1.1755530834197998,1.139639973640442,-14.0228271484375,1.373291015625,3.3416748046875
15.4899999,-9.744400978088379,-1.0558429956436157,1.292868971824646,-10.9710693359375,2.227783203125,-0.18310546875
15.5099999,-9.68933391571045,-1.0414776802062988,1.2976573705673218,-2.471923828125,-0.8392333984375,-2.1209716796875
15.5299999,-9.744400978088379,-1.1420341730117798,1.216254472732544,-4.7607421875,3.3416748046875,1.77001953125
15.549999900000001,-9.758766174316406,-1.1300631761550903,1.0965443849563599,-9.5977783203125,4.852294921875,-0.9307861328125
15.569999900000001,-9.873687744140625,-1.2713210582733154,0.9481038451194763,-6.103515625,2.8839111328125,1.1749267578125
15.5899999,-9.909601211547852,-1.259350061416626,0.7326257228851318,1.8310546875,1.8157958984375,0.6561279296875
15.6099999,-10.012551307678223,-1.3215993642807007,0.5770025849342346,8.23974609375,-1.312255859375,-1.8463134765625
15.629999900000001,-10.043676376342773,-1.278503656387329,0.545877993106842,3.0364990234375,-0.42724609375,-1.2054443359375
15.649999900000001,-9.964667320251465,-1.137245774269104,0.6177040338516235,-5.5694580078125,2.6092529296875,-5.4779052734375
15.6699999,-9.926360130310059,-1.1779472827911377,0.7398083209991455,-5.5084228515625,1.03759765625,-3.8909912109375
15.6899999,-9.890447616577148,-1.2617442607879639,0.7086837291717529,0.0457763671875,-0.4119873046875,2.166748046875
15.709999900000001,-9.854534149169922,-1.3527239561080933,0.7230489253997803,10.55908203125,-2.86865234375,-2.1820068359375
15.729999900000001,-9.880870819091797,-1.436521053314209,0.7086837291717529,7.87353515625,-3.6163330078125,-1.8157958984375
15.7499999,-9.823410034179688,-1.3718775510787964,0.8547300100326538,-2.349853515625,1.434326171875,-0.4730224609375
15.7699999,-9.84495735168457,-1.37906014919281,0.993593692779541,-4.364013671875,1.0528564453125,-0.030517578125
15.789999900000002,-9.856928825378418,-1.3742717504501343,1.0678139925003052,-2.9144287109375,0.0457763671875,3.72314453125
15.809999900000001,-9.782708168029785,-1.4628572463989258,0.9361328482627869,3.6468505859375,0.091552734375,-0.1068115234375
15.8299999,-9.835380554199219,-1.400607943534851,0.8906430602073669,7.904052734375,-1.0223388671875,1.6632080078125
15.8499999,-9.84495735168457,-1.3623007535934448,0.8978256583213806,-1.40380859375,1.89208984375,2.7313232421875
15.869999900000002,-9.871294021606445,-1.1228805780410767,0.9720458984375,-13.6871337890625,2.74658203125,-1.9378662109375
15.889999900000001,-9.964667320251465,-1.0079588890075684,1.1085153818130493,-14.862060546875,3.9825439453125,0.1068115234375
15.9099999,-9.981427192687988,-1.0438719987869263,1.015141487121582,-6.7138671875,2.5634765625,0.946044921875
15.9299999,-10.06043529510498,-1.094150185585022,0.912190854549408,2.74658203125,-0.213623046875,-2.1820068359375
15.9499999,-10.012551307678223,-1.2401964664459229,0.8307880163192749,0.3509521484375,2.13623046875,-0.5950927734375
15.969999900000001,-9.871294021606445,-1.256955862045288,0.7374141216278076,-7.3394775390625,4.7454833984375,-3.692626953125
15.9899999,-9.828198432922363,-1.2521674633026123,0.7924807667732239,-4.6234130859375,3.6468505859375,-0.823974609375
16.0099999,-9.746794700622559,-1.3335703611373901,0.6631938815116882,2.9449462890625,0.0457763671875,2.0294189453125
16.0299999,-9.677363395690918,-1.2306196689605713,0.6200982332229614,9.521484375,-1.15966796875,-5.0811767578125
16.0499999,-9.737217903137207,-1.3263877630233765,0.5889736413955688,7.171630859375,0.2288818359375,-0.8697509765625
16.0699999,-9.852140426635742,-1.2497732639312744,0.7326257228851318,-4.94384765625,2.288818359375,-0.2899169921875
16.089999900000002,-9.861717224121094,-1.216254472732544,0.9528923034667969,-12.939453125,2.50244140625,-2.4871826171875
16.109999900000002,-9.981427192687988,-1.256955862045288,1.0678139925003052,-10.6353759765625,2.716064453125,1.28173828125
16.1299999,-9.859322547912598,-1.3048399686813354,1.0055646896362305,-2.7313232421875,1.15966796875,-2.655029296875
16.1499999,-9.950302124023438,-1.4053963422775269,0.950498104095459,-1.5106201171875,0.4425048828125,-0.579833984375
16.1699999,-9.911994934082031,-1.3934253454208374,0.7996633648872375,-9.857177734375,2.3193359375,1.983642578125
16.1899999,-9.86889934539795,-1.3455413579940796,0.7374141216278076,-12.7410888671875,2.5634765625,-4.08935546875
16.2099999,-9.931148529052734,-1.2856862545013428,0.6631938815116882,-4.150390625,1.129150390625,0.762939453125
16.2299999,-10.02691650390625,-1.3407529592514038,0.5434837937355042,6.16455078125,-1.6937255859375,-0.0762939453125
16.249999900000002,-9.959878921508789,-1.3551181554794312,0.38067805767059326,11.16943359375,-4.1656494140625,-4.364013671875
16.269999900000002,-10.105925559997559,-1.3766659498214722,0.47165772318840027,9.7808837890625,-2.62451171875,1.1749267578125
16.2899999,-9.859322547912598,-1.2425906658172607,0.6799532771110535,-1.0986328125,-1.739501953125,-2.716064453125
16.3099999,-9.84256362915039,-1.194706678390503,0.8882488012313843,-15.289306640625,0.4730224609375,0.2288818359375
16.3299999,-9.66539192199707,-1.1683704853057861,1.0247182846069336,-13.7176513671875,-0.640869140625,1.495361328125
16.3499999,-9.564835548400879,-1.2330138683319092,1.0103530883789062,0.1983642578125,-1.861572265625,-4.5013427734375
16.3699999,-9.703699111938477,-1.3527239561080933,0.933738648891449,1.2969970703125,-0.0762939453125,1.220703125
16.3899999,-9.720458984375,-1.436521053314209,0.8906430602073669,-9.27734375,1.495361328125,1.8463134765625
16.4099999,-9.93593692779541,-1.4293384552001953,0.8930372595787048,-11.7645263671875,0.7476806640625,-1.03759765625
16.429999900000002,-10.036493301391602,-1.5538369417190552,0.7230489253997803,-2.7313232421875,-0.152587890625,3.0059814453125
16.4499999,-10.11789608001709,-1.6041151285171509,0.6320692300796509,10.2691650390625,-1.64794921875,-1.40380859375
16.4699999,-10.204087257385254,-1.6089035272598267,0.47405192255973816,11.6119384765625,-3.631591796875,-2.4261474609375
16.4899999,-10.053253173828125,-1.45806884765625,0.6153098344802856,2.5482177734375,-2.38037109375,1.5869140625
16.5099999,-9.861717224121094,-1.0989385843276978,0.8379706144332886,-7.6141357421875,-1.7852783203125,-3.4027099609375
16.5299999,-9.770736694335938,-1.0582371950149536,0.993593692779541,-15.472412109375,0.54931640625,1.2054443359375
16.5499999,-9.634267807006836,-0.9361328482627869,1.1348515748977661,-10.8642578125,1.0223388671875,-2.25830078125
16.5699999,-9.610325813293457,-1.0630255937576294,1.0797849893569946,-2.86865234375,-0.4730224609375,-6.378173828125
16.589999900000002,-9.746794700622559,-1.2497732639312744,1.048660397529602,-7.0648193359375,2.716064453125,2.4566650390625
16.609999900000002,-9.849745750427246,-1.381454348564148,0.9672574996948242,-12.603759765625,3.448486328125,0.1983642578125
16.6299999,-10.007762908935547,-1.5873557329177856,0.8403648138046265,-8.97216796875,0.5035400390625,1.5716552734375
16.6499999,-10.079588890075684,-1.6400281190872192,0.6655880808830261,-1.0986328125,-1.4495849609375,2.6702880859375
16.6699999,-10.002974510192871,-1.6974890232086182,0.47644615173339844,5.9356689453125,-2.838134765625,-1.251220703125
16.6899999,-10.019734382629395,-1.5083470344543457,0.5482721924781799,1.2359619140625,-3.1280517578125,1.8463134765625
16.7099999,-9.823410034179688,-1.381454348564148,0.6344634294509888,-8.1634521484375,-2.6397705078125,1.007080078125
16.7299999,-9.749189376831055,-1.0534487962722778,0.8786720037460327,-15.899658203125,-2.1209716796875,-2.532958984375
16.749999900000002,-9.751583099365234,-1.1563993692398071,0.9552865028381348,-15.777587890625,-1.5106201171875,3.997802734375
16.769999900000002,-9.8784761428833,-1.2521674633026123,0.9648633003234863,-2.410888671875,0,-1.4495849609375
16.7899999,-9.983820915222168,-1.3311761617660522,0.9720458984375,5.06591796875,-0.06103515625,-3.936767578125
16.8099999,-10.065223693847656,-1.580173134803772,0.9145850539207458,1.0223388671875,2.3651123046875,2.7923583984375
16.8299999,-10.02691650390625,-1.414973258972168,0.9576807022094727,-1.3885498046875,1.89208984375,-0.6866455078125
16.8499999,-9.93593692779541,-1.436521053314209,0.9169792532920837,-2.7008056640625,0.1983642578125,1.5106201171875
16.8699999,-9.768342971801758,-1.2497732639312744,0.8738836050033569,-1.6937255859375,-0.030517578125,-2.3651123046875
16.8899999,-9.521739959716797,-1.048660397529602,0.9097966551780701,-0.701904296875,0.3662109375,-5.584716796875
16.9099999,-9.670180320739746,-1.161187767982483,0.8643068075180054,-6.378173828125,2.01416015625,0.79345703125
16.929999900000002,-9.59835433959961,-1.0678139925003052,0.8978256583213806,-9.124755859375,0.79345703125,-2.74658203125
16.9499999,-9.880870819091797,-1.3623007535934448,0.8092401623725891,-6.3629150390625,-0.30517578125,-2.0904541015625
16.9699999,-10.034099578857422,-1.5634137392044067,0.7206547260284424,-2.0751953125,-1.1138916015625,1.5869140625
16.9899999,-10.036493301391602,-1.7310078144073486,0.6584054827690125,5.6915283203125,-0.1068115234375,-1.52587890625
17.0099999,-10.127472877502441,-1.800439715385437,0.7015010714530945,6.561279296875,-0.2593994140625,0.7781982421875
17.0299999,-9.931148529052734,-1.6184803247451782,0.811634361743927,-2.44140625,-0.1220703125,0.335693359375
17.0499999,-9.8784761428833,-1.381454348564148,0.9792284965515137,-9.5977783203125,1.28173828125,-1.4801025390625
17.0699999,-9.823410034179688,-1.3335703611373901,0.9864110946655273,-6.6375732421875,-0.7781982421875,4.0130615234375
17.089999900000002,-9.751583099365234,-1.2258312702178955,1.0079588890075684,4.9896240234375,-0.79345703125,-1.922607421875
17.109999900000002,-9.854534149169922,-1.256955862045288,0.8834604024887085,5.92041015625,-0.67138671875,-3.6163330078125
17.1299999,-9.885659217834473,-1.3072341680526733,0.9097966551780701,-2.5634765625,-0.396728515625,2.685546875
17.1499999,-10.007762908935547,-1.2114660739898682,0.9433154463768005,-9.8724365234375,0.2288818359375,-0.79345703125
17.1699999,-9.945513725280762,-1.278503656387329,0.9864110946655273,-11.53564453125,-0.3509521484375,0.885009765625
17.1899999,-9.86650562286377,-1.3623007535934448,0.9241618514060974,-4.3487548828125,0.06103515625,-2.5177001953125
17.2099999,-9.691728591918945,-1.4317326545715332,0.8762778043746948,5.9661865234375,-0.18310546875,-2.7618408203125
17.2299999,-9.758766174316406,-1.501164436340332,0.8858546018600464,0.30517578125,-0.030517578125,3.3111572265625
17.249999900000002,-9.648633003234863,-1.3311761617660522,0.9911994934082031,-17.6544189453125,2.2735595703125,0.4730224609375
17.269999900000002,-9.780313491821289,-1.3096283674240112,1.072602391242981,-22.5372314453125,4.119873046875,0.42724609375
17.2899999,-9.90241813659668,-1.436521053314209,0.9768342971801758,-10.650634765625,2.5787353515625,1.983642578125
17.3099999,-10.014945983886719,-1.6352397203445435,0.8044517636299133,9.521484375,0.701904296875,-0.79345703125
17.3299999,-10.122684478759766,-1.7549498081207275,0.5817909836769104,14.190673828125,-0.42724609375,3.082275390625
17.3499999,-10.041281700134277,-1.7262194156646729,0.5123591423034668,5.889892578125,-0.91552734375,3.90625
17.3699999,-9.979032516479492,-1.3838485479354858,0.6703764796257019,-0.5645751953125,0.4119873046875,0.823974609375
17.3899999,-9.921571731567383,-1.2737152576446533,0.7230489253997803,-3.72314453125,-0.8087158203125,2.288818359375
17.409999900000003,-9.639056205749512,-0.9768342971801758,0.8930372595787048,-0.54931640625,-0.4730224609375,-3.0364990234375
17.429999900000002,-9.6989107131958,-1.0007762908935547,0.9648633003234863,1.739501953125,1.3275146484375,-2.166748046875
17.4499999,-9.634267807006836,-1.048660397529602,1.0534487962722778,-6.4544677734375,1.7852783203125,1.312255859375
17.4699999,-9.727641105651855,-1.072602391242981,1.1252747774124146,-15.1214599609375,2.99072265625,-1.64794921875
17.4899999,-9.852140426635742,-1.3024457693099976,1.070208191871643,-11.993408203125,1.5411376953125,0.5340576171875
17.5099999,-9.909601211547852,-1.479616641998291,0.9050082564353943,-0.9918212890625,0.823974609375,-0.79345703125
17.5299999,-9.947908401489258,-1.699883222579956,0.706289529800415,8.8043212890625,1.9378662109375,-0.5645751953125
17.5499999,-9.909601211547852,-1.6687586307525635,0.6512228846549988,7.01904296875,0.518798828125,3.84521484375
17.5699999,-9.837775230407715,-1.5538369417190552,0.6847416758537292,-3.7078857421875,0.6256103515625,0.9307861328125
17.589999900000002,-9.832986831665039,-1.2545616626739502,0.8379706144332886,-12.4969482421875,1.800537109375,1.5716552734375
17.609999900000002,-9.8784761428833,-1.1875240802764893,0.8403648138046265,-13.8397216796875,0.54931640625,0.946044921875
17.6299999,-9.962273597717285,-1.0749965906143188,0.7781155705451965,-2.8533935546875,-1.007080078125,-5.55419921875
17.6499999,-10.034099578857422,-1.048660397529602,0.8451532125473022,1.312255859375,-1.617431640625,-2.25830078125
17.6699999,-10.010157585144043,-1.1204863786697388,0.8571242094039917,-12.26806640625,0.48828125,-0.1678466796875
17.6899999,-9.971850395202637,-1.2186486721038818,0.9983820915222168,-20.0958251953125,3.0059814453125,-1.617431640625
17.7099999,-9.876082420349121,-1.4939818382263184,0.8882488012313843,-8.4686279296875,0.762939453125,-0.1983642578125
17.7299999,-9.744400978088379,-1.8339585065841675,0.7182605266571045,11.6729736328125,0.2899169921875,-1.1749267578125
17.749999900000002,-9.708487510681152,-2.0614075660705566,0.4668693244457245,22.9644775390625,0.579833984375,3.8909912109375
17.769999900000002,-9.6989107131958,-2.0015525817871094,0.4572925269603729,20.2178955078125,-1.556396484375,9.429931640625
17.7899999,-9.761159896850586,-1.6184803247451782,0.7110779285430908,4.6844482421875,0.0762939453125,4.638671875
17.8099999,-9.859322547912598,-1.2042834758758545,0.9289502501487732,-11.3067626953125,2.1820068359375,2.6702880859375
17.8299999,-9.938331604003906,-0.849941611289978,1.113303780555725,-15.1519775390625,1.64794921875,-1.617431640625
17.8499999,-10.053253173828125,-0.7469909191131592,1.1061211824417114,-10.8642578125,1.861572265625,-5.7525634765625
17.8699999,-10.038887977600098,-0.768538773059845,1.0462661981582642,-10.8795166015625,1.2664794921875,-1.9989013671875
17.8899999,-9.96945571899414,-0.9074024558067322,0.9792284965515137,-18.768310546875,3.0975341796875,-3.265380859375
17.909999900000003,-9.93593692779541,-1.1468225717544556,0.9289502501487732,-15.2587890625,3.4027099609375,-2.62451171875
17.929999900000002,-9.873687744140625,-1.4293384552001953,0.811634361743927,-4.21142578125,2.0904541015625,-1.953125
17.9499999,-9.739612579345703,-1.6687586307525635,0.6607996821403503,4.94384765625,2.9754638671875,-5.1116943359375
17.9699999,-9.849745750427246,-1.7166426181793213,0.5674257874488831,8.97216796875,2.6092529296875,-1.129150390625
17.9899999,-9.77791976928711,-1.6927006244659424,0.5793967843055725,1.434326171875,1.3427734375,1.3275146484375
18.0099999,-9.86889934539795,-1.359906554222107,0.8188169598579407,-11.6424560546875,1.52587890625,-0.8697509765625
18.0299999,-9.856928825378418,-1.3239935636520386,0.9026140570640564,-25.6805419921875,2.2430419921875,0.3814697265625
18.0499999,-9.818621635437012,-1.2497732639312744,1.0797849893569946,-25.299072265625,3.021240234375,-1.739501953125
18.0699999,-9.818621635437012,-1.2665326595306396,1.235408067703247,-23.0712890625,4.7454833984375,0.2288818359375
18.089999900000002,-9.576807022094727,-0.7326257228851318,1.9321208000183105,-55.7708740234375,6.0882568359375,8.453369140625
18.109999900000002,-8.604761123657227,0.11971008777618408,3.098097085952759,-155.975341796875,18.9361572265625,9.9639892578125
18.1299999,-6.799532890319824,1.4652514457702637,3.8522706031799316,-276.2908935546875,49.0875244140625,21.66748046875
18.1499999,-4.999093055725098,1.5394717454910278,3.6128504276275635,-274.3377685546875,73.6846923828125,25.3448486328125
18.1699999,-3.821146011352539,0.7589619159698486,1.9129672050476074,-153.350830078125,68.359375,4.39453125
18.1899999,-4.747702121734619,-1.3048399686813354,-0.706289529800415,-53.3905029296875,62.7593994140625,19.47021484375
18.2099999,-7.544129371643066,-3.3901896476745605,-3.3925838470458984,-18.280029296875,50.4150390625,54.2449951171875
18.2299999,-11.896788597106934,-3.9456443786621094,-5.2911858558654785,-44.3267822265625,23.4832763671875,77.0721435546875
18.249999900000002,-16.244659423828125,-2.7533318996429443,-6.030993938446045,-90.7135009765625,-22.064208984375,68.328857421875
18.269999900000002,-18.27972984313965,0.004788403399288654,-4.434061527252197,-176.6815185546875,-68.78662109375,14.190673828125
18.2899999,-17.523162841796875,1.8770540952682495,-2.8802247047424316,-322.4639892578125,-36.895751953125,-4.8065185546875
18.3099999,-14.575900077819824,1.7046716213226318,-1.5538369417190552,-302.642822265625,10.406494140625,7.6751708984375
18.3299999,-10.769119262695312,0.11971008777618408,-0.8475474119186401,-66.650390625,-5.4779052734375,23.712158203125
18.3499999,-8.530540466308594,-1.6400281190872192,-0.689530074596405,89.35546875,-41.7633056640625,54.107666015625
18.3699999,-8.015787124633789,-2.4013843536376953,-0.8547300100326538,45.013427734375,-9.70458984375,25.2227783203125
18.3899999,-8.391676902770996,-0.9576807022094727,0.2968810200691223,24.627685546875,4.5013427734375,-21.1639404296875
18.409999900000003,-8.530540466308594,0.5626373887062073,0.524330198764801,8.1024169921875,3.6468505859375,-35.33935546875
18.429999900000002,-8.456320762634277,1.4197616577148438,0.3734954595565796,-10.7269287109375,18.4783935546875,-30.548095703125
18.4499999,-8.216899871826172,1.335964560508728,-0.30885201692581177,-0.9765625,23.773193359375,-15.716552734375
18.4699999,-8.293514251708984,0.6248866319656372,-0.9792284965515137,16.448974609375,8.3770751953125,-2.777099609375
18.4899999,-8.803479194641113,-0.07900865375995636,-1.50355863571167,18.0206298828125,-9.5672607421875,4.0130615234375
18.5099999,-9.457097053527832,-0.3711012601852417,-1.7310078144073486,11.1236572265625,-13.36669921875,-2.105712890625
18.5299999,-10.029311180114746,-0.30885201692581177,-1.7094600200653076,9.2010498046875,-10.4217529296875,-15.7928466796875
18.5499999,-10.505757331848145,-0.19871874153614044,-1.5322890281677246,8.087158203125,-9.82666015625,-27.64892578125
18.5699999,-10.81460952758789,-0.5171475410461426,-0.6871358752250671,-2.777099609375,-13.3209228515625,-13.8702392578125
18.589999900000002,-10.651803016662598,-0.8164227604866028,-0.0933738648891449,-12.5274658203125,-2.86865234375,-8.9263916015625
18.609999900000002,-10.235212326049805,-1.0295066833496094,0.4620809257030487,-7.8277587890625,7.6904296875,-6.3018798828125
18.6299999,-9.919178009033203,-1.05105459690094,0.7206547260284424,-2.8533935546875,14.556884765625,-4.669189453125
18.6499999,-9.703699111938477,-0.9648633003234863,0.5841852426528931,-2.716064453125,15.869140625,-7.6446533203125
18.6699999,-9.62947940826416,-0.8044517636299133,0.05746084079146385,-1.983642578125,9.1400146484375,-9.9945068359375
18.6899999,-9.610325813293457,-0.6727706789970398,-0.5913678407669067,-0.2288818359375,-1.3580322265625,-7.50732421875
18.7099999,-9.545681953430176,-0.6272808313369751,-1.1420341730117798,1.40380859375,-7.99560546875,-3.997802734375
18.7299999,-9.493009567260742,-0.5961562395095825,-1.3646949529647827,1.7547607421875,-10.101318359375,-4.6844482421875
18.749999900000002,-9.5408935546875,-0.5147533416748047,-1.235408067703247,-0.518798828125,-10.43701171875,-9.8724365234375
18.769999900000002,-9.725247383117676,-0.4405331015586853,-0.933738648891449,-2.99072265625,-9.4146728515625,-15.0604248046875
18.7899999,-10.14902114868164,-0.3280056416988373,-0.4908113479614258,-2.99072265625,-8.9874267578125,-19.0887451171875
18.8099999,-10.469843864440918,-0.44771572947502136,-0.181959331035614,-4.57763671875,-6.378173828125,-25.7415771484375
18.8299999,-10.781089782714844,-0.6536170840263367,0.13407529890537262,-5.0506591796875,-2.4566650390625,-25.7415771484375
18.8499999,-10.831368446350098,-1.0199298858642578,0.33758243918418884,-6.9122314453125,2.9449462890625,-17.5323486328125
18.8699999,-10.666168212890625,-1.3479355573654175,0.4572925269603729,-8.5906982421875,7.6446533203125,-12.6495361328125
18.8899999,-10.400412559509277,-1.6496049165725708,0.395043283700943,-4.8980712890625,10.8795166015625,-10.8184814453125
18.909999900000003,-10.144232749938965,-1.7166426181793213,0.2992752194404602,-3.23486328125,11.71875,-6.6070556640625
18.929999900000002,-9.947908401489258,-1.7334020137786865,0.021547814831137657,-2.5787353515625,13.7939453125,-5.9051513671875
18.9499999,-9.80904483795166,-1.6304513216018677,-0.31603461503982544,-2.62451171875,12.451171875,-5.218505859375
18.9699999,-9.813833236694336,-1.522712230682373,-0.6943184733390808,-8.575439453125,5.6304931640625,-3.936767578125
18.9899999,-9.86889934539795,-1.2641384601593018,-0.9744400978088379,-13.275146484375,-1.007080078125,-2.2735595703125
19.0099999,-9.952696800231934,-0.9888052940368652,-1.292868971824646,-4.6844482421875,-3.35693359375,-10.1318359375
19.0299999,-10.029311180114746,-0.6488286852836609,-1.2880805730819702,16.510009765625,-8.1939697265625,-26.18408203125
19.0499999,-9.890447616577148,-0.37828385829925537,-1.1324573755264282,17.974853515625,-9.0484619140625,-33.69140625
19.0699999,-9.624691009521484,-0.395043283700943,-0.8044517636299133,0.3662109375,8.209228515625,-36.2091064453125
19.089999900000002,-9.313444137573242,-0.730231523513794,-0.4141969084739685,-8.4686279296875,25.2685546875,-34.97314453125
19.109999900000002,-9.184157371520996,-1.482010841369629,-0.2753331959247589,-8.8043212890625,21.7437744140625,-27.801513671875
19.1299999,-9.21288776397705,-2.4229321479797363,-0.37828385829925537,5.1422119140625,-2.838134765625,-13.5650634765625
19.1499999,-9.5408935546875,-3.354276657104492,-0.7110779285430908,7.2784423828125,-19.47021484375,9.1705322265625
19.1699999,-10.036493301391602,-3.995922565460205,-1.1899182796478271,-1.5106201171875,-25.4364013671875,25.8941650390625
19.1899999,-10.623072624206543,-4.015076160430908,-1.45806884765625,4.7454833984375,-35.430908203125,33.7982177734375
19.2099999,-11.099518775939941,-3.5170822143554688,-1.5298948287963867,11.2762451171875,-40.2069091796875,29.9835205078125
19.2299999,-11.26950740814209,-2.7461493015289307,-1.2952631711959839,9.7503662109375,-41.6259765625,23.9105224609375
19.249999900000002,-10.989385604858398,-1.8267759084701538,-0.6200982332229614,7.7362060546875,-38.330078125,21.5301513671875
19.269999900000002,-10.347740173339844,-1.1276689767837524,0.19393034279346466,2.838134765625,-26.2908935546875,21.2249755859375
19.2899999,-9.6989107131958,-0.6368576288223267,1.0319008827209473,0.0457763671875,-10.8184814453125,15.777587890625
19.3099999,-9.23443603515625,-0.3423708379268646,1.5921441316604614,1.03759765625,-0.48828125,8.11767578125
19.3299999,-9.002198219299316,-0.2537853717803955,1.8315643072128296,-1.2664794921875,4.730224609375,2.50244140625
19.3499999,-9.093177795410156,-0.33518823981285095,1.7142484188079834,-7.0037841796875,10.101318359375,1.77001953125
19.3699999,-9.299078941345215,-0.7781155705451965,1.094150185585022,5.43212890625,13.5498046875,-2.9144287109375
19.3899999,-9.677363395690918,-1.3646949529647827,0.22026655077934265,46.1883544921875,3.5552978515625,-5.279541015625
19.409999900000003,-10.24000072479248,-2.365471363067627,-1.4748282432556152,100.006103515625,-8.9874267578125,-3.35693359375
19.429999900000002,-10.955866813659668,-2.808398485183716,-2.650381326675415,186.7218017578125,-39.5355224609375,-2.7618408203125
19.4499999,-11.824962615966797,-2.734178304672241,-3.224989652633667,219.3756103515625,-51.1474609375,-7.3394775390625
19.4699999,-13.227964401245117,-1.7884687185287476,-2.6815059185028076,172.30224609375,-41.7938232421875,-18.12744140625
19.4899999,-13.934253692626953,-0.5027823448181152,-1.05105459690094,109.8785400390625,-36.2091064453125,-28.62548828125
19.5099999,-14.183250427246094,0.8523358106613159,1.0223240852355957,57.9071044921875,-31.2652587890625,-22.03369140625
19.5299999,-13.347674369812012,1.338358759880066,2.650381326675415,11.8408203125,-17.15087890625,-26.885986328125
19.5499999,-11.8225679397583,1.1994950771331787,3.6750996112823486,-4.302978515625,-2.8533935546875,-30.731201171875
19.5699999,-10.254365921020508,0.28969839215278625,3.711012601852417,12.5885009765625,5.2490234375,-29.0679931640625
19.589999900000002,-8.762778282165527,-0.8188169598579407,3.0119056701660156,49.3316650390625,1.28173828125,-25.0091552734375
19.609999900000002,-7.797914981842041,-1.6615760326385498,2.250549554824829,70.220947265625,-4.57763671875,-9.033203125
19.6299999,-7.196970462799072,-1.9584569931030273,1.9057846069335938,54.107666015625,-4.7607421875,-4.9896240234375
19.6499999,-7.010222434997559,-1.699883222579956,2.1547815799713135,8.636474609375,-9.063720703125,-4.1046142578125
19.6699999,-7.33583402633667,-1.3048399686813354,2.8586769104003906,-24.5513916015625,-0.2593994140625,-4.302978515625
19.6899999,-7.836222171783447,-0.9145850539207458,3.399766445159912,-43.609619140625,11.4288330078125,-0.4425048828125
19.7099999,-8.468291282653809,-0.9624691009521484,3.3925838470458984,-45.0592041015625,9.94873046875,3.4637451171875
19.7299999,-9.071630477905273,-1.1994950771331787,2.853888511657715,-18.402099609375,-3.5552978515625,-0.9918212890625
19.749999900000002,-9.622296333312988,-1.6615760326385498,1.886630892753601,17.39501953125,-16.4947509765625,-7.8125
19.769999900000002,-9.988609313964844,-2.1116859912872314,0.9097966551780701,41.8701171875,-19.7906494140625,-10.8489990234375
19.7899999,-10.129867553710938,-2.3487119674682617,0.2753331959247589,53.2073974609375,-19.9432373046875,-6.5155029296875
19.8099999,-10.079588890075684,-2.3367409706115723,0.1149216815829277,49.6368408203125,-14.58740234375,-2.99072265625
19.8299999,-9.919178009033203,-2.126051187515259,0.3495534360408783,33.99658203125,2.899169921875,-7.354736328125
19.8499999,-9.730035781860352,-1.8339585065841675,0.7422025203704834,17.669677734375,26.67236328125,-15.716552734375
19.8699999,-9.545681953430176,-1.5658079385757446,1.0438719987869263,9.002685546875,41.168212890625,-20.5078125
19.8899999,-9.35654067993164,-1.4269442558288574,1.091755986213684,7.7056884765625,42.05322265625,-17.7154541015625
19.909999900000003,-9.210494041442871,-1.414973258972168,0.8930372595787048,7.476806640625,36.7279052734375,-7.1868896484375
19.929999900000002,-9.114726066589355,-1.5059528350830078,0.5482721924781799,10.7421875,32.8369140625,2.8228759765625
19.9499999,-9.121908187866211,-1.6280571222305298,0.19153612852096558,13.7786865234375,30.7464599609375,2.38037109375
19.9699999,-9.241618156433105,-1.7357962131500244,-0.09576806426048279,15.655517578125,33.14208984375,-7.415771484375
19.9899999,-9.440337181091309,-1.8171991109848022,-0.3016694188117981,19.4244384765625,34.0728759765625,-16.876220703125
20.0099999,-9.588777542114258,-1.8914192914962769,-0.4165911078453064,27.008056640625,27.2369384765625,-19.1802978515625
20.0299999,-9.627084732055664,-1.9608511924743652,-0.4572925269603729,36.376953125,19.6533203125,-14.862060546875
20.0499999,-9.57441234588623,-2.0207061767578125,-0.40462008118629456,45.47119140625,16.7694091796875,-6.7291259765625
20.0699999,-9.526528358459473,-2.0183119773864746,-0.2298433631658554,50.9796142578125,14.6484375,-0.3814697265625
20.089999900000002,-9.531316757202148,-1.9632453918457031,0.023942016065120697,52.18505859375,11.1541748046875,-2.227783203125
20.109999900000002,-9.591172218322754,-1.8507179021835327,0.35913026332855225,49.407958984375,3.96728515625,-7.8887939453125
20.1299999,-9.648633003234863,-1.721431016921997,0.6919242739677429,43.2891845703125,1.7242431640625,-11.16943359375
