# Time (seconds),Accel_X,Accel_Y,Accel_Z,Gyro_X,Gyro_Y,Gyro_Z
0.0099999,-0.10773907601833344,-9.928754806518555,0.9289502501487732,-1.4495849609375,-5.55419921875,1.6326904296875
0.029999900000000003,0.004788403399288654,-9.928754806518555,0.9409212470054626,-0.2288818359375,1.3885498046875,0.762939453125
0.0499999,0.019153613597154617,-9.921571731567383,0.9481038451194763,1.0986328125,1.3427734375,1.2969970703125
0.0699999,-0.05985504388809204,-9.911994934082031,0.9481038451194763,0.1068115234375,0.4425048828125,1.068115234375
0.08999990000000001,-0.1843535304069519,-9.8784761428833,1.0031704902648926,-0.0457763671875,0.7171630859375,-0.7171630859375
0.10999990000000001,-0.2944868206977844,-9.86889934539795,1.0079588890075684,-1.007080078125,0.30517578125,-0.9765625
0.1299999,-0.33279404044151306,-9.86889934539795,1.0055646896362305,-0.9307861328125,0.244140625,-0.9918212890625
0.14999990000000002,-0.2992752194404602,-9.880870819091797,0.9840168952941895,0.6103515625,0.67138671875,-1.0223388671875
0.1699999,-0.2298433631658554,-9.90241813659668,0.9457096457481384,0.2593994140625,0.701904296875,0.274658203125
0.1899999,-0.17238251864910126,-9.916783332824707,0.9241618514060974,-0.30517578125,0.9002685546875,1.251220703125
0.20999990000000002,-0.19393034279346466,-9.907206535339355,0.9481038451194763,0.8087158203125,0.823974609375,1.8157958984375
0.2299999,-0.272938996553421,-9.888052940368652,0.9696516990661621,0.1373291015625,0.4425048828125,-0.3662109375
0.2499999,-0.35913026332855225,-9.871294021606445,1.0007762908935547,-0.91552734375,-0.06103515625,-2.2735595703125
0.2699999,-0.3878606855869293,-9.864110946655273,1.0007762908935547,-1.312255859375,0.1373291015625,-3.204345703125
0.28999990000000003,-0.33518823981285095,-9.8784761428833,0.9744400978088379,-0.1373291015625,0.640869140625,-1.495361328125
0.3099999,-0.23942017555236816,-9.9000244140625,0.9433154463768005,0.7476806640625,0.7476806640625,-0.030517578125
0.3299999,-0.1867477297782898,-9.923966407775879,0.9050082564353943,-0.06103515625,-1.556396484375,0.7781982421875
0.34999990000000003,-0.17717093229293823,-9.921571731567383,0.9145850539207458,-0.579833984375,-6.683349609375,1.678466796875
0.3699999,-0.22744916379451752,-9.919178009033203,0.8978256583213806,-0.91552734375,-9.94873046875,2.593994140625
0.3899999,-0.304063618183136,-9.907206535339355,0.8858546018600464,-0.06103515625,-10.6964111328125,1.6326904296875
0.40999990000000003,-0.3663128614425659,-9.897629737854004,0.849941611289978,-0.5645751953125,-16.6473388671875,0.7781982421875
0.4299999,-0.40222588181495667,-9.895236015319824,0.8188169598579407,-1.6632080078125,-25.9857177734375,1.8310546875
0.4499999,-0.3902548849582672,-9.892841339111328,0.8307880163192749,-0.5645751953125,-29.4647216796875,1.6937255859375
0.4699999,-0.3495534360408783,-9.892841339111328,0.8523358106613159,-0.3509521484375,-25.9857177734375,2.5482177734375
0.4899999,-0.28969839215278625,-9.9000244140625,0.9097966551780701,-0.5950927734375,-24.47509765625,1.46484375
0.5099999,-0.24181437492370605,-9.895236015319824,0.9576807022094727,-0.48828125,-23.9715576171875,1.2969970703125
0.5299999,-0.21787235140800476,-9.895236015319824,0.9864110946655273,-0.79345703125,-23.345947265625,2.2125244140625
0.5499999,-0.17956513166427612,-9.888052940368652,1.0223240852355957,-0.457763671875,-23.590087890625,1.3427734375
0.5699999,-0.15322890877723694,-9.885659217834473,1.0127472877502441,-0.42724609375,-19.012451171875,1.495361328125
0.5899998999999999,-0.13407529890537262,-9.883264541625977,0.993593692779541,-0.335693359375,-17.3187255859375,1.4190673828125
0.6099998999999999,-0.1364694982767105,-9.888052940368652,0.9552865028381348,-1.15966796875,-25.0091552734375,1.7852783203125
0.6299999,-0.15801730751991272,-9.892841339111328,0.9169792532920837,-1.0986328125,-30.1055908203125,1.6021728515625
0.6499999,-0.15083470940589905,-9.861717224121094,0.9768342971801758,-0.335693359375,-24.993896484375,2.3345947265625
0.6699999,-0.26815059781074524,-9.876082420349121,1.0079588890075684,-0.3814697265625,-3.5247802734375,1.46484375
0.6899999,-0.2777273952960968,-9.832986831665039,1.1252747774124146,0.0762939453125,1.6937255859375,-3.692626953125
0.7099999,-0.33039984107017517,-9.859322547912598,1.1348515748977661,-2.13623046875,-2.197265625,-4.3487548828125
0.7299998999999999,-0.2585737705230713,-9.890447616577148,1.0797849893569946,-1.7242431640625,0.3509521484375,-3.0517578125
0.7499998999999999,-0.15562310814857483,-9.909601211547852,1.015141487121582,1.5869140625,1.6632080078125,-0.091552734375
0.7699999,-0.090979665517807,-9.945513725280762,0.912190854549408,0.8087158203125,0.7781982421875,0.5645751953125
0.7899999,-0.10055647045373917,-9.938331604003906,0.8906430602073669,0.7171630859375,0.2288818359375,-1.0986328125
0.8099999,-0.19871874153614044,-9.931148529052734,0.8690952062606812,0.885009765625,-1.800537109375,-1.64794921875
0.8299999,-0.35673606395721436,-9.928754806518555,0.8571242094039917,0.0457763671875,-13.0462646484375,1.3885498046875
0.8499998999999999,-0.49320554733276367,-9.909601211547852,0.8667010068893433,0.030517578125,-31.494140625,5.6610107421875
0.8699998999999999,-0.5817909836769104,-9.890447616577148,0.8978256583213806,-0.9613037109375,-44.2352294921875,8.60595703125
0.8899999,-0.4644751250743866,-9.871294021606445,0.9457096457481384,-2.3193359375,-34.332275390625,1.495361328125
0.9099999,-0.20350714027881622,-9.873687744140625,0.9768342971801758,-1.3427734375,-14.007568359375,-1.190185546875
0.9299999,0.11971008777618408,-9.9000244140625,0.9624691009521484,1.40380859375,2.166748046875,2.4871826171875
0.9499999,0.2322375625371933,-9.888052940368652,1.015141487121582,3.1585693359375,2.86865234375,5.2947998046875
0.9699998999999999,0.11252748221158981,-9.907206535339355,0.9672574996948242,-2.044677734375,-0.1983642578125,1.64794921875
0.9899998999999999,-0.11013327538967133,-9.856928825378418,1.0606313943862915,-0.823974609375,-0.091552734375,-4.9285888671875
1.0099999,-0.2825157940387726,-9.859322547912598,1.0247182846069336,-0.9918212890625,0.579833984375,-4.486083984375
1.0299999,-0.2585737705230713,-9.895236015319824,0.950498104095459,-1.4495849609375,0.42724609375,0.030517578125
1.0499999,-0.13168109953403473,-9.916783332824707,0.9313444495201111,2.8839111328125,1.983642578125,2.4871826171875
1.0699999,-0.10295066982507706,-9.947908401489258,0.8619126081466675,1.2664794921875,1.068115234375,4.8980712890625
1.0899999,-0.19871874153614044,-9.909601211547852,0.9241618514060974,0.030517578125,0.6256103515625,1.3275146484375
1.1099999,-0.31124621629714966,-9.885659217834473,0.9768342971801758,-0.54931640625,0.0152587890625,-3.082275390625
1.1299999,-0.363918662071228,-9.864110946655273,0.9983820915222168,-1.2054443359375,0.091552734375,-2.9296875
1.1499999,-0.3016694188117981,-9.883264541625977,0.9840168952941895,0,1.1749267578125,0.7476806640625
1.1699998999999999,-0.2298433631658554,-9.890447616577148,0.9792284965515137,1.4801025390625,1.6326904296875,2.685546875
1.1899998999999999,-0.19871874153614044,-9.911994934082031,0.9313444495201111,-0.274658203125,0.213623046875,0.8544921875
1.2099999,-0.35434186458587646,-9.943120002746582,0.8355764150619507,-0.9002685546875,-3.41796875,-0.8087158203125
1.2299999,-0.4644751250743866,-10.089165687561035,0.7398083209991455,-0.9918212890625,-21.881103515625,6.439208984375
1.2499999,-0.43335050344467163,-10.381258964538574,0.6703764796257019,-2.288818359375,-29.815673828125,24.10888671875
1.2699999,-0.28969839215278625,-10.831368446350098,0.7038952708244324,2.838134765625,-4.0283203125,39.6728515625
1.2899999,-0.12928688526153564,-11.310209274291992,0.8164227604866028,3.997802734375,24.658203125,54.9163818359375
1.3099999,-0.15322890877723694,-11.66455078125,0.9050082564353943,5.584716796875,31.097412109375,60.9893798828125
1.3299999,-0.49799394607543945,-11.772290229797363,0.8930372595787048,10.528564453125,22.3388671875,56.2744140625
1.3499999,-1.0773907899856567,-11.580753326416016,0.8259995579719543,16.693115234375,17.425537109375,43.8079833984375
1.3699999,-1.7046716213226318,-11.18092155456543,0.7829039692878723,18.3258056640625,17.7459716796875,29.47998046875
1.3899999,-2.2409727573394775,-10.706870079040527,0.8259995579719543,16.0064697265625,7.171630859375,23.162841796875
1.4099999,-2.561795711517334,-10.290278434753418,0.9768342971801758,7.537841796875,1.495361328125,20.3094482421875
1.4299998999999999,-2.676717519760132,-9.99100399017334,1.1827356815338135,-5.8746337890625,7.4005126953125,21.5606689453125
1.4499999,-2.6408045291900635,-9.825803756713867,1.3718775510787964,-20.2484130859375,18.4783935546875,25.1312255859375
1.4699999,-2.513911724090576,-9.770736694335938,1.482010841369629,-31.768798828125,24.4293212890625,29.8309326171875
1.4899999,-2.389413356781006,-9.78989028930664,1.4460978507995605,-37.78076171875,25.5889892578125,34.210205078125
1.5099999,-2.315192937850952,-9.84495735168457,1.2689268589019775,-41.015625,25.299072265625,37.1551513671875
1.5299999,-2.293645143508911,-9.890447616577148,0.9983820915222168,-42.8924560546875,23.1475830078125,38.6962890625
1.5499999,-2.3032219409942627,-9.890447616577148,0.6967126727104187,-43.182373046875,20.5078125,40.1611328125
1.5699999,-2.38462495803833,-9.904812812805176,0.38307225704193115,-43.15185546875,17.791748046875,43.6248779296875
1.5899999,-2.5282769203186035,-9.93593692779541,0.0933738648891449,-43.365478515625,12.176513671875,50.750732421875
1.6099999,-2.7030537128448486,-10.002974510192871,-0.14604631066322327,-42.1295166015625,6.805419921875,58.502197265625
1.6299999,-2.8802247047424316,-10.06043529510498,-0.3232172429561615,-38.4979248046875,9.21630859375,62.164306640625
1.6499999,-3.0119056701660156,-10.0580415725708,-0.44771572947502136,-31.92138671875,15.1519775390625,62.774658203125
1.6699999,-3.160346269607544,-9.979032516479492,-0.5674257874488831,-22.03369140625,13.48876953125,63.232421875
1.6899998999999999,-3.378218650817871,-9.818621635437012,-0.7158663272857666,-9.0179443359375,-1.5716552734375,62.9425048828125
1.7099999,-3.6750996112823486,-9.63187313079834,-0.8667010068893433,5.462646484375,-22.613525390625,58.4564208984375
1.7299999,-4.0294413566589355,-9.440337181091309,-0.9768342971801758,18.341064453125,-38.238525390625,50.445556640625
1.7499999,-4.314351558685303,-9.251194953918457,-0.9313444495201111,27.4810791015625,-46.9818115234375,42.877197265625
1.7699999,-4.41969633102417,-9.141061782836914,-0.706289529800415,31.982421875,-49.1485595703125,37.29248046875
1.7899999,-4.369418144226074,-9.05487060546875,-0.2801215946674347,31.8603515625,-42.144775390625,33.0047607421875
1.8099999,-4.223371982574463,-9.006986618041992,0.22266076505184174,28.0914306640625,-21.3623046875,28.6102294921875
1.8299999,-4.084507942199707,-8.975862503051758,0.7158663272857666,23.0712890625,-0.42724609375,24.3072509765625
1.8499999,-4.065354347229004,-8.954314231872559,1.072602391242981,18.8446044921875,10.528564453125,20.0958251953125
1.8699999,-4.20421838760376,-8.942343711853027,1.2401964664459229,15.716552734375,13.9312744140625,14.2059326171875
1.8899999,-4.414907932281494,-8.923190116882324,1.2449848651885986,13.2598876953125,14.8773193359375,7.32421875
1.9099999,-4.587290287017822,-8.9064302444458,1.137245774269104,12.2528076171875,13.2598876953125,1.15966796875
1.9299998999999999,-4.599261283874512,-8.87051773071289,1.0031704902648926,11.993408203125,9.8419189453125,-0.3509521484375
1.9499999,-4.398148536682129,-8.81784439086914,0.9169792532920837,10.955810546875,9.9639892578125,3.326416015625
1.9699999,-3.995922565460205,-8.741230010986328,0.9074024558067322,8.9263916015625,14.70947265625,10.5133056640625
1.9899999,-3.5625722408294678,-8.616731643676758,0.950498104095459,5.3863525390625,18.341064453125,21.78955078125
2.0099999,-3.2297780513763428,-8.418013572692871,0.9433154463768005,-0.06103515625,11.962890625,33.6761474609375
2.0299999,-3.0406360626220703,-8.154650688171387,0.8978256583213806,-6.34765625,-8.209228515625,40.252685546875
2.0499999,-2.9903578758239746,-7.850587368011475,0.811634361743927,-10.4217529296875,-22.430419921875,41.93115234375
2.0699999,-3.0885202884674072,-7.558494567871094,0.727837324142456,-16.1285400390625,-20.1873779296875,41.473388671875
2.0899999,-3.35667085647583,-7.333439826965332,0.6392518281936646,-21.8505859375,-13.885498046875,38.87939453125
2.1099999,-3.751713991165161,-7.163451671600342,0.5961562395095825,-25.87890625,-12.9547119140625,31.18896484375
2.1299999,-4.185064792633057,-7.067683219909668,0.5650315880775452,-30.029296875,-8.148193359375,18.218994140625
2.1499999,-4.520252704620361,-7.007828235626221,0.5602431893348694,-34.5458984375,2.716064453125,6.1492919921875
2.1699999,-4.702212333679199,-7.0317702293396,0.5770025849342346,-40.1763916015625,6.9580078125,-0.213623046875
2.1899999,-4.774038314819336,-7.105990409851074,0.5817909836769104,-47.5311279296875,7.293701171875,-2.655029296875
2.2099999,-4.797980308532715,-7.292738437652588,0.5267243981361389,-55.145263671875,14.0533447265625,-3.6773681640625
2.2299999,-4.819528102874756,-7.534552574157715,0.4118026793003082,-60.394287109375,21.4996337890625,-1.1138916015625
2.2499999,-4.853046894073486,-7.8314337730407715,0.22026655077934265,-62.3626708984375,21.0418701171875,5.37109375
2.2699999,-5.003881454467773,-8.142680168151855,-0.07661445438861847,-59.4940185546875,15.869140625,11.65771484375
2.2899999,-5.295974254608154,-8.425195693969727,-0.4572925269603729,-52.79541015625,6.591796875,16.0064697265625
2.3099999,-5.592854976654053,-8.60236644744873,-0.7972691655158997,-44.5556640625,-5.218505859375,18.73779296875
2.3299999,-5.841852188110352,-8.674192428588867,-1.1061211824417114,-36.2548828125,-8.9111328125,18.6614990234375
2.3499999,-6.045359134674072,-8.609549522399902,-1.3024457693099976,-29.2816162109375,-6.65283203125,15.3656005859375
2.3699999,-6.1530985832214355,-8.456320762634277,-1.4676456451416016,-22.3236083984375,-7.8125,8.758544921875
2.3899999,-6.236895561218262,-8.236053466796875,-1.6112977266311646,-12.664794921875,-19.8211669921875,-3.1890869140625
2.4099999,-6.27280855178833,-8.051700592041016,-1.7070658206939697,-3.082275390625,-36.8194580078125,-15.3045654296875
2.4299999,-6.0405707359313965,-7.972691535949707,-1.6879122257232666,2.01416015625,-42.6788330078125,-14.3585205078125
2.4499999,-5.6670756340026855,-8.003816604614258,-1.558625340461731,2.9754638671875,-34.820556640625,2.13623046875
2.4699999,-5.212177276611328,-8.087613105773926,-1.359906554222107,0.3814697265625,-26.275634765625,25.3753662109375
2.4899999,-4.90571928024292,-8.133103370666504,-1.2042834758758545,-3.6773681640625,-28.5491943359375,43.670654296875
2.5099999,-4.9152960777282715,-8.070854187011719,-1.1444283723831177,-4.3182373046875,-38.2080078125,51.513671875
2.5299999,-5.231330871582031,-7.920019149780273,-1.1324573755264282,-0.48828125,-41.717529296875,46.81396484375
2.5499999,-5.770026206970215,-7.766790390014648,-1.1468225717544556,4.3792724609375,-30.4718017578125,32.1807861328125
2.5699999,-6.323086738586426,-7.647080421447754,-1.1109095811843872,5.4931640625,-17.547607421875,19.0887451171875
2.5899999,-6.797138690948486,-7.601590633392334,-1.0438719987869263,3.5552978515625,-11.444091796875,11.688232421875
2.6099999,-7.163451671600342,-7.618350028991699,-0.9911994934082031,0.48828125,-13.97705078125,6.805419921875
2.6299999,-7.280767440795898,-7.675810813903809,-0.8475474119186401,-4.5623779296875,-30.76171875,1.0833740234375
2.6499999,-7.139509677886963,-7.73087739944458,-0.6488286852836609,-14.7552490234375,-30.6549072265625,0.79345703125
2.6699999,-6.737283706665039,-7.805097579956055,-0.42856210470199585,-28.9459228515625,-10.528564453125,8.36181640625
2.6899999,-6.169857978820801,-7.86734676361084,-0.22744916379451752,-41.656494140625,-2.9144287109375,23.712158203125
2.7099999,-5.714959621429443,-7.888894557952881,-0.20111294090747833,-50.750732421875,-3.7078857421875,38.787841796875
2.7299999,-5.5760955810546875,-7.862558364868164,-0.3734954595565796,-53.863525390625,-0.5645751953125,40.3594970703125
2.7499999,-5.822698593139648,-7.771578788757324,-0.7134721279144287,-48.095703125,2.5634765625,27.9083251953125
2.7699999,-6.358999729156494,-7.6997528076171875,-1.1755530834197998,-34.2254638671875,-0.9613037109375,10.772705078125
2.7899999,-6.957550048828125,-7.6997528076171875,-1.625662922859192,-21.3775634765625,-13.946533203125,-1.03759765625
2.8099999,-7.402871608734131,-7.9415669441223145,-2.1356279850006104,13.9617919921875,-12.75634765625,-3.4942626953125
2.8299999,-7.206547260284424,-8.030152320861816,-2.1284453868865967,26.3671875,-4.69970703125,2.5634765625
2.8499999,-6.914454460144043,-8.006210327148438,-1.987187385559082,33.599853515625,-6.8817138671875,6.4849853515625
2.8699999,-6.708553314208984,-7.86734676361084,-1.7836803197860718,38.4063720703125,-7.4615478515625,4.5928955078125
2.8899999,-6.615179061889648,-7.644686222076416,-1.525106430053711,41.534423828125,-3.8604736328125,0.335693359375
2.9099999,-6.617573261260986,-7.4100542068481445,-1.2497732639312744,42.2821044921875,1.3885498046875,-2.227783203125
2.9299999,-6.62236213684082,-7.216124057769775,-0.9840168952941895,38.421630859375,3.4027099609375,-0.030517578125
2.9499999,-6.615179061889648,-7.082048416137695,-0.7422025203704834,31.6009521484375,2.044677734375,6.134033203125
2.9699999,-6.607996463775635,-7.017405033111572,-0.5722141861915588,28.6712646484375,12.451171875,6.2255859375
2.9899999,-6.6391215324401855,-7.01979923248291,-0.49799394607543945,29.47998046875,25.9857177734375,-1.007080078125
3.0099999,-6.7277069091796875,-7.086836814880371,-0.507570743560791,30.8380126953125,23.2696533203125,-6.16455078125
3.0299999,-6.775590896606445,-7.2113356590271,-0.5650315880775452,30.364990234375,10.528564453125,-1.5869140625
3.0499999,-6.892906665802002,-7.359776020050049,-0.8427590131759644,8.0108642578125,10.498046875,10.9710693359375
3.0699999,-6.847416877746582,-7.429207801818848,-0.849941611289978,-41.900634765625,19.6990966796875,19.500732421875
3.0899999,-6.852205276489258,-7.481880187988281,-0.9672574996948242,30.2734375,11.444091796875,-0.5035400390625
3.1099999,-6.797138690948486,-7.453149795532227,-0.8331822156906128,24.6429443359375,8.941650390625,0.5950927734375
3.1299999,-6.734889507293701,-7.395689010620117,-0.5889736413955688,11.2457275390625,-10.2386474609375,11.260986328125
3.1499999,-6.687005519866943,-7.333439826965332,-0.31124621629714966,5.035400390625,-16.66259765625,15.3961181640625
3.1699999,-6.701370716094971,-7.237671852111816,-0.026336219161748886,-0.54931640625,-6.28662109375,11.04736328125
3.1899999,-6.751648902893066,-7.137115478515625,0.22266076505184174,-2.4261474609375,0.4425048828125,1.03759765625
3.2099999,-6.818686485290527,-7.089231014251709,0.3734954595565796,-0.4425048828125,5.6610107421875,-6.4697265625
3.2299999,-6.833051681518555,-7.122750282287598,0.3926490843296051,-0.67138671875,7.2479248046875,-3.41796875
3.2499999,-6.710947513580322,-7.223306655883789,0.31842881441116333,-4.4097900390625,0.335693359375,7.659912109375
3.2699999,-6.552929878234863,-7.347805023193359,0.16519992053508759,-2.62451171875,-4.5013427734375,23.3306884765625
3.2899999,-6.433219909667969,-7.400477409362793,0.004788403399288654,0.0457763671875,0.457763671875,33.38623046875
3.3099999,-6.4595561027526855,-7.390900611877441,-0.17956513166427612,8.636474609375,7.293701171875,31.097412109375
3.3299999000000002,-6.603208065032959,-7.295132637023926,-0.3208230137825012,10.2996826171875,1.8157958984375,26.1993408203125
3.3499999,-6.861782073974609,-7.216124057769775,-0.4357447028160095,6.4544677734375,-6.5155029296875,20.3704833984375
3.3699999,-7.12035608291626,-7.163451671600342,-0.4357447028160095,2.6702880859375,-13.641357421875,26.3824462890625
3.3899999,-7.343016624450684,-7.094019412994385,-0.363918662071228,6.34765625,-13.3056640625,48.553466796875
3.4099999,-7.496245384216309,-7.007828235626221,-0.19153612852096558,7.0648193359375,-7.843017578125,51.483154296875
3.4299999,-7.647080421447754,-6.861782073974609,-0.002394201699644327,2.4871826171875,-10.3759765625,60.302734375
3.4499999,-7.785943984985352,-6.557718276977539,0.1843535304069519,-4.3487548828125,-13.5498046875,73.2269287109375
3.4699999,-7.953537940979004,-6.141127586364746,0.3280056416988373,-19.744873046875,3.0059814453125,60.5621337890625
3.4899999,-8.02536392211914,-5.714959621429443,0.3711012601852417,-35.8123779296875,27.374267578125,38.7115478515625
3.5099999,-7.948749542236328,-5.3127336502075195,0.36152446269989014,-17.39501953125,11.1846923828125,39.1998291015625
3.5299999,-7.750030994415283,-5.0469770431518555,0.2346317619085312,-4.21142578125,-7.904052734375,58.7158203125
3.5499999,-7.548917770385742,-4.850652694702148,0.1149216815829277,-4.6539306640625,-9.4146728515625,64.971923828125
3.5699999,-7.465120792388916,-4.651933670043945,-0.002394201699644327,-4.638671875,-1.6326904296875,51.4984130859375
3.5899999,-7.496245384216309,-4.4532151222229,-0.0933738648891449,-3.326416015625,5.8441162109375,34.9884033203125
3.6099999,-7.546523571014404,-4.307168960571289,-0.1843535304069519,-5.0201416015625,7.99560546875,26.763916015625
3.6299999,-7.522581577301025,-4.23773717880249,-0.2944868206977844,-6.9580078125,5.9356689453125,28.4881591796875
3.6499999,-7.390900611877441,-4.266467571258545,-0.40940847992897034,-4.608154296875,7.2021484375,34.881591796875
3.6699999,-7.247248649597168,-4.311957359313965,-0.5339069962501526,-0.9765625,11.749267578125,47.1038818359375
3.6899999,-7.168240070343018,-4.355052947998047,-0.6416460275650024,2.9296875,12.3443603515625,62.255859375
3.7099999,-7.218518257141113,-4.321534156799316,-0.7134721279144287,5.43212890625,13.5955810546875,73.2574462890625
3.7299999,-7.474697589874268,-4.000710964202881,-0.6512228846549988,36.1328125,34.088134765625,71.929931640625
3.7499999,-7.996633529663086,-3.995922565460205,-0.8331822156906128,117.0501708984375,76.629638671875,58.8226318359375
3.7699999,-8.688557624816895,-3.6511576175689697,-0.8547300100326538,47.0428466796875,46.1578369140625,45.1812744140625
3.7899999,-9.495404243469238,-3.7014358043670654,-1.0965443849563599,33.26416015625,26.7791748046875,30.4718017578125
3.8099999,-10.213664054870605,-3.6990416049957275,-1.2401964664459229,41.0308837890625,11.688232421875,26.5045166015625
3.8299999000000002,-10.69489860534668,-3.773261785507202,-1.2258312702178955,30.76171875,-3.23486328125,30.9600830078125
3.8499999,-10.843339920043945,-3.8379054069519043,-1.0558429956436157,17.059326171875,-4.3792724609375,34.4085693359375
3.8699999,-10.759542465209961,-3.9647979736328125,-0.8092401623725891,12.054443359375,8.8043212890625,29.510498046875
3.8899999,-10.560823440551758,-4.0964789390563965,-0.5650315880775452,11.505126953125,15.0909423828125,26.91650390625
3.9099999,-10.350133895874023,-4.271255970001221,-0.4429273009300232,11.566162109375,4.852294921875,30.45654296875
3.9299999,-10.371682167053223,-4.299986362457275,-0.40462008118629456,9.4146728515625,-3.7078857421875,38.116455078125
3.9499999,-10.429142951965332,-4.359841346740723,-0.49320554733276367,13.7786865234375,5.67626953125,41.015625
3.9699999,-10.488997459411621,-4.311957359313965,-0.6344634294509888,24.688720703125,12.3748779296875,55.0537109375
3.9899999,-10.527304649353027,-4.206612586975098,-0.8475474119186401,37.3077392578125,0.3662109375,76.7669677734375
4.0099999,-10.503362655639648,-4.01268196105957,-1.0749965906143188,50.96435546875,-33.6761474609375,81.60400390625
4.029999900000001,-10.433931350708008,-3.706224203109741,-1.1779472827911377,57.2509765625,-69.061279296875,67.0013427734375
4.0499999,-10.369287490844727,-3.248931646347046,-1.0606313943862915,59.0667724609375,-69.1680908203125,49.224853515625
4.069999900000001,-10.251971244812012,-2.7676970958709717,-0.7326257228851318,51.727294921875,-40.3289794921875,37.29248046875
4.0899999000000005,-10.031704902648926,-2.3798365592956543,-0.2537853717803955,35.552978515625,-11.3983154296875,29.5562744140625
4.1099999,-9.84256362915039,-2.094926595687866,0.15322890877723694,32.257080078125,17.08984375,20.7061767578125
4.1299999000000005,-9.890447616577148,-1.8626888990402222,-0.11971008777618408,31.3873291015625,33.3099365234375,11.1541748046875
4.1499999,-9.921571731567383,-1.8315643072128296,0.35913026332855225,-13.4429931640625,7.781982421875,12.6495361328125
4.1699999000000005,-10.050858497619629,-1.7812861204147339,0.06464344263076782,8.2244873046875,-12.237548828125,13.9312744140625
4.1899999,-10.010157585144043,-1.867477297782898,0.49799394607543945,11.6729736328125,2.3193359375,17.2119140625
4.209999900000001,-9.916783332824707,-1.9249382019042969,0.6967126727104187,6.0272216796875,20.9503173828125,16.2506103515625
4.2299999,-9.876082420349121,-1.9297266006469727,0.6991068720817566,6.9122314453125,15.594482421875,7.781982421875
4.249999900000001,-9.90241813659668,-1.8722656965255737,0.6033388376235962,7.50732421875,-3.4332275390625,-2.9754638671875
4.2699999,-9.952696800231934,-1.8100165128707886,0.5147533416748047,3.96728515625,-10.467529296875,-5.4931640625
4.289999900000001,-9.921571731567383,-1.7501614093780518,0.47884035110473633,-0.030517578125,-5.2032470703125,4.5623779296875
4.3099999,-9.770736694335938,-1.7142484188079834,0.507570743560791,-0.1373291015625,-6.28662109375,23.01025390625
4.329999900000001,-9.588777542114258,-1.6160861253738403,0.608127236366272,0.823974609375,-6.866455078125,40.0238037109375
4.3499999,-9.493009567260742,-1.4772224426269531,0.7589619159698486,1.15966796875,5.4473876953125,43.0755615234375
4.369999900000001,-9.548076629638672,-1.1851298809051514,0.9050082564353943,9.002685546875,21.8048095703125,39.5660400390625
4.3899999,-9.749189376831055,-0.9600749015808105,1.0055646896362305,31.18896484375,23.74267578125,35.4156494140625
4.409999900000001,-10.055646896362305,-0.7493851184844971,0.9959878921508789,34.210205078125,19.256591796875,34.912109375
4.4299999,-10.335768699645996,-0.629675030708313,0.871489405632019,19.8211669921875,19.4549560546875,40.1458740234375
4.449999900000001,-10.496180534362793,-0.5554547905921936,0.6536170840263367,0.6256103515625,22.03369140625,41.8243408203125
4.4699999,-10.589553833007812,-0.5027823448181152,0.4213795065879822,-12.420654296875,17.5323486328125,37.53662109375
4.489999900000001,-10.54645824432373,-0.43335050344467163,0.15801730751991272,-17.3187255859375,11.3677978515625,39.73388671875
4.5099999,-10.460267066955566,-0.3974374830722809,-0.09816227108240128,-15.6097412109375,4.1351318359375,38.2537841796875
4.529999900000001,-10.3549222946167,-0.3495534360408783,-0.3208230137825012,-11.199951171875,1.0986328125,31.3873291015625
4.5499999,-10.201693534851074,-0.31603461503982544,-0.5147533416748047,-4.791259765625,2.6702880859375,22.8271484375
4.569999900000001,-10.08198356628418,-0.272938996553421,-0.6488286852836609,4.21142578125,0.2899169921875,15.106201171875
4.5899999000000005,-10.005369186401367,-0.2346317619085312,-0.689530074596405,12.054443359375,-6.3629150390625,9.4757080078125
4.609999900000001,-9.983820915222168,-0.2059013396501541,-0.667982280254364,17.120361328125,-11.260986328125,5.9051513671875
4.6299999000000005,-9.981427192687988,-0.181959331035614,-0.5770025849342346,21.30126953125,-18.85986328125,4.7149658203125
4.6499999,-9.962273597717285,-0.1412578970193863,-0.45250412821769714,24.017333984375,-29.1900634765625,4.730224609375
4.6699999000000005,-9.909601211547852,-0.0694318488240242,-0.3016694188117981,26.30615234375,-34.332275390625,3.3111572265625
4.6899999,-9.818621635437012,0.038307227194309235,-0.13407529890537262,28.1829833984375,-31.6619873046875,1.3580322265625
4.709999900000001,-9.684545516967773,0.17477671802043915,0.07182604819536209,27.8167724609375,-26.947021484375,1.190185546875
4.7299999,-9.555258750915527,0.31842881441116333,0.2801215946674347,24.1546630859375,-21.240234375,3.570556640625
4.749999900000001,-9.411606788635254,0.44771572947502136,0.47405192255973816,19.5465087890625,-13.9312744140625,5.7830810546875
4.7699999,-9.294290542602539,0.5626373887062073,0.6224924325942993,16.1590576171875,-4.730224609375,5.8441162109375
4.789999900000001,-9.275136947631836,0.6823474764823914,0.6703764796257019,14.8468017578125,6.4544677734375,4.45556640625
4.8099999,-9.320627212524414,0.7613561153411865,0.6416460275650024,14.6942138671875,12.1917724609375,4.2877197265625
4.829999900000001,-9.437943458557129,0.8140285611152649,0.5434837937355042,13.0767822265625,12.3138427734375,6.317138671875
4.8499999,-9.564835548400879,0.8259995579719543,0.42377370595932007,10.3607177734375,13.580322265625,6.34765625
4.869999900000001,-9.658209800720215,0.8020575642585754,0.31124621629714966,7.568359375,17.6544189453125,3.5400390625
4.8899999,-9.758766174316406,0.7876923680305481,0.2059013396501541,5.3863525390625,18.8446044921875,0.9765625
4.909999900000001,-9.86889934539795,0.7541735172271729,0.08140286058187485,3.997802734375,10.3759765625,1.739501953125
4.9299999,-9.96945571899414,0.7086837291717529,-0.0454898327589035,2.3193359375,-5.584716796875,6.2408447265625
4.949999900000001,-10.043676376342773,0.646434485912323,-0.1364694982767105,-0.1220703125,-16.1590576171875,10.5743408203125
4.9699999,-10.034099578857422,0.5746083855628967,-0.14365209639072418,-2.166748046875,-12.5579833984375,11.7340087890625
4.989999900000001,-9.967061996459961,0.5099649429321289,-0.05027823522686958,-2.1209716796875,-3.0364990234375,10.19287109375
5.0099999,-9.897629737854004,0.4812345504760742,0.07182604819536209,0.30517578125,0.244140625,6.8511962890625
5.029999900000001,-9.873687744140625,0.5051765441894531,0.16519992053508759,2.62451171875,-4.7149658203125,3.8604736328125
5.0499999,-9.93354320526123,0.6177040338516235,0.1867477297782898,1.8768310546875,-7.7667236328125,5.828857421875
5.069999900000001,-10.010157585144043,0.7230489253997803,0.17477671802043915,-3.90625,-8.72802734375,8.026123046875
5.0899999000000005,-10.041281700134277,0.6512228846549988,0.1149216815829277,-15.380859375,-10.3912353515625,10.3759765625
5.109999900000001,-9.955090522766113,0.7422025203704834,0.1388636976480484,-67.0013427734375,-16.29638671875,9.613037109375
5.1299999000000005,-9.780313491821289,0.6368576288223267,0.14604631066322327,-75.225830078125,-21.78955078125,1.1138916015625
5.1499999,-9.63187313079834,0.706289529800415,0.22026655077934265,-59.1888427734375,-18.8446044921875,-10.6964111328125
5.1699999000000005,-9.682151794433594,0.7469909191131592,0.35913026332855225,-55.2520751953125,-19.71435546875,-19.4244384765625
5.1899999,-9.832986831665039,0.7206547260284424,0.4405331015586853,1.6326904296875,-4.150390625,-5.0506591796875
5.209999900000001,-10.125079154968262,0.6105214357376099,0.5482721924781799,23.6053466796875,-11.71875,-0.9307861328125
5.2299999,-10.316615104675293,0.5003881454467773,0.5746083855628967,25.5584716796875,-20.1568603515625,1.5716552734375
5.249999900000001,-10.38844108581543,0.40462008118629456,0.5722141861915588,35.2630615234375,-22.0794677734375,-1.0528564453125
5.2699999,-10.342951774597168,0.3208230137825012,0.5674257874488831,45.3338623046875,-26.8707275390625,-2.6397705078125
5.289999900000001,-10.213664054870605,0.272938996553421,0.586579442024231,44.3878173828125,-28.778076171875,-1.6632080078125
5.3099999,-10.043676376342773,0.26815059781074524,0.6416460275650024,35.46142578125,-25.0396728515625,-1.2359619140625
5.329999900000001,-9.859322547912598,0.2968810200691223,0.7350199222564697,30.7769775390625,-18.463134765625,-3.448486328125
5.3499999,-9.674968719482422,0.3711012601852417,0.8595184087753296,29.0985107421875,-12.725830078125,-4.2877197265625
5.369999900000001,-9.543288230895996,0.45010992884635925,0.9888052940368652,23.6968994140625,-11.8560791015625,-1.89208984375
5.3899999,-9.452308654785156,0.5123591423034668,1.1013327836990356,16.9219970703125,-11.77978515625,3.1585693359375
5.409999900000001,-9.394847869873047,0.5482721924781799,1.1683704853057861,11.41357421875,-12.1002197265625,8.3160400390625
5.4299999,-9.368511199951172,0.5530605912208557,1.1899182796478271,8.4686279296875,-12.4664306640625,12.359619140625
5.449999900000001,-9.35654067993164,0.5530605912208557,1.1875240802764893,5.706787109375,-11.4898681640625,15.07568359375
5.4699999,-9.387664794921875,0.5602431893348694,1.1635819673538208,5.645751953125,-8.1024169921875,16.693115234375
5.489999900000001,-9.452308654785156,0.5793967843055725,1.1348515748977661,9.002685546875,-5.6304931640625,16.082763671875
5.5099999,-9.545681953430176,0.6368576288223267,1.0845733880996704,14.1143798828125,-7.9345703125,15.838623046875
5.529999900000001,-9.627084732055664,0.7182605266571045,1.0438719987869263,19.9432373046875,-14.58740234375,17.120361328125
5.5499999,-9.694122314453125,0.8140285611152649,1.015141487121582,24.139404296875,-17.0440673828125,18.1884765625
5.569999900000001,-9.744400978088379,0.9289502501487732,1.015141487121582,27.0233154296875,-15.8843994140625,16.4642333984375
5.5899999000000005,-9.782708168029785,1.0438719987869263,1.0845733880996704,29.205322265625,-18.310546875,12.6800537109375
5.609999900000001,-9.806650161743164,1.1779472827911377,1.173158884048462,31.280517578125,-19.4549560546875,10.07080078125
5.6299999000000005,-9.840168952941895,1.2856862545013428,1.292868971824646,28.3660888671875,-20.8740234375,7.2479248046875
5.6499999,-9.818621635437012,1.3886369466781616,1.403002142906189,26.1993408203125,-24.7802734375,4.638671875
5.6699999000000005,-9.758766174316406,1.4748282432556152,1.436521053314209,22.4761962890625,-29.6630859375,0.8544921875
5.6899999,-9.624691009521484,1.5155296325683594,1.5155296325683594,14.1143798828125,-29.7698974609375,-2.8076171875
5.709999900000001,-9.425971984863281,1.5179238319396973,1.656787633895874,11.3677978515625,-10.2386474609375,-1.9073486328125
5.7299999,-9.27034854888916,1.479616641998291,1.824381709098816,22.430419921875,23.1475830078125,4.1351318359375
5.749999900000001,-9.251194953918457,1.4532804489135742,1.98958158493042,33.7982177734375,36.6363525390625,7.75146484375
5.7699999,-9.370905876159668,1.4676456451416016,2.013523578643799,38.0859375,27.099609375,7.1868896484375
5.789999900000001,-9.57441234588623,1.522712230682373,1.922544002532959,38.0096435546875,15.56396484375,6.072998046875
5.8099999,-9.737217903137207,1.599326729774475,1.766920804977417,35.5377197265625,17.88330078125,9.918212890625
5.829999900000001,-9.799467086791992,1.6519991159439087,1.623268723487854,31.219482421875,23.040771484375,12.4969482421875
5.8499999,-9.797073364257812,1.6974890232086182,1.5155296325683594,27.1148681640625,21.6827392578125,7.50732421875
5.869999900000001,-9.773131370544434,1.7166426181793213,1.4221558570861816,24.200439453125,22.03369140625,-2.6397705078125
5.8899999,-9.813833236694336,1.7118542194366455,1.357512354850769,21.2249755859375,23.651123046875,-11.1846923828125
5.909999900000001,-9.897629737854004,1.6759412288665771,1.3239935636520386,17.2882080078125,26.5655517578125,-13.0157470703125
5.9299999,-10.031704902648926,1.5849615335464478,1.316810965538025,14.2974853515625,31.0821533203125,-16.4337158203125
5.949999900000001,-10.235212326049805,1.4867992401123047,1.316810965538025,12.7716064453125,35.64453125,-23.712158203125
5.9699999,-10.500968933105469,1.3862427473068237,1.292868971824646,13.031005859375,42.7093505859375,-29.5867919921875
5.989999900000001,-10.78348445892334,1.3048399686813354,1.2042834758758545,16.17431640625,44.1131591796875,-34.9578857421875
6.0099999,-10.975020408630371,1.2282254695892334,1.0797849893569946,18.61572265625,28.9154052734375,-38.6962890625
6.029999900000001,-10.970232009887695,1.1540051698684692,0.9385270476341248,18.6767578125,13.9923095703125,-38.4521484375
6.0499999,-10.737994194030762,1.070208191871643,0.8020575642585754,18.2647705078125,14.434814453125,-35.6292724609375
6.069999900000001,-10.3549222946167,0.9433154463768005,0.6967126727104187,18.9971923828125,16.0675048828125,-31.6009521484375
6.0899999000000005,-9.93593692779541,0.8044517636299133,0.6272808313369751,19.805908203125,9.5672607421875,-23.4527587890625
6.109999900000001,-9.579200744628906,0.6584054827690125,0.569819986820221,19.8822021484375,7.965087890625,-15.625
6.1299999000000005,-9.334992408752441,0.5578489899635315,0.5219359993934631,18.2952880859375,15.045166015625,-13.2293701171875
6.149999900000001,-9.21288776397705,0.5051765441894531,0.4644751250743866,15.6097412109375,18.829345703125,-12.451171875
6.1699999000000005,-9.241618156433105,0.5051765441894531,0.395043283700943,15.0909423828125,15.5792236328125,-7.5836181640625
6.1899999,-9.430760383605957,0.5339069962501526,0.304063618183136,15.93017578125,12.7716064453125,-0.1678466796875
6.209999900000001,-10.091560363769531,0.6224924325942993,0.2298433631658554,16.1895751953125,10.528564453125,3.1585693359375
6.2299999,-10.551246643066406,0.6607996821403503,0.2561795711517334,15.1214599609375,-4.0435791015625,-11.0931396484375
6.249999900000001,-11.046846389770508,0.7565677165985107,0.2849099934101105,9.6588134765625,-1.15966796875,-17.547607421875
6.2699999,-11.1474027633667,0.7781155705451965,0.3447650372982025,5.31005859375,6.7901611328125,-12.8631591796875
6.289999900000001,-10.867281913757324,0.7948749661445618,0.363918662071228,2.13623046875,3.0364990234375,-7.38525390625
6.3099999,-10.508151054382324,0.7852981686592102,0.3016694188117981,-0.8392333984375,2.0599365234375,-3.082275390625
6.329999900000001,-10.201693534851074,0.7565677165985107,0.21547815203666687,-3.1280517578125,3.448486328125,1.5716552734375
6.3499999,-10.02691650390625,0.706289529800415,0.10773907601833344,-2.38037109375,1.434326171875,3.875732421875
6.369999900000001,-9.952696800231934,0.6488286852836609,0.014365210197865963,0.9765625,-2.8228759765625,2.105712890625
6.3899999,-9.926360130310059,0.5793967843055725,-0.043095629662275314,2.0751953125,-1.8157958984375,1.2664794921875
6.409999900000001,-9.955090522766113,0.5147533416748047,-0.07900865375995636,2.0751953125,2.3193359375,3.96728515625
6.4299999,-9.988609313964844,0.4596867263317108,-0.0933738648891449,4.0740966796875,1.129150390625,5.8746337890625
6.449999900000001,-10.038887977600098,0.4213795065879822,-0.09816227108240128,7.0343017578125,-3.72314453125,3.082275390625
6.4699999,-10.053253173828125,0.40701428055763245,-0.08379705995321274,6.591796875,-4.9896240234375,1.3885498046875
6.489999900000001,-10.029311180114746,0.4141969084739685,-0.047884032130241394,3.5858154296875,0.1220703125,3.021240234375
6.5099999,-9.880870819091797,0.45250412821769714,0.05506663769483566,1.4495849609375,-0.244140625,6.3934326171875
6.529999900000001,-9.84495735168457,0.48602294921875,0.07661445438861847,-1.4801025390625,-0.2593994140625,6.3323974609375
6.5499999,-9.856928825378418,0.5195417404174805,0.0694318488240242,-5.06591796875,1.9989013671875,5.5084228515625
6.569999900000001,-9.904812812805176,0.5530605912208557,0.040701430290937424,-5.706787109375,3.631591796875,3.23486328125
6.5899999000000005,-9.974244117736816,0.5793967843055725,-0.011971008032560349,-3.9520263671875,3.4637451171875,-0.67138671875
6.609999900000001,-10.036493301391602,0.5961562395095825,-0.05985504388809204,-3.72314453125,3.6773681640625,-4.638671875
6.6299999000000005,-10.091560363769531,0.6057330369949341,-0.09816227108240128,-5.3558349609375,6.439208984375,-5.5999755859375
6.649999900000001,-10.180145263671875,0.6057330369949341,-0.1364694982767105,-4.8675537109375,7.2174072265625,-4.5166015625
6.6699999000000005,-10.323798179626465,0.6033388376235962,-0.1604115068912506,-2.6702880859375,5.126953125,-2.50244140625
6.6899999,-10.563218116760254,0.6033388376235962,-0.19153612852096558,-1.983642578125,5.6610107421875,-1.983642578125
6.709999900000001,-10.884040832519531,0.6057330369949341,-0.22266076505184174,-2.197265625,8.7738037109375,-2.5787353515625
6.7299999,-11.21444034576416,0.608127236366272,-0.24660277366638184,-0.7781982421875,9.9334716796875,-3.8299560546875
6.749999900000001,-11.508927345275879,0.629675030708313,-0.2753331959247589,0.4119873046875,7.7362060546875,-5.035400390625
6.7699999,-11.714828491210938,0.667982280254364,-0.2825157940387726,-0.1983642578125,5.3558349609375,-7.659912109375
6.789999900000001,-11.791443824768066,0.706289529800415,-0.26336219906806946,-1.5411376953125,8.3465576171875,-9.490966796875
6.8099999,-11.75553035736084,0.7469909191131592,-0.22266076505184174,-2.105712890625,12.63427734375,-8.9111328125
6.829999900000001,-11.63103199005127,0.7589619159698486,-0.181959331035614,-2.105712890625,9.765625,-8.2550048828125
6.8499999,-11.444284439086914,0.7565677165985107,-0.15322890877723694,-2.5634765625,1.678466796875,-11.3525390625
6.869999900000001,-11.173739433288574,0.7398083209991455,-0.1412578970193863,-3.47900390625,-2.6092529296875,-18.1427001953125
6.8899999,-10.843339920043945,0.7182605266571045,-0.12210428714752197,-4.4097900390625,-3.60107421875,-26.4892578125
6.909999900000001,-10.488997459411621,0.6631938815116882,-0.09576806426048279,-5.096435546875,-3.448486328125,-34.0576171875
6.9299999,-10.15141487121582,0.569819986820221,-0.05027823522686958,-5.3253173828125,-1.9989013671875,-41.3970947265625
6.949999900000001,-9.852140426635742,0.42856210470199585,-0.021547814831137657,-4.7149658203125,1.1138916015625,-50.4302978515625
6.9699999,-9.581595420837402,0.26096799969673157,-0.0071826050989329815,-3.90625,-0.946044921875,-60.2569580078125
6.989999900000001,-9.277531623840332,0.07661445438861847,0.004788403399288654,-4.974365234375,-5.4168701171875,-67.5201416015625
7.0099999,-8.954314231872559,-0.13168109953403473,0.028730420395731926,-9.7503662109375,-2.5634765625,-71.5789794921875
7.029999900000001,-8.650250434875488,-0.363918662071228,0.0694318488240242,-15.4876708984375,8.148193359375,-73.9593505859375
7.0499999,-8.439560890197754,-0.6368576288223267,0.090979665517807,-19.1497802734375,19.1192626953125,-76.3397216796875
7.069999900000001,-8.372523307800293,-0.9241618514060974,0.05027823522686958,-18.06640625,20.6756591796875,-78.9642333984375
7.0899999000000005,-8.425195693969727,-1.2234370708465576,-0.047884032130241394,-14.6026611328125,13.8397216796875,-79.4525146484375
7.109999900000001,-8.556877136230469,-1.5155296325683594,-0.2059013396501541,-13.3209228515625,9.33837890625,-75.775146484375
7.1299999000000005,-8.705317497253418,-1.8052281141281128,-0.3711012601852417,-13.6260986328125,7.8277587890625,-66.802978515625
7.149999900000001,-8.803479194641113,-2.0853497982025146,-0.5123591423034668,-16.632080078125,5.859375,-53.0548095703125
7.1699999000000005,-8.848969459533691,-2.343923568725586,-0.6177040338516235,-21.0723876953125,1.434326171875,-38.39111328125
7.1899999,-8.860940933227539,-2.559401512145996,-0.7110779285430908,-23.284912109375,0.518798828125,-23.5748291015625
7.209999900000001,-8.863334655761719,-2.7030537128448486,-0.7876923680305481,-22.5067138671875,1.739501953125,-9.0789794921875
7.2299999,-8.89685344696045,-2.7892448902130127,-0.8786720037460327,-19.195556640625,-0.2593994140625,1.9378662109375
7.249999900000001,-8.995016098022461,-2.808398485183716,-0.9911994934082031,-12.9547119140625,-8.5601806640625,9.1400146484375
7.2699999,-9.126696586608887,-2.7748796939849854,-1.0965443849563599,-4.9591064453125,-19.5159912109375,13.946533203125
7.289999900000001,-9.248801231384277,-2.691082715988159,-1.1563993692398071,2.349853515625,-23.193359375,16.3726806640625
7.3099999,-9.318233489990234,-2.5785553455352783,-1.1276689767837524,7.476806640625,-16.0369873046875,15.167236328125
7.329999900000001,-9.30386734008789,-2.451662540435791,-1.0079588890075684,10.4827880859375,-3.84521484375,10.986328125
7.3499999,-9.227252960205078,-2.3343467712402344,-0.8427590131759644,13.00048828125,2.3193359375,6.7291259765625
7.369999900000001,-9.150638580322266,-2.248155355453491,-0.6919242739677429,15.472412109375,-2.5634765625,5.43212890625
7.3899999,-9.062053680419922,-2.183511972427368,-0.5817909836769104,17.3492431640625,-11.474609375,7.0343017578125
7.409999900000001,-8.93037223815918,-2.145204782485962,-0.49799394607543945,19.59228515625,-14.5263671875,9.0484619140625
7.4299999,-8.731653213500977,-2.1523873805999756,-0.40701428055763245,12.847900390625,-11.962890625,13.48876953125
7.449999900000001,-8.473079681396484,-2.164358377456665,-0.31603461503982544,7.7667236328125,-8.11767578125,16.632080078125
7.4699999,-8.192957878112793,-2.1978771686553955,-0.21547815203666687,5.43212890625,-7.8125,17.0135498046875
7.489999900000001,-7.977479934692383,-2.188300371170044,-0.12928688526153564,3.631591796875,-9.063720703125,15.5792236328125
7.5099999,-7.905653953552246,-2.123656988143921,-0.07182604819536209,1.220703125,-9.46044921875,13.519287109375
7.529999900000001,-7.994239330291748,-2.0231003761291504,-0.021547814831137657,-1.5106201171875,-9.307861328125,13.0767822265625
7.5499999,-8.2312650680542,-1.9105730056762695,0.033518824726343155,-4.9591064453125,-9.033203125,15.3045654296875
7.569999900000001,-8.518569946289062,-1.8387469053268433,0.13168109953403473,-10.6658935546875,-1.556396484375,18.24951171875
7.5899999000000005,-8.87051773071289,-1.8411411046981812,0.2513911724090576,-16.571044921875,16.021728515625,20.0653076171875
7.609999900000001,-9.318233489990234,-1.9057846069335938,0.3423708379268646,-19.04296875,27.3895263671875,22.552490234375
7.6299999000000005,-9.86650562286377,-1.9800047874450684,0.36152446269989014,-17.425537109375,19.989013671875,24.47509765625
7.649999900000001,-10.436325073242188,-2.0374655723571777,0.31124621629714966,-14.95361328125,4.6844482421875,23.956298828125
7.6699999000000005,-10.919954299926758,-2.0470423698425293,0.22505496442317963,-15.289306640625,-5.9661865234375,23.4375
7.6899999,-11.226411819458008,-2.0039467811584473,0.1412578970193863,-17.1661376953125,-11.41357421875,26.153564453125
7.709999900000001,-11.350910186767578,-1.9177556037902832,0.11252748221158981,-18.0206298828125,-16.7083740234375,29.7698974609375
7.7299999,-11.429919242858887,-1.8291701078414917,0.1364694982767105,-19.378662109375,-16.54052734375,29.3426513671875
7.749999900000001,-11.494562149047852,-1.7262194156646729,0.19153612852096558,-21.1639404296875,-10.1165771484375,23.590087890625
7.7699999,-11.547234535217285,-1.6424223184585571,0.2825157940387726,-20.6146240234375,-11.6729736328125,13.671875
7.789999900000001,-11.587936401367188,-1.5705963373184204,0.363918662071228,-17.4560546875,-23.01025390625,0.4425048828125
7.8099999,-11.60948371887207,-1.5155296325683594,0.4141969084739685,-14.7552490234375,-30.6243896484375,-15.0299072265625
7.829999900000001,-11.571176528930664,-1.479616641998291,0.4381389021873474,-12.14599609375,-28.3050537109375,-31.707763671875
7.8499999,-11.456254959106445,-1.4724340438842773,0.4429273009300232,-8.6822509765625,-23.8037109375,-48.0499267578125
7.869999900000001,-11.279084205627441,-1.5203180313110352,0.4405331015586853,-7.232666015625,-22.6593017578125,-62.225341796875
7.8899999,-11.027692794799805,-1.6280571222305298,0.43095630407333374,-4.608154296875,-19.6075439453125,-71.83837890625
7.909999900000001,-10.766724586486816,-1.821987509727478,0.4357447028160095,-1.0986328125,-16.510009765625,-75.3936767578125
7.9299999,-10.541669845581055,-2.10210919380188,0.45250412821769714,2.1820068359375,-16.11328125,-70.7855224609375
7.949999900000001,-10.374075889587402,-2.449268341064453,0.4884171485900879,3.9825439453125,-21.3623046875,-59.9365234375
7.9699999,-10.256759643554688,-2.8107926845550537,0.5363011956214905,4.547119140625,-28.717041015625,-49.072265625
7.989999900000001,-10.129867553710938,-3.114856481552124,0.6105214357376099,4.0740966796875,-31.585693359375,-42.8619384765625
8.0099999,-10.007762908935547,-3.3446998596191406,0.6823474764823914,3.35693359375,-26.91650390625,-42.05322265625
8.0299999,-9.895236015319824,-3.5027170181274414,0.7661445140838623,4.57763671875,-23.13232421875,-45.5322265625
8.049999900000001,-9.799467086791992,-3.6152446269989014,0.8475474119186401,6.866455078125,-22.8118896484375,-50.72021484375
8.069999900000001,-9.72285270690918,-3.73016619682312,0.933738648891449,8.026123046875,-19.4549560546875,-57.92236328125
8.0899999,-9.672574996948242,-3.8594532012939453,1.0271124839782715,6.8359375,-11.444091796875,-66.9403076171875
8.1099999,-9.62947940826416,-4.019864559173584,1.1204863786697388,6.7138671875,-3.8909912109375,-77.5604248046875
8.129999900000001,-9.59835433959961,-4.20421838760376,1.1971008777618408,8.087158203125,-1.3580322265625,-89.8284912109375
8.149999900000001,-9.581595420837402,-4.4077253341674805,1.256955862045288,7.4005126953125,-0.2899169921875,-102.3712158203125
8.1699999,-9.605537414550781,-4.632780075073242,1.292868971824646,3.4027099609375,6.04248046875,-114.80712890625
8.1899999,-9.66539192199707,-4.876988887786865,1.290474772453308,-0.2899169921875,13.1988525390625,-125.518798828125
8.2099999,-9.655815124511719,-5.142745018005371,1.2832920551300049,0.9002685546875,7.9803466796875,-132.080078125
8.229999900000001,-9.548076629638672,-5.408501625061035,1.280897855758667,0.4119873046875,-0.79345703125,-134.521484375
8.2499999,-9.265560150146484,-5.659893035888672,1.2665326595306396,-4.8675537109375,0.579833984375,-136.16943359375
8.2699999,-8.825027465820312,-5.916072368621826,1.290474772453308,-8.453369140625,5.889892578125,-137.1307373046875
8.2899999,-8.279149055480957,-6.169857978820801,1.3096283674240112,-8.4228515625,9.7503662109375,-135.1470947265625
8.309999900000001,-7.769184589385986,-6.469132900238037,1.3239935636520386,-10.2691650390625,11.749267578125,-132.415771484375
8.3299999,-7.285555839538574,-6.797138690948486,1.3048399686813354,-11.6424560546875,14.1754150390625,-126.9989013671875
8.3499999,-6.8809356689453125,-7.15387487411499,1.2521674633026123,-12.7410888671875,14.4195556640625,-118.3013916015625
8.3699999,-6.574477672576904,-7.515398979187012,1.1492167711257935,-14.2364501953125,11.2762451171875,-107.2540283203125
8.389999900000001,-6.347028732299805,-7.850587368011475,1.01753568649292,-14.0380859375,5.6610107421875,-95.9930419921875
8.4099999,-6.162675380706787,-8.121131896972656,0.8906430602073669,-12.664794921875,0.0152587890625,-88.409423828125
8.4299999,-5.985504150390625,-8.288725852966309,0.7972691655158997,-11.0321044921875,-1.800537109375,-85.113525390625
8.4499999,-5.801150798797607,-8.377311706542969,0.7493851184844971,-11.2152099609375,3.7078857421875,-85.8612060546875
8.469999900000001,-5.6191911697387695,-8.42040729522705,0.7158663272857666,-12.420654296875,12.4053955078125,-87.9669189453125
8.4899999,-5.43723201751709,-8.456320762634277,0.6919242739677429,-11.77978515625,12.725830078125,-90.2099609375
8.5099999,-5.250484466552734,-8.504204750061035,0.6631938815116882,-10.07080078125,5.55419921875,-91.796875
8.5299999,-5.015852451324463,-8.56884765625,0.629675030708313,-11.627197265625,-0.1220703125,-91.6900634765625
8.549999900000001,-4.685452938079834,-8.647856712341309,0.5961562395095825,-15.9454345703125,-1.220703125,-88.897705078125
8.569999900000001,-4.24970817565918,-8.710105895996094,0.5913678407669067,-18.890380859375,-1.495361328125,-83.9080810546875
8.5899999,-3.734954595565796,-8.736441612243652,0.6009446382522583,-20.1873779296875,-0.9002685546875,-78.460693359375
8.6099999,-3.224989652633667,-8.729259490966797,0.5793967843055725,-22.1710205078125,-1.5869140625,-72.418212890625
8.629999900000001,-2.786850690841675,-8.698134422302246,0.5219359993934631,-24.59716796875,-8.636474609375,-64.1632080078125
8.649999900000001,-2.43011474609375,-8.678980827331543,0.4357447028160095,-27.618408203125,-15.07568359375,-55.0994873046875
8.6699999,-2.185906171798706,-8.698134422302246,0.31842881441116333,-30.5938720703125,-12.9852294921875,-48.095703125
8.6899999,-1.9943699836730957,-8.722076416015625,0.21547815203666687,-31.2042236328125,-7.720947265625,-44.0826416015625
8.709999900000001,-1.8483237028121948,-8.755595207214355,0.11013327538967133,-29.6173095703125,-3.6773681640625,-42.4041748046875
8.729999900000001,-1.7812861204147339,-8.808267593383789,-0.043095629662275314,-25.5889892578125,-4.08935546875,-41.44287109375
8.7499999,-1.7573440074920654,-8.880094528198242,-0.24181437492370605,-19.53125,-10.8184814453125,-39.6881103515625
8.7699999,-1.723825216293335,-8.96389102935791,-0.4381389021873474,-13.1378173828125,-18.157958984375,-37.0941162109375
8.7899999,-1.6352397203445435,-9.064447402954102,-0.586579442024231,-9.0179443359375,-16.78466796875,-35.4156494140625
8.809999900000001,-1.45806884765625,-9.157821655273438,-0.6584054827690125,-6.378173828125,-6.6070556640625,-34.6832275390625
8.8299999,-1.2210428714752197,-9.255983352661133,-0.667982280254364,-1.2969970703125,0.396728515625,-32.6995849609375
8.8499999,-0.9768342971801758,-9.354146003723145,-0.6224924325942993,3.6468505859375,1.6021728515625,-29.2205810546875
8.8699999,-0.7589619159698486,-9.44991397857666,-0.5506663918495178,2.716064453125,11.199951171875,-27.2064208984375
8.889999900000001,-0.5554547905921936,-9.555258750915527,-0.42616790533065796,-1.40380859375,28.86962890625,-28.900146484375
8.9099999,-0.38307225704193115,-9.672574996948242,-0.30885201692581177,-2.8228759765625,47.3480224609375,-30.181884765625
8.9299999,-0.26815059781074524,-9.799467086791992,-0.3016694188117981,-4.8065185546875,62.80517578125,-28.80859375
8.9499999,-0.2298433631658554,-9.919178009033203,-0.3878606855869293,-11.993408203125,66.864013671875,-27.83203125
8.969999900000001,-0.2513911724090576,-9.967061996459961,-0.6009446382522583,-3.9215087890625,65.6585693359375,-28.86962890625
8.9899999,-0.33039984107017517,-9.986215591430664,-0.8595184087753296,1.9989013671875,60.1806640625,-29.4342041015625
9.0099999,-0.4692635238170624,-9.981427192687988,-1.1540051698684692,3.0517578125,46.56982421875,-28.9764404296875
9.0299999,-0.5961562395095825,-9.99100399017334,-1.359906554222107,15.93017578125,26.2451171875,-30.7769775390625
9.049999900000001,-0.706289529800415,-10.017339706420898,-1.4676456451416016,24.6734619140625,8.941650390625,-33.2489013671875
9.069999900000001,-0.751779317855835,-10.070012092590332,-1.41257905960083,25.848388671875,-0.4425048828125,-34.942626953125
9.0899999,-0.6272808313369751,-10.17296314239502,-1.1037269830703735,24.3072509765625,-10.4827880859375,-34.942626953125
9.1099999,-0.4165911078453064,-10.247182846069336,-0.7565677165985107,21.30126953125,-15.19775390625,-31.06689453125
9.129999900000001,-0.11013327538967133,-10.316615104675293,-0.3232172429561615,12.5579833984375,-11.7034912109375,-29.693603515625
9.149999900000001,0.20350714027881622,-10.319009780883789,-0.004788403399288654,8.72802734375,-4.9591064453125,-29.9835205078125
9.1699999,0.48602294921875,-10.259154319763184,0.21547815203666687,4.5318603515625,-4.1046142578125,-28.045654296875
9.1899999,0.7134721279144287,-10.192116737365723,0.3208230137825012,0.9613037109375,-7.2021484375,-25.1312255859375
9.209999900000001,0.8595184087753296,-10.137049674987793,0.33279404044151306,2.6092529296875,-8.3160400390625,-23.92578125
9.229999900000001,0.9313444495201111,-10.103530883789062,0.29209262132644653,2.5787353515625,-4.8828125,-23.5595703125
9.2499999,0.933738648891449,-10.074800491333008,0.21547815203666687,0.1220703125,-2.5634765625,-24.200439453125
9.2699999,0.8858546018600464,-10.055646896362305,0.09576806426048279,2.4566650390625,-3.60107421875,-25.87890625
9.2899999,0.7996633648872375,-10.002974510192871,-0.05985504388809204,10.498046875,-6.591796875,-26.6571044921875
9.309999900000001,0.7445967197418213,-9.931148529052734,-0.22266076505184174,14.22119140625,-11.4593505859375,-26.9775390625
9.3299999,0.7661445140838623,-9.864110946655273,-0.2944868206977844,12.5732421875,-15.411376953125,-27.4505615234375
9.3499999,0.8786720037460327,-9.816226959228516,-0.2801215946674347,11.7340087890625,-7.4310302734375,-27.03857421875
9.3699999,1.0558429956436157,-9.794678688049316,-0.17477671802043915,16.357421875,7.720947265625,-26.67236328125
9.389999900000001,1.1803414821624756,-9.773131370544434,-0.15562310814857483,24.505615234375,15.2740478515625,-26.8707275390625
9.4099999,1.2856862545013428,-9.758766174316406,-0.17238251864910126,37.628173828125,3.2806396484375,-28.594970703125
9.4299999,1.3239935636520386,-9.679757118225098,-0.24420857429504395,56.640625,-16.754150390625,-32.989501953125
9.4499999,1.3838485479354858,-9.593565940856934,-0.19871874153614044,60.6689453125,-29.23583984375,-36.0565185546875
9.469999900000001,1.460463047027588,-9.411606788635254,-0.002394201699644327,49.5452880859375,-29.1290283203125,-32.7606201171875
9.4899999,1.5083470344543457,-9.2033109664917,0.2968810200691223,35.70556640625,-30.2886962890625,-33.2794189453125
9.5099999,1.5682021379470825,-8.973467826843262,0.629675030708313,27.2369384765625,-40.191650390625,-36.376953125
9.5299999,1.7118542194366455,-8.78432559967041,0.9696516990661621,26.9012451171875,-44.43359375,-35.9039306640625
9.549999900000001,1.9800047874450684,-8.674192428588867,1.290474772453308,23.2391357421875,-33.50830078125,-33.7982177734375
9.569999900000001,2.3343467712402344,-8.635885238647461,1.5969325304031372,16.143798828125,-12.6190185546875,-33.6456298828125
9.5899999,2.7126305103302,-8.62391471862793,1.8124107122421265,14.09912109375,8.6822509765625,-31.8756103515625
9.6099999,3.0119056701660156,-8.592789649963379,1.9105730056762695,8.026123046875,17.2271728515625,-28.900146484375
9.629999900000001,3.227383852005005,-8.53293514251709,1.889025092124939,0.732421875,22.76611328125,-25.6500244140625
9.649999900000001,3.35667085647583,-8.437167167663574,1.8076223134994507,0.8544921875,35.94970703125,-21.9268798828125
9.6699999,3.421314239501953,-8.365341186523438,1.702277421951294,7.293701171875,48.7213134765625,-16.05224609375
9.6899999,3.3877954483032227,-8.35336971282959,1.6112977266311646,7.4920654296875,52.3223876953125,-9.3841552734375
9.709999900000001,3.2369606494903564,-8.427590370178223,1.525106430053711,7.32421875,52.55126953125,-1.220703125
9.729999900000001,3.00711727142334,-8.559270858764648,1.482010841369629,10.25390625,52.2308349609375,6.53076171875
9.7499999,2.7461493015289307,-8.7268648147583,1.5155296325683594,14.0228271484375,50.78125,11.505126953125
9.7699999,2.470816135406494,-8.877699851989746,1.5849615335464478,14.0838623046875,50.1708984375,13.3056640625
9.7899999,2.2385785579681396,-8.987833023071289,1.6735470294952393,18.4173583984375,47.4395751953125,13.092041015625
9.809999900000001,2.049436569213867,-9.047688484191895,1.7525556087493896,24.9176025390625,40.8477783203125,11.7950439453125
9.8299999,1.9153614044189453,-9.095572471618652,1.8124107122421265,27.740478515625,31.829833984375,10.0250244140625
9.8499999,1.867477297782898,-9.188945770263672,1.8698714971542358,31.5399169921875,19.5465087890625,12.298583984375
9.8699999,1.8842366933822632,-9.35654067993164,1.9752163887023926,35.5682373046875,3.4332275390625,20.20263671875
9.889999900000001,1.9752163887023926,-9.593565940856934,2.1787235736846924,33.966064453125,-6.2408447265625,30.1666259765625
9.9099999,2.0638017654418945,-9.84256362915039,2.4396915435791016,24.9481201171875,0.67138671875,38.8946533203125
9.9299999,2.0925323963165283,-10.022128105163574,2.7317841053009033,12.9852294921875,12.75634765625,44.0673828125
9.9499999,2.0159177780151367,-10.093954086303711,2.9975404739379883,5.279541015625,19.0887451171875,43.914794921875
9.969999900000001,1.7956513166427612,-10.041281700134277,3.181894063949585,2.1514892578125,20.5535888671875,36.712646484375
9.9899999,1.5059528350830078,-9.873687744140625,3.287238836288452,2.3651123046875,20.721435546875,24.017333984375
10.0099999,1.2258312702178955,-9.66299819946289,3.3303346633911133,4.0435791015625,17.63916015625,9.6282958984375
10.0299999,1.039083480834961,-9.485827445983887,3.3518824577331543,4.8828125,6.378173828125,-1.0986328125
10.049999900000001,1.0007762908935547,-9.373299598693848,3.3638534545898438,2.4261474609375,-4.7149658203125,-5.157470703125
10.069999900000001,1.1252747774124146,-9.32541561126709,3.3901896476745605,-7.7667236328125,-7.26318359375,-5.9051513671875
10.0899999,1.37906014919281,-9.30386734008789,3.4524388313293457,-23.651123046875,-5.55419921875,-6.2255859375
10.1099999,1.6974890232086182,-9.260771751403809,3.4955344200134277,-34.7900390625,-1.2664794921875,-2.3345947265625
10.129999900000001,1.9943699836730957,-9.181763648986816,3.471592426300049,-35.2935791015625,-1.3427734375,4.425048828125
10.149999900000001,2.161964178085327,-9.093177795410156,3.359065055847168,-34.8358154296875,-8.48388671875,10.43701171875
10.1699999,2.183511972427368,-8.987833023071289,3.1435868740081787,-29.693603515625,-15.7928466796875,17.6849365234375
10.1899999,2.070984363555908,-8.89685344696045,2.868253707885742,-19.59228515625,-25.08544921875,26.2908935546875
10.209999900000001,1.7046716213226318,-8.738836288452148,2.3774423599243164,-11.3525390625,-38.055419921875,42.144775390625
10.229999900000001,1.6280571222305298,-8.645462036132812,2.3032219409942627,-9.0789794921875,-30.792236328125,48.309326171875
10.2499999,1.5921441316604614,-8.576030731201172,2.3271639347076416,-7.9498291015625,-16.3421630859375,57.43408203125
10.2699999,1.4844050407409668,-8.614337921142578,2.3511061668395996,-8.392333984375,-5.8135986328125,69.6258544921875
10.2899999,1.2856862545013428,-8.769960403442383,2.3702597618103027,-7.4462890625,-8.7738037109375,79.2694091796875
10.309999900000001,0.9744400978088379,-9.016563415527344,2.3558945655822754,-3.326416015625,-11.993408203125,83.648681640625
10.3299999,0.6129156351089478,-9.284713745117188,2.3774423599243164,0.030517578125,-5.7830810546875,85.2508544921875
10.3499999,0.14844051003456116,-9.5408935546875,2.4013843536376953,-2.01416015625,2.3193359375,87.738037109375
10.3699999,-0.33279404044151306,-9.734824180603027,2.4588451385498047,-4.8828125,2.288818359375,88.6688232421875
10.389999900000001,-0.828393816947937,-9.84495735168457,2.5043349266052246,-4.7760009765625,3.570556640625,85.418701171875
10.4099999,-1.2641384601593018,-9.876082420349121,2.5474305152893066,-2.685546875,12.176513671875,82.3822021484375
10.4299999,-1.6352397203445435,-9.785101890563965,2.5761611461639404,-4.119873046875,16.632080078125,83.06884765625
10.4499999,-1.8483237028121948,-9.603142738342285,2.585737943649292,-10.101318359375,13.5955810546875,82.5958251953125
10.469999900000001,-2.013523578643799,-9.404424667358398,2.5282769203186035,-11.3525390625,18.0511474609375,79.1168212890625
10.4899999,-2.123656988143921,-9.21288776397705,2.4372973442077637,-6.3323974609375,31.1431884765625,78.765869140625
10.5099999,-2.231395959854126,-9.064447402954102,2.3295583724975586,-4.2724609375,39.1693115234375,83.31298828125
10.5299999,-2.499546527862549,-9.014169692993164,2.161964178085327,-6.7138671875,30.8990478515625,91.30859375
10.549999900000001,-2.8778305053710938,-9.004592895507812,1.944091796875,-10.7421875,13.0157470703125,100.7232666015625
10.569999900000001,-3.3063924312591553,-9.030928611755371,1.699883222579956,-10.0860595703125,3.143310546875,108.2916259765625
10.5899999,-3.758896589279175,-9.016563415527344,1.4221558570861816,-0.823974609375,6.134033203125,111.0687255859375
10.6099999,-4.091690540313721,-8.927978515625,1.1827356815338135,9.1552734375,2.7618408203125,107.2235107421875
10.629999900000001,-4.266467571258545,-8.7484130859375,1.0199298858642578,14.4805908203125,-5.6610107421875,101.287841796875
10.649999900000001,-4.3861775398254395,-8.523358345031738,0.8954314589500427,20.6146240234375,-1.5411376953125,101.6387939453125
10.6699999,-4.458003520965576,-8.267178535461426,0.8355764150619507,29.1900634765625,8.331298828125,108.5205078125
10.6899999,-4.637568473815918,-8.039729118347168,0.7972691655158997,33.99658203125,6.40869140625,113.1591796875
10.709999900000001,-4.934449672698975,-7.805097579956055,0.7996633648872375,37.4908447265625,-2.471923828125,111.38916015625
10.729999900000001,-5.243301868438721,-7.572859764099121,0.8762778043746948,39.6728515625,-1.922607421875,106.353759765625
10.7499999,-5.602431774139404,-7.364564418792725,0.9600749015808105,40.9698486328125,10.7269287109375,106.93359375
10.7699999,-5.913678169250488,-7.117961883544922,1.0965443849563599,39.55078125,11.627197265625,108.642578125
10.7899999,-6.2632317543029785,-6.900089263916016,1.2090718746185303,37.4908447265625,1.9073486328125,99.3804931640625
10.809999900000001,-6.615179061889648,-6.677428722381592,1.3311761617660522,39.4134521484375,-0.823974609375,83.770751953125
10.8299999,-6.842628479003906,-6.502651691436768,1.5203180313110352,38.02490234375,4.69970703125,76.47705078125
10.8499999,-7.038952827453613,-6.406883716583252,1.6711528301239014,33.3404541015625,13.275146484375,82.2296142578125
10.8699999,-7.168240070343018,-6.335057735443115,1.8722656965255737,27.099609375,14.6026611328125,87.4176025390625
10.889999900000001,-7.364564418792725,-6.296750545501709,1.9919757843017578,25.57373046875,23.37646484375,80.291748046875
10.9099999,-7.580042362213135,-6.208165168762207,2.145204782485962,25.604248046875,36.8499755859375,71.1517333984375
10.9299999,-7.841010570526123,-6.086060523986816,2.27209734916687,22.03369140625,42.449951171875,67.4591064453125
10.9499999,-8.078036308288574,-5.92325496673584,2.382230758666992,16.7999267578125,37.5823974609375,64.5294189453125
10.969999900000001,-8.233659744262695,-5.748478412628174,2.454056739807129,12.298583984375,29.78515625,57.67822265625
10.9899999,-8.288725852966309,-5.5545477867126465,2.516305923461914,9.1400146484375,29.5562744140625,54.351806640625
11.0099999,-8.269572257995605,-5.413290023803711,2.5546131134033203,7.080078125,33.9508056640625,59.5855712890625
11.0299999,-8.255207061767578,-5.281609058380127,2.5905263423919678,2.899169921875,31.1431884765625,68.3441162109375
11.049999900000001,-8.276755332946777,-5.185841083526611,2.5737667083740234,-2.8228759765625,23.681640625,71.6552734375
11.069999900000001,-8.348581314086914,-5.0876784324646,2.513911724090576,-6.4544677734375,18.24951171875,73.9593505859375
11.0899999,-8.480262756347656,-4.9368438720703125,2.432508945465088,-7.75146484375,17.8070068359375,78.6590576171875
11.1099999,-8.643068313598633,-4.757278919219971,2.341529369354248,-9.2620849609375,24.5361328125,79.7882080078125
11.129999900000001,-8.880094528198242,-4.534617900848389,2.2218191623687744,-11.3067626953125,29.96826171875,78.857421875
11.149999900000001,-9.17697525024414,-4.273650169372559,2.0207061767578125,-13.2293701171875,24.810791015625,81.4666748046875
11.1699999,-9.445125579833984,-3.955221176147461,1.7549498081207275,-15.0909423828125,8.758544921875,82.6873779296875
11.1899999,-9.658209800720215,-3.6104562282562256,1.4700398445129395,-12.5732421875,-1.8768310546875,73.7457275390625
11.209999900000001,-9.797073364257812,-3.2585084438323975,1.2617442607879639,-7.9193115234375,0.9613037109375,60.3179931640625
11.229999900000001,-9.840168952941895,-2.9281086921691895,1.192312479019165,-6.103515625,11.1541748046875,50.72021484375
11.2499999,-9.847352027893066,-2.626439332962036,1.2114660739898682,-5.92041015625,24.3377685546875,45.7000732421875
11.2699999,-9.888052940368652,-2.3343467712402344,1.280897855758667,-5.2947998046875,32.2113037109375,39.2303466796875
11.2899999,-9.971850395202637,-2.051830768585205,1.3335703611373901,-4.0740966796875,32.2418212890625,30.4718017578125
11.309999900000001,-10.113107681274414,-1.764526605606079,1.3431471586227417,-2.716064453125,27.3895263671875,25.32958984375
11.3299999,-10.213664054870605,-1.5322890281677246,1.3479355573654175,-2.8076171875,23.101806640625,27.34375
11.3499999,-10.237606048583984,-1.4053963422775269,1.3670891523361206,-1.40380859375,26.9622802734375,35.8123779296875
11.3699999,-10.261548042297363,-1.3096283674240112,1.3527239561080933,2.01416015625,34.515380859375,45.7000732421875
11.389999900000001,-10.251971244812012,-1.2473790645599365,1.335964560508728,2.25830078125,28.3355712890625,49.1180419921875
11.4099999,-10.321403503417969,-1.1468225717544556,1.2497732639312744,4.5623779296875,16.0064697265625,49.49951171875
11.4299999,-10.450690269470215,-1.0103530883789062,1.1300631761550903,7.8582763671875,2.899169921875,48.675537109375
11.4499999,-10.623072624206543,-0.8451532125473022,1.0271124839782715,7.5836181640625,-7.9345703125,41.259765625
11.469999900000001,-10.776301383972168,-0.6823474764823914,0.9816226959228516,3.2196044921875,-10.4827880859375,27.374267578125
11.4899999,-10.869675636291504,-0.5554547905921936,1.0271124839782715,-2.410888671875,-3.8604736328125,14.2974853515625
11.5099999,-10.90798282623291,-0.4908113479614258,1.1300631761550903,-6.7596435546875,7.6446533203125,6.011962890625
11.5299999,-10.90558910369873,-0.49559974670410156,1.2282254695892334,-10.345458984375,15.0909423828125,-2.0904541015625
11.549999900000001,-10.90798282623291,-0.5482721924781799,1.2425906658172607,-13.4735107421875,11.9171142578125,-11.4288330078125
11.569999900000001,-10.8720703125,-0.6488286852836609,1.161187767982483,-15.5029296875,2.7313232421875,-17.4560546875
11.5899999,-10.788272857666016,-0.768538773059845,0.9911994934082031,-13.031005859375,1.434326171875,-14.2822265625
11.6099999,-10.668562889099121,-0.912190854549408,0.7876923680305481,-6.9580078125,6.4849853515625,-6.591796875
11.629999900000001,-10.563218116760254,-1.0342950820922852,0.5793967843055725,-0.457763671875,5.523681640625,-3.8909912109375
11.649999900000001,-10.481815338134766,-1.1324573755264282,0.40222588181495667,7.8277587890625,-2.777099609375,-7.3699951171875
11.6699999,-10.433931350708008,-1.1540051698684692,0.24181437492370605,19.1802978515625,-10.8795166015625,-8.5296630859375
11.6899999,-10.314221382141113,-1.1420341730117798,0.15562310814857483,28.7322998046875,-18.9361572265625,-7.8887939453125
11.709999900000001,-10.15141487121582,-1.0821791887283325,0.15562310814857483,34.027099609375,-24.7955322265625,-6.0577392578125
11.729999900000001,-10.007762908935547,-1.01753568649292,0.2968810200691223,34.1644287109375,-24.4293212890625,-3.3721923828125
11.7499999,-9.986215591430664,-0.9576807022094727,0.5722141861915588,29.78515625,-14.95361328125,-4.180908203125
11.7699999,-10.180145263671875,-0.8978256583213806,0.9552865028381348,23.0560302734375,-1.434326171875,-14.4500732421875
11.7899999,-10.627861022949219,-0.8834604024887085,1.3670891523361206,16.1590576171875,3.9215087890625,-36.1328125
11.809999900000001,-11.317391395568848,-0.9002198576927185,1.7286136150360107,7.965087890625,-8.331298828125,-63.0340576171875
11.8299999,-12.131420135498047,-0.9816226959228516,2.0039467811584473,-4.6844482421875,-30.731201171875,-92.3004150390625
11.8499999,-12.844892501831055,-1.1109095811843872,2.2002713680267334,-19.8211669921875,-44.2962646484375,-124.7100830078125
11.8699999,-13.26866626739502,-1.3120225667953491,2.341529369354248,-33.5235595703125,-38.818359375,-156.3568115234375
11.889999900000001,-13.237541198730469,-1.6089035272598267,2.4372973442077637,-43.6859130859375,-20.6146240234375,-180.60302734375
11.9099999,-12.789825439453125,-2.0470423698425293,2.4684219360351562,-48.6907958984375,-2.197265625,-194.732666015625
11.9299999,-12.069170951843262,-2.676717519760132,2.4157495498657227,-48.9501953125,12.298583984375,-200.5157470703125
11.9499999,-11.314997673034668,-3.4404678344726562,2.2816741466522217,-46.5240478515625,23.651123046875,-202.9266357421875
11.969999900000001,-10.644620895385742,-4.247313976287842,2.051830768585205,-43.853759765625,32.04345703125,-207.33642578125
11.9899999,-10.014945983886719,-5.051765441894531,1.7334020137786865,-40.8935546875,27.9541015625,-209.5794677734375
12.0099999,-9.363722801208496,-5.781997203826904,1.3670891523361206,-35.7208251953125,13.427734375,-203.55224609375
12.0299999,-8.62391471862793,-6.50025749206543,0.9959878921508789,-30.792236328125,4.791259765625,-191.0400390625
12.049999900000001,-7.9631147384643555,-7.146692276000977,0.6655880808830261,-26.2908935546875,7.4462890625,-177.4749755859375
12.069999900000001,-7.340622425079346,-7.682993412017822,0.44532153010368347,-25.146484375,14.2364501953125,-174.98779296875
12.0899999,-6.818686485290527,-8.061277389526367,0.28969839215278625,-23.040771484375,27.6641845703125,-185.7452392578125
12.1099999,-6.215347766876221,-8.288725852966309,0.1867477297782898,-15.68603515625,41.2139892578125,-195.4345703125
12.129999900000001,-5.489904403686523,-8.451532363891602,0.090979665517807,-5.1422119140625,47.5921630859375,-194.183349609375
12.149999900000001,-4.884171485900879,-8.674192428588867,-0.06464344263076782,5.462646484375,43.5333251953125,-185.638427734375
12.1699999,-4.575319290161133,-8.875306129455566,-0.24181437492370605,13.00048828125,27.984619140625,-183.2427978515625
12.1899999,-4.41969633102417,-8.978256225585938,-0.37828385829925537,14.22119140625,12.6800537109375,-197.9827880859375
12.209999900000001,-4.194641590118408,-8.856152534484863,-0.3734954595565796,15.07568359375,10.0555419921875,-220.0469970703125
12.229999900000001,-3.533841609954834,-8.573636054992676,-0.16998831927776337,15.594482421875,21.728515625,-229.4464111328125
12.2499999,-2.540247917175293,-8.322244644165039,0.08858546614646912,15.472412109375,42.6483154296875,-221.5728759765625
12.2699999,-1.3886369466781616,-8.185775756835938,0.33039984107017517,16.510009765625,51.81884765625,-207.183837890625
12.289999900000002,-0.3663128614425659,-8.238448143005371,0.4429273009300232,16.7083740234375,43.6859130859375,-192.9779052734375
12.309999900000001,0.4405331015586853,-8.322244644165039,0.4405331015586853,17.1661376953125,35.430908203125,-175.4913330078125
12.3299999,1.1468225717544556,-8.379706382751465,0.42856210470199585,14.556884765625,28.9154052734375,-159.515380859375
12.3499999,1.742978811264038,-8.379706382751465,0.40701428055763245,11.3372802734375,28.045654296875,-145.0347900390625
12.3699999,2.2409727573394775,-8.33182144165039,0.395043283700943,10.68115234375,25.32958984375,-129.547119140625
12.389999900000001,2.655169725418091,-8.248024940490723,0.37828385829925537,11.6424560546875,16.5863037109375,-114.471435546875
12.4099999,3.0621838569641113,-8.142680168151855,0.38307225704193115,10.498046875,7.1868896484375,-101.348876953125
12.4299999,3.4739866256713867,-8.030152320861816,0.43095630407333374,5.889892578125,5.31005859375,-87.9974365234375
12.4499999,3.8977603912353516,-7.979874134063721,0.5315127968788147,-0.7171630859375,10.2386474609375,-72.265625
12.469999900000001,4.216189384460449,-8.018181800842285,0.5770025849342346,-5.7830810546875,13.4429931640625,-54.6417236328125
12.4899999,4.3622355461120605,-8.125920295715332,0.5171475410461426,-7.5225830078125,2.3193359375,-38.1317138671875
12.5099999,4.383783340454102,-8.255207061767578,0.4165911078453064,-8.7890625,-15.1519775390625,-27.008056640625
12.5299999,4.3191399574279785,-8.305485725402832,0.28969839215278625,-11.23046875,-12.39013671875,-21.42333984375
12.549999900000001,4.390965938568115,-8.238448143005371,0.3064578175544739,-17.8985595703125,1.800537109375,-20.263671875
12.569999900000001,4.5394062995910645,-8.111555099487305,0.4165911078453064,-27.6336669921875,14.923095703125,-18.49365234375
12.5899999,4.608838081359863,-8.010998725891113,0.47884035110473633,-35.308837890625,19.6533203125,-13.0767822265625
12.6099999,4.606443881988525,-7.951143741607666,0.5171475410461426,-41.229248046875,5.37109375,-8.23974609375
12.629999900000001,4.558559894561768,-7.929595947265625,0.5506663918495178,-51.055908203125,-10.2996826171875,-10.162353515625
12.649999900000001,4.572925090789795,-7.862558364868164,0.6607996821403503,-65.3533935546875,-8.5296630859375,-14.9688720703125
12.6699999,4.709394931793213,-7.738059997558594,0.8236053586006165,-83.31298828125,1.15966796875,-18.06640625
12.6899999,4.908113479614258,-7.60637903213501,0.9433154463768005,-101.5625,2.593994140625,-19.3939208984375
12.709999900000001,4.982333660125732,-7.592013359069824,0.8236053586006165,-113.2049560546875,-6.3934326171875,-17.1356201171875
12.729999900000001,4.884171485900879,-7.6782050132751465,0.47405192255973816,-115.7684326171875,-23.895263671875,-10.9710693359375
12.7499999,4.778826713562012,-7.802703380584717,0.07900865375995636,-122.6348876953125,-33.8287353515625,-7.1258544921875
12.7699999,4.685452938079834,-7.879317760467529,-0.3280056416988373,-136.0931396484375,-23.6053466796875,-13.9923095703125
12.789999900000002,4.67827033996582,-7.833827972412109,-0.7015010714530945,-147.1405029296875,-17.0440673828125,-22.4609375
12.809999900000001,4.616020679473877,-7.687781810760498,-1.2114660739898682,-148.6663818359375,-34.2559814453125,-23.101806640625
12.8299999,4.570530891418457,-7.486668586730957,-1.802833914756775,-145.8740234375,-63.1256103515625,-17.51708984375
12.8499999,4.46518611907959,-7.2783732414245605,-2.5330653190612793,-143.585205078125,-69.183349609375,-9.70458984375
12.8699999,4.345476150512695,-7.110779285430908,-3.3207578659057617,-137.7105712890625,-58.258056640625,-3.0517578125
12.889999900000001,4.225766181945801,-6.967126846313477,-4.129997730255127,-121.6583251953125,-57.2509765625,1.6937255859375
12.9099999,4.1395745277404785,-6.868964672088623,-4.9152960777282715,-96.435546875,-62.56103515625,1.40380859375
12.9299999,4.034229755401611,-6.8162922859191895,-5.66228723526001,-64.0716552734375,-54.779052734375,-0.244140625
12.9499999,3.9600095748901367,-6.809109687805176,-6.315904140472412,-27.64892578125,-41.68701171875,2.3345947265625
12.969999900000001,3.952826976776123,-6.8043212890625,-6.746860504150391,4.425048828125,-40.4205322265625,8.3160400390625
12.9899999,3.955221176147461,-6.818686485290527,-6.983886241912842,27.557373046875,-39.306640625,12.542724609375
13.0099999,3.9887399673461914,-6.785167694091797,-6.957550048828125,44.0521240234375,-27.83203125,16.4337158203125
13.0299999,4.048594951629639,-6.708553314208984,-6.710947513580322,55.48095703125,-17.333984375,20.172119140625
13.049999900000001,4.134786128997803,-6.617573261260986,-6.342240333557129,67.2607421875,-19.3634033203125,25.81787109375
13.069999900000001,4.156333923339844,-6.605602264404297,-6.0190229415893555,80.1239013671875,-32.65380859375,36.1328125
13.0899999,4.106055736541748,-6.698976516723633,-5.822698593139648,92.681884765625,-46.7071533203125,50.84228515625
13.1099999,3.974374771118164,-6.94079065322876,-5.765237808227539,105.133056640625,-56.976318359375,63.690185546875
13.129999900000001,3.689464807510376,-7.292738437652588,-5.834669589996338,122.100830078125,-62.0269775390625,72.4029541015625
13.149999900000001,3.318363666534424,-7.726089000701904,-5.925649166107178,142.2271728515625,-66.4520263671875,74.920654296875
13.1699999,2.889801502227783,-8.180987358093262,-5.925649166107178,157.623291015625,-65.8416748046875,70.12939453125
13.1899999,2.5258827209472656,-8.604761123657227,-5.719748020172119,164.642333984375,-51.6357421875,62.225341796875
13.209999900000001,2.296039342880249,-8.956708908081055,-5.240907669067383,166.44287109375,-26.9317626953125,57.8765869140625
13.229999900000001,2.183511972427368,-9.174580574035645,-4.525041103363037,164.947509765625,-2.8533935546875,59.5245361328125
13.2499999,2.1547815799713135,-9.239224433898926,-3.6727054119110107,156.982421875,11.1541748046875,62.8509521484375
13.2699999,2.183511972427368,-9.169792175292969,-2.7676970958709717,142.2882080078125,12.8326416015625,65.24658203125
13.289999900000002,2.142810583114624,-9.01895809173584,-1.8938134908676147,125.2593994140625,12.02392578125,70.4803466796875
13.309999900000001,2.0374655723571777,-8.853757858276367,-1.094150185585022,107.7423095703125,19.775390625,77.4078369140625
13.3299999,1.802833914756775,-8.705317497253418,-0.42377370595932007,90.362548828125,30.70068359375,79.681396484375
13.3499999,1.4700398445129395,-8.588001251220703,0.09576806426048279,73.9593505859375,35.0799560546875,75.5615234375
13.3699999,1.173158884048462,-8.494627952575684,0.4668693244457245,59.6771240234375,33.7982177734375,71.533203125
13.389999900000001,0.9792284965515137,-8.429984092712402,0.7230489253997803,48.431396484375,30.2581787109375,76.2481689453125
13.4099999,0.7924807667732239,-8.485051155090332,0.8906430602073669,38.9862060546875,28.6102294921875,91.00341796875
13.4299999,0.49320554733276367,-8.592789649963379,0.9864110946655273,28.7322998046875,28.0914306640625,106.5521240234375
13.4499999,0.12210428714752197,-8.698134422302246,1.048660397529602,15.8233642578125,25.8331298828125,111.51123046875
13.469999900000001,-0.26336219906806946,-8.71728801727295,1.1252747774124146,6.5765380859375,24.566650390625,109.7564697265625
13.4899999,-0.8020575642585754,-8.731653213500977,1.0582371950149536,3.7078857421875,22.064208984375,111.8621826171875
13.5099999,-1.259350061416626,-8.686163902282715,1.0007762908935547,3.662109375,0.5950927734375,117.2637939453125
13.5299999,-1.6687586307525635,-8.674192428588867,0.8954314589500427,2.166748046875,-17.486572265625,115.8599853515625
13.549999900000001,-1.8626888990402222,-8.643068313598633,0.9050082564353943,-0.4730224609375,-8.4991455078125,116.119384765625
13.569999900000001,-1.968033790588379,-8.573636054992676,0.9241618514060974,-2.0599365234375,13.8702392578125,129.8370361328125
13.5899999,-2.0446481704711914,-8.485051155090332,0.9792284965515137,-3.936767578125,11.7950439453125,147.5067138671875
13.6099999,-2.3487119674682617,-8.370129585266113,0.9600749015808105,-4.1961669921875,-7.293701171875,156.6314697265625
13.629999900000001,-2.8634653091430664,-8.236053466796875,0.8858546018600464,0,-12.542724609375,157.2265625
13.649999900000001,-3.622427225112915,-8.1139497756958,0.7541735172271729,4.5928955078125,-11.199951171875,159.36279296875
13.6699999,-4.352658748626709,-7.9415669441223145,0.6703764796257019,6.28662109375,-25.3143310546875,163.8336181640625
13.6899999,-5.109226226806641,-7.826645374298096,0.6129156351089478,12.0086669921875,-40.8477783203125,157.2723388671875
13.709999900000001,-5.743690013885498,-7.690176010131836,0.608127236366272,20.965576171875,-34.5001220703125,145.660400390625
13.729999900000001,-6.256049156188965,-7.613561630249023,0.6631938815116882,25.848388671875,-24.90234375,139.862060546875
13.7499999,-6.703764915466309,-7.448361396789551,0.7972691655158997,26.7486572265625,-31.280517578125,137.87841796875
13.7699999,-7.158663272857666,-7.261613845825195,0.9768342971801758,24.3072509765625,-37.17041015625,127.3193359375
13.789999900000002,-7.587224960327148,-6.988674640655518,1.2210428714752197,19.10400390625,-24.505615234375,115.05126953125
13.809999900000001,-7.987056732177734,-6.682217121124268,1.5083470344543457,11.5509033203125,-7.171630859375,112.8692626953125
13.8299999,-8.315062522888184,-6.320692539215088,1.7932571172714233,2.6702880859375,-0.946044921875,115.0360107421875
13.8499999,-8.614337921142578,-5.959167957305908,2.027888774871826,-5.9661865234375,0.48828125,107.6507568359375
13.8699999,-8.923190116882324,-5.578489780426025,2.1547815799713135,-13.4124755859375,10.7574462890625,95.9014892578125
13.889999900000001,-9.497797966003418,-4.896142482757568,2.1547815799713135,-27.40478515625,8.48388671875,85.3118896484375
13.9099999,-9.746794700622559,-4.627991676330566,2.0877439975738525,-36.5142822265625,6.988525390625,81.9549560546875
13.9299999,-9.93593692779541,-4.3622355461120605,2.049436569213867,-47.2564697265625,12.20703125,78.5064697265625
13.9499999,-10.113107681274414,-4.077325344085693,2.0398597717285156,-59.3719482421875,15.9759521484375,77.056884765625
13.969999900000001,-10.237606048583984,-3.758896589279175,2.032677173614502,-71.7010498046875,12.8326416015625,77.423095703125
13.9899999,-10.314221382141113,-3.442862033843994,1.9728221893310547,-84.3658447265625,5.2947998046875,76.080322265625
14.0099999,-10.323798179626465,-3.138798475265503,1.8531121015548706,-97.4273681640625,-0.54931640625,73.9898681640625
14.0299999,-10.247182846069336,-2.849100112915039,1.6903064250946045,-109.9853515625,-3.5858154296875,73.2269287109375
14.049999900000001,-10.096348762512207,-2.561795711517334,1.5059528350830078,-120.1019287109375,-1.46484375,71.1669921875
14.069999900000001,-9.897629737854004,-2.2816741466522217,1.316810965538025,-126.7852783203125,6.591796875,63.04931640625
14.0899999,-9.715670585632324,-2.0159177780151367,1.0845733880996704,-130.3863525390625,17.669677734375,51.57470703125
14.1099999,-9.567230224609375,-1.8076223134994507,0.8092401623725891,-130.9967041015625,19.8211669921875,44.036865234375
14.129999900000001,-9.47146224975586,-1.6735470294952393,0.49799394607543945,-127.3651123046875,15.13671875,44.4793701171875
14.149999900000001,-9.435548782348633,-1.6304513216018677,0.18914192914962769,-120.2392578125,17.5628662109375,46.875
14.1699999,-9.48343276977539,-1.6424223184585571,-0.12928688526153564,-111.7401123046875,26.18408203125,44.49462890625
14.1899999,-9.605537414550781,-1.6831238269805908,-0.42377370595932007,-101.165771484375,21.3165283203125,37.5213623046875
14.209999900000001,-9.737217903137207,-1.7262194156646729,-0.6847416758537292,-88.92822265625,3.6468505859375,33.2183837890625
14.229999900000001,-9.861717224121094,-1.7549498081207275,-0.8786720037460327,-76.202392578125,-6.3934326171875,34.820556640625
14.2499999,-9.931148529052734,-1.766920804977417,-0.9720458984375,-64.27001953125,-6.65283203125,39.8101806640625
14.2699999,-9.974244117736816,-1.7190368175506592,-0.950498104095459,-54.1534423828125,-11.0626220703125,44.3115234375
14.289999900000002,-10.053253173828125,-1.6041151285171509,-0.8451532125473022,-46.81396484375,-19.1802978515625,44.9066162109375
14.309999900000001,-10.230423927307129,-1.4293384552001953,-0.7015010714530945,-42.05322265625,-21.8658447265625,41.9464111328125
14.3299999,-10.47702693939209,-1.2330138683319092,-0.5363011956214905,-37.5518798828125,-19.6533203125,35.82763671875
14.3499999,-10.733205795288086,-1.0462661981582642,-0.3519476354122162,-32.135009765625,-14.9383544921875,29.1748046875
14.3699999,-10.951078414916992,-0.9026140570640564,-0.19153612852096558,-29.11376953125,-6.988525390625,22.918701171875
14.389999900000001,-11.049241065979004,-0.7996633648872375,-0.05985504388809204,-30.120849609375,-4.4708251953125,17.4102783203125
14.4099999,-11.010933876037598,-0.7374141216278076,0.026336219161748886,-32.989501953125,-8.3160400390625,13.24462890625
14.4299999,-10.809821128845215,-0.706289529800415,0.06464344263076782,-34.332275390625,-8.48388671875,8.3770751953125
14.4499999,-10.486603736877441,-0.7110779285430908,0.05506663769483566,-33.2183837890625,-0.640869140625,1.983642578125
14.469999900000001,-10.093954086303711,-0.7445967197418213,0.016759412363171577,-29.47998046875,7.3394775390625,-1.4495849609375
14.4899999,-9.737217903137207,-0.7805097699165344,-0.031124621629714966,-24.4903564453125,8.1024169921875,-1.0223388671875
14.5099999,-9.466673851013184,-0.8188169598579407,-0.08619125932455063,-19.7906494140625,4.7607421875,-0.213623046875
14.5299999,-9.289502143859863,-0.8475474119186401,-0.11013327538967133,-16.4337158203125,-1.312255859375,2.349853515625
14.549999900000001,-9.215282440185547,-0.8307880163192749,-0.11252748221158981,-12.7716064453125,-2.8839111328125,7.14111328125
14.569999900000001,-9.21288776397705,-0.7876923680305481,-0.11013327538967133,-8.6517333984375,-0.5950927734375,8.209228515625
14.5899999,-9.265560150146484,-0.7086837291717529,-0.10295066982507706,-5.7830810546875,-6.0272216796875,5.7525634765625
14.6099999,-9.332598686218262,-0.6200982332229614,-0.09576806426048279,-3.6468505859375,-14.739990234375,4.638671875
14.629999900000001,-9.387664794921875,-0.5363011956214905,-0.07182604819536209,-0.9918212890625,-14.5721435546875,4.6234130859375
14.649999900000001,-9.404424667358398,-0.4572925269603729,-0.019153613597154617,0.9765625,-8.5601806640625,2.5787353515625
14.6699999,-9.418789863586426,-0.3974374830722809,0.05506663769483566,3.173828125,-4.8828125,0.0152587890625
14.6899999,-9.454702377319336,-0.3519476354122162,0.12449848651885986,6.011962890625,-4.7760009765625,0.762939453125
14.709999900000001,-9.533711433410645,-0.2944868206977844,0.1867477297782898,7.9803466796875,-4.8828125,1.89208984375
14.729999900000001,-9.655815124511719,-0.24420857429504395,0.23702596127986908,8.4075927734375,-3.0517578125,-1.5106201171875
14.7499999,-9.81143856048584,-0.181959331035614,0.2753331959247589,7.0037841796875,-1.3580322265625,-4.302978515625
14.7699999,-9.962273597717285,-0.1173158809542656,0.28969839215278625,4.4097900390625,-2.2125244140625,-2.716064453125
14.789999900000002,-10.079588890075684,-0.07661445438861847,0.2849099934101105,2.0904541015625,-3.1585693359375,-0.5035400390625
14.809999900000001,-10.165780067443848,-0.06224924325942993,0.23702596127986908,1.220703125,0.5645751953125,-0.518798828125
14.8299999,-10.223240852355957,-0.0933738648891449,0.17477671802043915,0.8392333984375,3.7078857421875,0.67138671875
14.8499999,-10.383652687072754,-0.15083470940589905,0.040701430290937424,3.0364990234375,2.9449462890625,2.410888671875
14.8699999,-10.575188636779785,-0.2082955539226532,-0.08379705995321274,7.14111328125,-6.439208984375,-3.41796875
14.889999900000001,-10.778696060180664,-0.26815059781074524,-0.17238251864910126,9.8419189453125,-10.3607177734375,-11.7950439453125
14.9099999,-10.893617630004883,-0.33039984107017517,-0.181959331035614,11.2457275390625,-3.2501220703125,-10.8184814453125
14.9299999,-10.888829231262207,-0.38546648621559143,-0.11252748221158981,11.871337890625,-2.8533935546875,-1.7242431640625
14.9499999,-10.740388870239258,-0.44771572947502136,0.004788403399288654,10.8489990234375,-10.467529296875,6.2255859375
14.969999900000001,-10.551246643066406,-0.4884171485900879,0.11252748221158981,11.53564453125,-12.02392578125,10.43701171875
14.9899999,-10.393229484558105,-0.47405192255973816,0.17717093229293823,14.6636962890625,-10.650634765625,14.1754150390625
15.0099999,-10.283096313476562,-0.40462008118629456,0.22266076505184174,17.4560546875,-16.7694091796875,12.8631591796875
15.0299999,-10.201693534851074,-0.3016694188117981,0.27054479718208313,18.310546875,-16.265869140625,3.875732421875
15.049999900000001,-10.141838073730469,-0.19153612852096558,0.31124621629714966,17.39501953125,-1.617431640625,-4.0283203125
15.069999900000001,-10.08198356628418,-0.10534487664699554,0.35434186458587646,14.9688720703125,3.90625,-2.532958984375
15.0899999,-10.02691650390625,-0.06224924325942993,0.40940847992897034,10.833740234375,-2.960205078125,5.157470703125
15.1099999,-10.019734382629395,-0.05027823522686958,0.4429273009300232,6.744384765625,0.0152587890625,10.3607177734375
15.129999900000001,-10.065223693847656,-0.05985504388809204,0.44771572947502136,4.9285888671875,9.0484619140625,10.0555419921875
15.149999900000001,-10.120290756225586,-0.07182604819536209,0.43335050344467163,4.57763671875,4.364013671875,7.8125
15.1699999,-10.11789608001709,-0.090979665517807,0.40701428055763245,4.1351318359375,-6.7901611328125,4.608154296875
15.1899999,-10.062829971313477,-0.10534487664699554,0.38307225704193115,4.1351318359375,-4.5623779296875,3.936767578125
15.209999900000001,-9.950302124023438,-0.12449848651885986,0.37828385829925537,3.875732421875,4.7607421875,5.584716796875
15.229999900000001,-9.854534149169922,-0.15322890877723694,0.38307225704193115,2.13623046875,2.9449462890625,7.476806640625
15.2499999,-9.782708168029785,-0.2059013396501541,0.38307225704193115,-0.9918212890625,-5.55419921875,8.819580078125
15.2699999,-9.758766174316406,-0.2753331959247589,0.3687070608139038,-3.72314453125,-5.706787109375,10.6048583984375
15.289999900000002,-9.825803756713867,-0.33997663855552673,0.33518823981285095,-4.1961669921875,2.6702880859375,11.6424560546875
15.309999900000001,-9.964667320251465,-0.3687070608139038,0.2849099934101105,-1.953125,7.3394775390625,8.5601806640625
15.3299999,-10.177751541137695,-0.35434186458587646,0.23702596127986908,2.197265625,5.0811767578125,0.3509521484375
15.3499999,-10.409989356994629,-0.3016694188117981,0.19632454216480255,6.8511962890625,3.631591796875,-4.6539306640625
15.3699999,-10.627861022949219,-0.22505496442317963,0.19393034279346466,10.4522705078125,3.662109375,-1.800537109375
15.389999900000001,-10.793061256408691,-0.13407529890537262,0.2346317619085312,11.871337890625,2.532958984375,3.2958984375
15.4099999,-10.946290016174316,-0.011971008032560349,0.304063618183136,11.9171142578125,0.06103515625,4.4097900390625
15.4299999,-11.104307174682617,0.13168109953403473,0.3878606855869293,11.9171142578125,0.1220703125,1.77001953125
15.4499999,-11.233593940734863,0.28730419278144836,0.4692635238170624,10.498046875,0.9765625,-0.5950927734375
15.469999900000001,-11.305420875549316,0.43335050344467163,0.5386953949928284,7.293701171875,-0.3204345703125,-3.509521484375
15.4899999,-11.305420875549316,0.5315127968788147,0.6033388376235962,3.0670166015625,-2.532958984375,-7.7362060546875
15.5099999,-11.240777015686035,0.5746083855628967,0.6607996821403503,-1.1749267578125,-2.4261474609375,-7.7972412109375
15.5299999,-11.135432243347168,0.5650315880775452,0.6967126727104187,-4.3487548828125,0.42724609375,-3.60107421875
15.549999900000001,-11.006145477294922,0.507570743560791,0.7254431247711182,-6.6375732421875,0.335693359375,-2.4566650390625
15.569999900000001,-10.900800704956055,0.42616790533065796,0.7182605266571045,-7.568359375,-0.1068115234375,-4.1961669921875
15.5899999,-10.83855152130127,0.33518823981285095,0.6919242739677429,-6.866455078125,1.312255859375,-5.126953125
15.6099999,-10.860098838806152,0.23702596127986908,0.6344634294509888,-4.2724609375,2.5787353515625,-6.53076171875
15.629999900000001,-10.917559623718262,0.12689268589019775,0.5746083855628967,-1.3427734375,-0.732421875,-11.7645263671875
15.649999900000001,-10.984597206115723,0.016759412363171577,0.5123591423034668,1.2664794921875,-5.0201416015625,-17.0135498046875
15.6699999,-11.025299072265625,-0.08619125932455063,0.4572925269603729,4.1961669921875,-3.72314453125,-18.5394287109375
15.6899999,-11.001357078552246,-0.17477671802043915,0.4189853072166443,6.866455078125,-0.4119873046875,-18.951416015625
15.709999900000001,-10.934319496154785,-0.24899697303771973,0.38307225704193115,9.8724365234375,1.9378662109375,-19.53125
15.729999900000001,-10.845733642578125,-0.2992752194404602,0.3447650372982025,15.350341796875,3.5858154296875,-20.56884765625
15.7499999,-10.737994194030762,-0.33279404044151306,0.304063618183136,22.247314453125,2.44140625,-23.7274169921875
15.7699999,-10.599130630493164,-0.33997663855552673,0.2825157940387726,28.1982421875,-1.251220703125,-27.4658203125
15.789999900000002,-10.45547866821289,-0.3208230137825012,0.28730419278144836,32.257080078125,-2.62451171875,-30.6549072265625
15.809999900000001,-10.287884712219238,-0.2849099934101105,0.3423708379268646,34.3780517578125,-2.532958984375,-32.928466796875
15.8299999,-10.113107681274414,-0.24899697303771973,0.43335050344467163,34.9273681640625,-1.068115234375,-32.4554443359375
15.8499999,-9.952696800231934,-0.24660277366638184,0.5386953949928284,35.614013671875,2.593994140625,-29.693603515625
15.869999900000002,-9.825803756713867,-0.272938996553421,0.6344634294509888,37.1551513671875,3.387451171875,-27.7099609375
15.889999900000001,-9.739612579345703,-0.33279404044151306,0.7158663272857666,37.65869140625,-2.1514892578125,-28.778076171875
15.9099999,-9.691728591918945,-0.42377370595932007,0.7781155705451965,36.285400390625,-7.7362060546875,-31.92138671875
15.9299999,-9.660603523254395,-0.524330198764801,0.8355764150619507,33.660888671875,-7.8887939453125,-35.919189453125
15.9499999,-9.612719535827637,-0.6488286852836609,0.9097966551780701,29.1900634765625,-1.6021728515625,-42.90771484375
15.969999900000001,-9.548076629638672,-0.8044517636299133,0.9720458984375,23.3154296875,8.3465576171875,-50.5523681640625
15.9899999,-9.44991397857666,-1.0055646896362305,1.0223240852355957,17.120361328125,14.22119140625,-55.0537109375
16.0099999,-9.339780807495117,-1.259350061416626,1.0295066833496094,14.2822265625,16.448974609375,-57.43408203125
16.0299999,-9.258378028869629,-1.556231141090393,0.9864110946655273,15.411376953125,17.4713134765625,-59.4024658203125
16.0499999,-9.241618156433105,-1.8746598958969116,0.912190854549408,17.4102783203125,15.5029296875,-61.2030029296875
16.0699999,-9.301473617553711,-2.188300371170044,0.8236053586006165,18.9208984375,13.4735107421875,-63.201904296875
16.089999900000002,-9.423578262329102,-2.4612393379211426,0.7398083209991455,20.01953125,14.9383544921875,-65.521240234375
16.109999900000002,-9.550470352172852,-2.715024709701538,0.6799532771110535,21.026611328125,20.233154296875,-68.939208984375
16.1299999,-9.682151794433594,-2.937685489654541,0.6200982332229614,22.6593017578125,24.1851806640625,-72.75390625
16.1499999,-9.81143856048584,-3.1507694721221924,0.5554547905921936,24.139404296875,20.6298828125,-78.4912109375
16.1699999,-9.90241813659668,-3.332728862762451,0.47644615173339844,23.9715576171875,13.3056640625,-87.860107421875
16.1899999,-9.883264541625977,-3.5266590118408203,0.42856210470199585,21.270751953125,13.5040283203125,-97.71728515625
16.2099999,-9.75397777557373,-3.7421371936798096,0.395043283700943,18.341064453125,27.40478515625,-99.7467041015625
16.2299999,-9.53849983215332,-4.000710964202881,0.38307225704193115,16.265869140625,36.041259765625,-97.2442626953125
16.249999900000002,-9.296685218811035,-4.256890773773193,0.3447650372982025,13.73291015625,29.541015625,-100.9674072265625
16.269999900000002,-9.026140213012695,-4.491522312164307,0.2537853717803955,10.2081298828125,20.751953125,-112.6556396484375
16.2899999,-8.669404029846191,-4.714183330535889,0.12928688526153564,7.1258544921875,25.6195068359375,-118.072509765625
16.3099999,-8.236053466796875,-4.932055473327637,-0.0454898327589035,7.843017578125,41.3360595703125,-112.3504638671875
16.3299999,-7.752425193786621,-5.188235282897949,-0.2298433631658554,12.26806640625,48.736572265625,-110.16845703125
16.3499999,-7.328651428222656,-5.451597213745117,-0.4429273009300232,18.3258056640625,50.1251220703125,-119.07958984375
16.3699999,-7.007828235626221,-5.722142219543457,-0.6320692300796509,24.0325927734375,52.276611328125,-130.5694580078125
16.3899999,-6.730101108551025,-5.983109951019287,-0.7709329724311829,28.2135009765625,54.046630859375,-135.25390625
16.4099999,-6.3949127197265625,-6.291962146759033,-0.8236053586006165,29.937744140625,51.6510009765625,-132.659912109375
16.429999900000002,-5.983109951019287,-6.648698329925537,-0.811634361743927,29.6173095703125,48.3245849609375,-124.69482421875
16.4499999,-5.477933406829834,-6.988674640655518,-0.7398083209991455,29.083251953125,48.4161376953125,-115.6158447265625
16.4699999,-5.015852451324463,-7.299921035766602,-0.6655880808830261,29.327392578125,55.9844970703125,-112.5030517578125
16.4899999,-4.649539470672607,-7.544129371643066,-0.5985504388809204,29.0679931640625,61.981201171875,-115.1885986328125
16.5099999,-4.443638324737549,-7.793126583099365,-0.569819986820221,26.8402099609375,58.77685546875,-118.0877685546875
16.5299999,-4.345476150512695,-8.061277389526367,-0.5482721924781799,25.054931640625,51.0101318359375,-116.119384765625
16.5499999,-4.247313976287842,-8.35097599029541,-0.5123591423034668,22.0184326171875,48.2635498046875,-112.9150390625
16.5699999,-4.0964789390563965,-8.686163902282715,-0.4644751250743866,16.4031982421875,52.2918701171875,-112.762451171875
16.589999900000002,-3.957615375518799,-9.069235801696777,-0.45010992884635925,11.444091796875,55.3741455078125,-112.48779296875
16.609999900000002,-3.892971992492676,-9.495404243469238,-0.5171475410461426,9.5367431640625,55.6182861328125,-110.992431640625
16.6299999,-3.912125587463379,-9.93354320526123,-0.6536170840263367,10.284423828125,55.206298828125,-112.8082275390625
16.6499999,-3.995922565460205,-10.338163375854492,-0.871489405632019,13.2293701171875,54.9774169921875,-120.1171875
16.6699999,-4.046200752258301,-10.599130630493164,-1.0821791887283325,19.8822021484375,49.346923828125,-130.523681640625
16.6899999,-3.914519786834717,-10.697293281555176,-1.2282254695892334,26.4892578125,39.154052734375,-142.120361328125
16.7099999,-3.529053211212158,-10.618284225463867,-1.2425906658172607,28.961181640625,32.9132080078125,-152.4505615234375
16.7299999,-2.8443117141723633,-10.42195987701416,-1.0869675874710083,25.20751953125,33.538818359375,-156.9061279296875
16.749999900000002,-1.9129672050476074,-10.134655952453613,-0.7876923680305481,16.54052734375,35.888671875,-152.2216796875
16.769999900000002,-0.828393816947937,-9.799467086791992,-0.4118026793003082,4.1351318359375,35.797119140625,-142.3492431640625
16.7899999,0.24899697303771973,-9.452308654785156,-0.08379705995321274,-9.063720703125,35.15625,-131.561279296875
16.8099999,1.1851298809051514,-9.119514465332031,0.1149216815829277,-19.4091796875,33.4014892578125,-119.32373046875
16.8299999,1.965639591217041,-8.80587387084961,0.1843535304069519,-25.4058837890625,29.23583984375,-105.1025390625
16.8499999,2.5450363159179688,-8.556877136230469,0.10295066982507706,-28.8848876953125,27.03857421875,-88.31787109375
16.8699999,2.892195701599121,-8.403648376464844,-0.10534487664699554,-31.6925048828125,25.5126953125,-70.068359375
16.8899999,3.0573954582214355,-8.348581314086914,-0.3878606855869293,-32.53173828125,19.04296875,-53.22265625
16.9099999,3.090914487838745,-8.35336971282959,-0.6943184733390808,-29.9072265625,13.00048828125,-39.825439453125
16.929999900000002,3.071760892868042,-8.389283180236816,-0.9720458984375,-25.08544921875,12.237548828125,-29.9835205078125
16.9499999,3.064578056335449,-8.427590370178223,-1.1875240802764893,-19.0582275390625,13.00048828125,-22.3236083984375
16.9699999,3.1100680828094482,-8.470685958862305,-1.3263877630233765,-11.5203857421875,10.68115234375,-15.777587890625
16.9899999,3.335123062133789,-8.645462036132812,-1.4413094520568848,2.0904541015625,3.7841796875,-0.06103515625
17.0099999,3.512293815612793,-8.71489429473877,-1.3766659498214722,3.448486328125,5.157470703125,7.38525390625
17.0299999,3.6822822093963623,-8.75080680847168,-1.280897855758667,2.1820068359375,7.8582763671875,12.2833251953125
17.0499999,3.8331170082092285,-8.75080680847168,-1.170764684677124,2.0751953125,0.1220703125,18.1427001953125
17.0699999,3.957615375518799,-8.734047889709473,-1.1013327836990356,2.593994140625,-11.016845703125,26.8096923828125
17.089999900000002,4.05817174911499,-8.755595207214355,-1.1013327836990356,2.105712890625,-11.29150390625,34.66796875
17.109999900000002,4.141968727111816,-8.829815864562988,-1.1492167711257935,2.2735595703125,-6.2713623046875,40.374755859375
17.1299999,4.2090067863464355,-8.951920509338379,-1.2425906658172607,3.8299560546875,-5.2490234375,45.684814453125
17.1499999,4.299986362457275,-9.136273384094238,-1.338358759880066,6.2103271484375,-8.6212158203125,52.42919921875
17.1699999,4.400542736053467,-9.368511199951172,-1.3982137441635132,8.697509765625,-14.617919921875,64.75830078125
17.1899999,4.458003520965576,-9.617507934570312,-1.4245500564575195,9.1552734375,-20.050048828125,82.6568603515625
17.2099999,4.443638324737549,-9.86889934539795,-1.403002142906189,7.99560546875,-23.895263671875,99.4415283203125
17.2299999,4.326322555541992,-10.074800491333008,-1.3431471586227417,8.6669921875,-24.7650146484375,115.1275634765625
17.249999900000002,4.043806552886963,-10.196905136108398,-1.259350061416626,15.9912109375,-23.49853515625,135.0860595703125
17.269999900000002,3.600879430770874,-10.165780067443848,-1.1037269830703735,24.0631103515625,-22.064208984375,153.0303955078125
17.2899999,2.9520506858825684,-9.979032516479492,-0.9361328482627869,23.590087890625,-21.9879150390625,161.895751953125
17.3099999,2.0685901641845703,-9.684545516967773,-0.7805097699165344,18.218994140625,-25.6195068359375,166.2445068359375
17.3299999,0.9720458984375,-9.363722801208496,-0.7230489253997803,17.059326171875,-32.1502685546875,170.3643798828125
17.3499999,-0.12449848651885986,-9.0859956741333,-0.727837324142456,22.918701171875,-49.37744140625,174.530029296875
17.3699999,-1.158793568611145,-8.9064302444458,-0.7206547260284424,28.564453125,-65.2008056640625,178.1463623046875
17.3899999,-2.145204782485962,-8.772355079650879,-0.6823474764823914,32.012939453125,-57.3272705078125,177.215576171875
17.409999900000003,-2.913743495941162,-8.595184326171875,-0.4644751250743866,36.1328125,-38.909912109375,168.121337890625
17.429999900000002,-3.6750996112823486,-8.463502883911133,-0.17717093229293823,37.8265380859375,-23.4375,155.609130859375
17.4499999,-4.441244125366211,-8.24084186553955,0.10055647045373917,35.09521484375,-20.751953125,153.564453125
17.4699999,-5.078101634979248,-8.022970199584961,0.38546648621559143,27.191162109375,-33.538818359375,153.8238525390625
17.4899999,-5.698200225830078,-7.716512203216553,0.6177040338516235,23.3154296875,-33.0963134765625,146.6522216796875
17.5099999,-6.215347766876221,-7.390900611877441,0.8523358106613159,19.775390625,-18.7530517578125,137.5885009765625
17.5299999,-6.746860504150391,-7.0557122230529785,1.036689281463623,9.6435546875,-14.312744140625,132.720947265625
17.5499999,-7.273584842681885,-6.687005519866943,1.2401964664459229,-1.190185546875,-23.2696533203125,124.0234375
17.5699999,-7.785943984985352,-6.378153324127197,1.3623007535934448,-7.8887939453125,-21.42333984375,102.447509765625
17.589999900000002,-8.063671112060547,-6.069301128387451,1.4844050407409668,-16.3726806640625,-11.3067626953125,86.456298828125
17.609999900000002,-8.087613105773926,-5.868188381195068,1.5466543436050415,-29.2510986328125,-8.3465576171875,87.58544921875
17.6299999,-7.920019149780273,-5.705382823944092,1.5466543436050415,-39.306640625,-13.5040283203125,96.038818359375
17.6499999,-7.726089000701904,-5.638344764709473,1.4508862495422363,-42.4957275390625,-16.265869140625,93.32275390625
17.6699999,-7.577648162841797,-5.530605792999268,1.3215993642807007,-44.9066162109375,-14.007568359375,86.24267578125
17.6899999,-7.501033782958984,-5.458779811859131,1.1420341730117798,-50.201416015625,-12.237548828125,85.479736328125
17.7099999,-7.484274387359619,-5.348646640777588,0.9313444495201111,-53.558349609375,-16.2200927734375,90.75927734375
17.7299999,-7.565677165985107,-5.260061264038086,0.6751648783683777,-52.2308349609375,-24.23095703125,88.6077880859375
17.749999900000002,-7.723694801330566,-5.142745018005371,0.43335050344467163,-48.6602783203125,-28.564453125,79.3304443359375
17.769999900000002,-7.881711959838867,-4.98472785949707,0.2561795711517334,-46.0205078125,-27.6641845703125,75.1495361328125
17.7899999,-7.967903137207031,-4.845864295959473,0.14604631066322327,-43.5028076171875,-24.5819091796875,80.4290771484375
17.8099999,-7.994239330291748,-4.661510944366455,0.11013327538967133,-38.848876953125,-25.665283203125,87.799072265625
17.8299999,-8.020575523376465,-4.462791919708252,0.10534487664699554,-31.6925048828125,-28.350830078125,83.6334228515625
17.8499999,-8.097189903259277,-4.225766181945801,0.12928688526153564,-25.5584716796875,-30.029296875,72.784423828125
17.8699999,-8.20492935180664,-3.9480385780334473,0.19871874153614044,-22.2015380859375,-33.0810546875,66.375732421875
17.8899999,-8.255207061767578,-3.663128614425659,0.304063618183136,-21.2860107421875,-33.99658203125,62.3931884765625
17.909999900000003,-8.202534675598145,-3.375824451446533,0.4381389021873474,-21.6217041015625,-28.2440185546875,56.243896484375
17.929999900000002,-8.075642585754395,-3.090914487838745,0.5841852426528931,-21.820068359375,-17.3492431640625,51.3763427734375
17.9499999,-7.970297336578369,-2.827552318572998,0.727837324142456,-20.3094482421875,-6.988525390625,51.4678955078125
17.9699999,-8.015787124633789,-2.559401512145996,0.8571242094039917,-18.2952880859375,-4.302978515625,52.9327392578125
17.9899999,-8.250418663024902,-2.2888567447662354,0.9792284965515137,-19.683837890625,-8.7738037109375,50.201416015625
18.0099999,-8.628703117370605,-2.011129379272461,1.1180921792984009,-24.59716796875,-8.0718994140625,48.0194091796875
18.0299999,-9.119514465332031,-1.7190368175506592,1.259350061416626,-28.7017822265625,4.5166015625,49.0875244140625
18.0499999,-9.622296333312988,-1.4700398445129395,1.3838485479354858,-32.53173828125,18.035888671875,49.6368408203125
18.0699999,-10.127472877502441,-1.2832920551300049,1.4389152526855469,-37.0330810546875,18.218994140625,47.088623046875
18.089999900000002,-10.620678901672363,-1.1779472827911377,1.4293384552001953,-41.046142578125,6.4849853515625,43.487548828125
18.109999900000002,-11.101913452148438,-1.1228805780410767,1.3287819623947144,-42.8009033203125,1.0833740234375,39.4134521484375
18.1299999,-11.465831756591797,-1.1420341730117798,1.2090718746185303,-43.0755615234375,4.0435791015625,32.8521728515625
18.1499999,-11.724405288696289,-1.2042834758758545,1.0869675874710083,-42.6025390625,8.3770751953125,26.8402099609375
18.1699999,-11.863269805908203,-1.280897855758667,0.9624691009521484,-41.7022705078125,10.2996826171875,22.613525390625
18.1899999,-11.851298332214355,-1.3718775510787964,0.8236053586006165,-40.4510498046875,7.0343017578125,18.829345703125
18.2099999,-11.690886497497559,-1.4484920501708984,0.6943184733390808,-37.1856689453125,1.373291015625,15.838623046875
18.2299999,-11.408370971679688,-1.5275006294250488,0.5746083855628967,-31.4788818359375,2.38037109375,16.3726806640625
18.249999900000002,-11.092336654663086,-1.5945383310317993,0.4692635238170624,-24.383544921875,5.401611328125,20.5078125
18.269999900000002,-10.84094524383545,-1.6280571222305298,0.3926490843296051,-17.1356201171875,-0.6256103515625,23.8037109375
18.2899999,-10.690110206604004,-1.6184803247451782,0.33758243918418884,-10.5438232421875,-13.1072998046875,24.1241455078125
18.3099999,-10.649409294128418,-1.5538369417190552,0.31842881441116333,-5.4473876953125,-21.78955078125,22.6593017578125
18.3299999,-10.656591415405273,-1.4437036514282227,0.33758243918418884,-1.434326171875,-22.0184326171875,19.5770263671875
18.3499999,-10.647014617919922,-1.314416766166687,0.40462008118629456,0.946044921875,-22.1405029296875,14.9383544921875
18.3699999,-10.721235275268555,-1.1228805780410767,0.47405192255973816,2.2125244140625,-24.658203125,8.636474609375
18.3899999,-10.66137981414795,-0.9840168952941895,0.5746083855628967,0.9613037109375,-28.9459228515625,-0.823974609375
18.409999900000003,-10.587160110473633,-0.8475474119186401,0.7015010714530945,-4.82177734375,-26.3824462890625,-6.866455078125
18.429999900000002,-10.38844108581543,-0.8140285611152649,0.8475474119186401,-7.4005126953125,-13.7939453125,-6.2408447265625
18.4499999,-10.182539939880371,-0.8331822156906128,0.9744400978088379,-8.880615234375,-5.3253173828125,-2.3651123046875
18.4699999,-10.002974510192871,-0.8858546018600464,1.048660397529602,-9.5672607421875,-9.613037109375,1.708984375
18.4899999,-9.859322547912598,-0.9361328482627869,1.0749965906143188,-10.1776123046875,-14.2822265625,6.8511962890625
18.5099999,-9.758766174316406,-0.9672574996948242,1.05105459690094,-11.810302734375,-8.331298828125,15.3045654296875
18.5299999,-9.72285270690918,-0.9624691009521484,1.0199298858642578,-12.6190185546875,-3.0364990234375,26.580810546875
18.5499999,-9.763554573059082,-0.9289502501487732,0.9888052940368652,-8.148193359375,-9.4146728515625,38.0706787109375
18.5699999,-9.945513725280762,-0.8547300100326538,0.9744400978088379,-3.936767578125,-21.148681640625,44.5404052734375
18.589999900000002,-10.216058731079102,-0.7422025203704834,1.0055646896362305,-1.5869140625,-29.4342041015625,44.3267822265625
18.609999900000002,-10.500968933105469,-0.6033388376235962,1.1013327836990356,2.5482177734375,-36.7431640625,33.8287353515625
18.6299999,-10.730812072753906,-0.4668693244457245,1.2641384601593018,3.8909912109375,-35.5072021484375,24.749755859375
18.6499999,-10.828974723815918,-0.3064578175544739,1.4413094520568848,-2.716064453125,-19.1802978515625,20.599365234375
18.6699999,-10.766724586486816,-0.17956513166427612,1.647210717201233,-6.89697265625,1.2969970703125,6.622314453125
18.6899999,-10.60152530670166,-0.08858546614646912,1.7932571172714233,-3.35693359375,21.484375,-10.101318359375
18.7099999,-10.433931350708008,-0.033518824726343155,1.8794482946395874,-1.373291015625,36.5142822265625,-23.4527587890625
18.7299999,-10.369287490844727,-0.014365210197865963,1.8531121015548706,-2.0751953125,42.9229736328125,-35.7513427734375
18.749999900000002,-10.309432983398438,-0.07900865375995636,1.745373010635376,0.3509521484375,36.9110107421875,-44.0521240234375
18.769999900000002,-10.24239444732666,-0.2059013396501541,1.5825673341751099,2.7618408203125,29.205322265625,-34.271240234375
18.7899999,-10.108319282531738,-0.395043283700943,1.400607943534851,6.4849853515625,27.0843505859375,-12.4359130859375
18.8099999,-9.979032516479492,-0.5770025849342346,1.2186486721038818,15.7012939453125,25.390625,-1.495361328125
18.8299999,-9.988609313964844,-0.706289529800415,1.0319008827209473,24.322509765625,21.6827392578125,-2.197265625
18.8499999,-10.132261276245117,-0.7254431247711182,0.8834604024887085,29.022216796875,4.241943359375,-4.33349609375
18.8699999,-10.36449909210205,-0.6655880808830261,0.7829039692878723,29.5867919921875,-17.2576904296875,-6.500244140625
18.8899999,-10.551246643066406,-0.5650315880775452,0.7972691655158997,29.144287109375,-21.209716796875,-12.420654296875
18.909999900000003,-10.582371711730957,-0.49320554733276367,0.912190854549408,29.144287109375,-13.519287109375,-18.5394287109375
18.929999900000002,-10.520122528076172,-0.44532153010368347,1.091755986213684,27.6947021484375,-5.7830810546875,-16.8914794921875
18.9499999,-10.409989356994629,-0.43095630407333374,1.2713210582733154,24.1241455078125,-4.0740966796875,-11.8255615234375
18.9699999,-10.27591323852539,-0.44771572947502136,1.4245500564575195,19.9737548828125,-5.828857421875,-10.223388671875
18.9899999,-10.1753568649292,-0.4644751250743866,1.5203180313110352,16.326904296875,-1.64794921875,-11.4593505859375
19.0099999,-10.093954086303711,-0.47165772318840027,1.5610195398330688,13.3819580078125,5.5694580078125,-13.153076171875
19.0299999,-10.007762908935547,-0.48602294921875,1.5538369417190552,10.55908203125,4.7760009765625,-14.7705078125
19.0499999,-9.909601211547852,-0.5147533416748047,1.5083470344543457,7.965087890625,-4.6234130859375,-12.847900390625
19.0699999,-9.785101890563965,-0.5602431893348694,1.4532804489135742,5.5694580078125,-11.199951171875,-5.126953125
19.089999900000002,-9.646238327026367,-0.6272808313369751,1.3934253454208374,3.5247802734375,-7.4462890625,0.732421875
19.109999900000002,-9.430760383605957,-0.7182605266571045,1.3982137441635132,0.732421875,-2.1209716796875,2.105712890625
19.1299999,-9.433155059814453,-0.7757213711738586,1.3239935636520386,-2.655029296875,12.6953125,2.86865234375
19.1499999,-9.493009567260742,-0.8236053586006165,1.3096283674240112,-1.861572265625,11.199951171875,-2.044677734375
19.1699999,-9.706093788146973,-0.8451532125473022,1.2425906658172607,-5.9356689453125,7.4462890625,-7.110595703125
19.1899999,-9.813833236694336,-0.8810662031173706,1.2737152576446533,-10.833740234375,18.73779296875,-11.9476318359375
19.2099999,-10.079588890075684,-0.9313444495201111,1.170764684677124,-17.1966552734375,49.5452880859375,-12.2833251953125
19.2299999,-10.266336441040039,-1.0295066833496094,1.1252747774124146,-18.1121826171875,48.2177734375,-11.688232421875
19.249999900000002,-10.563218116760254,-1.1540051698684692,0.9409212470054626,-19.22607421875,21.8048095703125,-12.7410888671875
19.269999900000002,-10.843339920043945,-1.3072341680526733,0.7493851184844971,-17.669677734375,14.34326171875,-15.289306640625
19.2899999,-11.039664268493652,-1.4724340438842773,0.5961562395095825,-13.458251953125,21.697998046875,-16.29638671875
19.3099999,-11.149797439575195,-1.6376339197158813,0.507570743560791,-9.6435546875,19.4091796875,-14.4805908203125
19.3299999,-11.240777015686035,-1.7836803197860718,0.4620809257030487,-6.622314453125,7.9345703125,-11.0015869140625
19.3499999,-11.288661003112793,-1.8818424940109253,0.4596867263317108,-4.791259765625,-3.5552978515625,-7.7056884765625
19.3699999,-11.224017143249512,-1.9321208000183105,0.4644751250743866,-4.2572021484375,-8.819580078125,-7.7667236328125
19.3899999,-11.03248119354248,-1.922544002532959,0.4620809257030487,-3.9520263671875,-9.1094970703125,-13.397216796875
19.409999900000003,-10.764330863952637,-1.8722656965255737,0.4357447028160095,-2.8228759765625,-9.552001953125,-22.247314453125
19.429999900000002,-10.460267066955566,-1.7908629179000854,0.3998316824436188,-1.617431640625,-11.1236572265625,-28.62548828125
19.4499999,-10.127472877502441,-1.7118542194366455,0.35673606395721436,-3.0059814453125,-13.1683349609375,-30.2734375
19.4699999,-9.782708168029785,-1.6304513216018677,0.31603461503982544,-8.209228515625,-16.448974609375,-28.13720703125
19.4899999,-9.433155059814453,-1.5897499322891235,0.2992752194404602,-15.7012939453125,-18.6004638671875,-25.1312255859375
19.5099999,-9.119514465332031,-1.5897499322891235,0.31124621629714966,-23.773193359375,-16.0980224609375,-21.697998046875
19.5299999,-8.884882926940918,-1.625662922859192,0.35913026332855225,-31.4788818359375,-9.7503662109375,-18.4173583984375
19.5499999,-8.746018409729004,-1.702277421951294,0.3926490843296051,-36.773681640625,-0.0762939453125,-19.012451171875
19.5699999,-8.681375503540039,-1.7884687185287476,0.3902548849582672,-37.567138671875,7.9193115234375,-24.1241455078125
19.589999900000002,-8.69334602355957,-1.8794482946395874,0.304063618183136,-34.9273681640625,15.716552734375,-30.120849609375
19.609999900000002,-8.765172004699707,-2.011129379272461,0.14844051003456116,-29.0374755859375,22.4151611328125,-32.3638916015625
19.6299999,-8.856152534484863,-2.169146776199341,-0.043095629662275314,-20.904541015625,17.08984375,-26.5350341796875
19.6499999,-8.939949035644531,-2.3535003662109375,-0.21787235140800476,-12.1307373046875,1.2054443359375,-15.3961181640625
19.6699999,-9.009381294250488,-2.518700122833252,-0.33279404044151306,-3.0670166015625,-9.124755859375,-6.9732666015625
19.6899999,-9.057265281677246,-2.6144683361053467,-0.35434186458587646,4.1656494140625,-11.8865966796875,-4.2724609375
19.7099999,-9.114726066589355,-2.6384103298187256,-0.2777273952960968,9.0484619140625,-10.6658935546875,-5.157470703125
19.7299999,-9.181763648986816,-2.6144683361053467,-0.13168109953403473,12.20703125,-9.307861328125,-6.04248046875
19.749999900000002,-9.227252960205078,-2.557007312774658,0.05506663769483566,12.14599609375,-9.2926025390625,-5.401611328125
19.769999900000002,-9.11233139038086,-2.492363929748535,0.3998316824436188,-4.7454833984375,1.312255859375,-2.44140625
19.7899999,-9.042900085449219,-2.5115175247192383,0.47405192255973816,-14.2822265625,14.2669677734375,-2.777099609375
19.8099999,-9.023746490478516,-2.5953147411346436,0.4644751250743866,-20.56884765625,20.4620361328125,-4.7607421875
19.8299999,-9.08838939666748,-2.741360902786255,0.3423708379268646,-22.216796875,18.00537109375,-5.767822265625
19.8499999,-9.169792175292969,-2.920926094055176,0.15801730751991272,-17.9290771484375,13.9923095703125,-4.8675537109375
19.8699999,-9.21288776397705,-3.1028854846954346,-0.05746084079146385,-11.0321044921875,13.18359375,-2.99072265625
19.8899999,-9.193734169006348,-3.2321722507476807,-0.2561795711517334,-5.4779052734375,12.420654296875,-1.3885498046875
19.909999900000003,-9.119514465332031,-3.308786630630493,-0.42377370595932007,-1.2664794921875,12.2528076171875,-1.190185546875
